Data from B5__Relative__4__00010.txt Node

Date: Tue Jan 30 17:51:31 CET 2024
User: diatiterra
Spectrometer: HDX00911
Trigger mode: 0
Integration Time (sec): 6,000000E-3
Scans to average: 3
Nonlinearity correction enabled: true
Boxcar width: 0
Storing dark spectrum: false
XAxis mode: Wavelengths
Number of Pixels in Spectrum: 2068
>>>>>Begin Spectral Data<<<<<
194,468	76,68
195,025	56,59
195,581	71,03
196,138	59,49
196,694	67,35
197,251	56,08
197,807	57,99
198,363	51,36
198,919	56,75
199,474	56,96
200,03	57,65
200,586	53,13
201,141	51
201,696	52,31
202,251	49,28
202,806	54,58
203,361	55,81
203,916	52,8
204,471	55,26
205,025	49,38
205,58	57,77
206,134	56,12
206,688	51,8
207,242	46,35
207,796	50,4
208,35	48,49
208,904	55,83
209,457	56,54
210,011	56,33
210,564	56,43
211,117	57,99
211,67	64,92
212,223	59,34
212,776	56,51
213,329	60,3
213,881	54,5
214,434	51,98
214,986	57,81
215,538	50,6
216,09	55,16
216,642	58,43
217,194	51,02
217,746	56,48
218,297	52,98
218,849	58,37
219,4	57,93
219,951	56,81
220,502	55,67
221,053	49,89
221,604	51,56
222,155	52,56
222,705	56,34
223,256	54,16
223,806	54,79
224,356	58,37
224,906	53,08
225,456	55,54
226,006	47,94
226,556	52,92
227,106	52,14
227,655	48,64
228,204	54,29
228,754	53,55
229,303	51,61
229,852	53,91
230,401	56,88
230,949	55,99
231,498	50,75
232,047	51,63
232,595	54,61
233,143	48,73
233,691	50,68
234,239	51,47
234,787	52,96
235,335	48,02
235,883	50,22
236,43	50,51
236,978	51,82
237,525	53,38
238,072	50,83
238,619	52,83
239,166	48,11
239,713	47,66
240,26	49,89
240,806	53,67
241,353	49,59
241,899	54,48
242,445	50,95
242,991	46,4
243,537	52,22
244,083	51,72
244,629	49,09
245,174	55,9
245,72	46,26
246,265	53,96
246,81	53,2
247,355	51,18
247,9	53,46
248,445	62,93
248,99	55,44
249,534	52,01
250,079	56,83
250,623	47,09
251,168	50,62
251,712	49,25
252,256	46,68
252,8	52,96
253,343	55,16
253,887	52,17
254,43	55,1
254,974	51,33
255,517	55,26
256,06	49,21
256,603	54,37
257,146	57,08
257,689	53,55
258,232	55,19
258,774	56,65
259,317	51,56
259,859	54,12
260,401	56,61
260,943	55,51
261,485	60,35
262,027	54,89
262,569	57,02
263,11	52,56
263,652	54,28
264,193	49,34
264,734	50,75
265,275	45,69
265,816	52,49
266,357	51,24
266,898	55,2
267,438	51,57
267,979	55,34
268,519	55,73
269,059	50,55
269,6	54,23
270,14	51,03
270,68	49,99
271,219	53,77
271,759	55,48
272,298	50,1
272,838	50,33
273,377	55,34
273,916	47,47
274,455	49,16
274,994	51,88
275,533	43,33
276,072	51,76
276,61	50
277,149	51,8
277,687	48,47
278,225	51,87
278,763	51,69
279,301	51,93
279,839	49,77
280,377	52,06
280,914	48,73
281,452	58,45
281,989	54,71
282,526	51,12
283,064	53,98
283,601	49,24
284,137	51,56
284,674	53,59
285,211	57,02
285,747	53,75
286,284	54,12
286,82	49,77
287,356	57,62
287,892	57,12
288,428	54,18
288,964	49,58
289,5	56,71
290,035	51,35
290,571	50
291,106	51,32
291,641	53,17
292,176	53,01
292,711	51,83
293,246	53,83
293,781	53,02
294,315	52,95
294,85	56,93
295,384	58,46
295,918	47,67
296,453	49,02
296,987	51,6
297,52	50,78
298,054	50,66
298,588	52,12
299,121	52,27
299,655	51,93
300,188	50,87
300,721	49,56
301,254	52,52
301,787	51,48
302,32	58,6
302,853	50,96
303,385	51,11
303,918	48,57
304,45	46,65
304,982	57,28
305,514	54,84
306,046	48,63
306,578	47,63
307,11	54,09
307,641	54,31
308,173	56,38
308,704	53,13
309,236	56,16
309,767	55,32
310,298	49,67
310,829	47,31
311,359	53,94
311,89	51,46
312,421	46,43
312,951	52,86
313,481	57,81
314,012	47,58
314,542	49,89
315,072	51,6
315,601	46,59
316,131	52,25
316,661	50,33
317,19	45,46
317,72	51,97
318,249	53,3
318,778	48,49
319,307	50,9
319,836	53,47
320,365	53,98
320,893	52,53
321,422	45,43
321,95	46,71
322,479	53,34
323,007	46,58
323,535	49,03
324,063	51,57
324,591	56,37
325,118	50,82
325,646	45,08
326,173	53,96
326,701	54,25
327,228	48,67
327,755	54,6
328,282	47,65
328,809	50
329,336	47,06
329,862	50
330,389	49,78
330,915	57,43
331,441	52,22
331,968	45,41
332,494	46,46
333,02	43,87
333,545	48,6
334,071	48,67
334,597	49,47
335,122	50,11
335,648	48,12
336,173	46,66
336,698	46,6
337,223	48,36
337,748	52,13
338,272	44,49
338,797	44,86
339,322	52,95
339,846	50,72
340,37	50
340,894	48,08
341,419	43,42
341,942	43,93
342,466	45,52
342,99	52,52
343,514	44,37
344,037	46,08
344,56	51,67
345,084	42,46
345,607	49,48
346,13	46,91
346,653	44,05
347,175	38,39
347,698	45,9
348,221	41,57
348,743	42,63
349,265	46,21
349,787	43,83
350,309	43,91
350,831	40,52
351,353	41,46
351,875	42,31
352,397	40,53
352,918	45,54
353,439	47,55
353,961	46,31
354,482	42,09
355,003	42,24
355,524	43,25
356,044	44,3
356,565	44,1
357,086	38,49
357,606	40,29
358,126	42,32
358,646	40,73
359,167	43,32
359,687	44,2
360,206	41,81
360,726	42,1
361,246	42,35
361,765	40,87
362,285	45,17
362,804	42,41
363,323	43,06
363,842	44,34
364,361	42,39
364,88	44,79
365,398	39,72
365,917	45,11
366,435	42,16
366,954	40,95
367,472	37,49
367,99	42,68
368,508	38,27
369,026	40,09
369,544	43,01
370,061	41,48
370,579	37,83
371,096	40,11
371,613	42,36
372,131	44,27
372,648	37,87
373,165	38,26
373,681	37,69
374,198	40,12
374,715	38,95
375,231	38,28
375,747	38,43
376,264	33,28
376,78	38,25
377,296	36,4
377,812	37,64
378,327	37,7
378,843	38,46
379,359	36,58
379,874	35,15
380,389	38,55
380,905	36,91
381,42	36,69
381,935	35,44
382,449	33,49
382,964	34,6
383,479	34,66
383,993	33,88
384,508	33,22
385,022	33,34
385,536	34,69
386,05	32,59
386,564	34,49
387,078	32,04
387,592	33,07
388,105	30,59
388,619	30,56
389,132	28,34
389,645	28,49
390,158	29,41
390,671	28,09
391,184	29,27
391,697	27,33
392,21	28,15
392,722	29,19
393,235	28,68
393,747	25,9
394,259	26,85
394,771	28,71
395,283	27,62
395,795	27,11
396,307	27,27
396,818	25,96
397,33	26,33
397,841	24,07
398,353	26,51
398,864	25,03
399,375	25,48
399,886	24,8
400,397	23,03
400,907	23,43
401,418	22,38
401,928	23,67
402,439	21,65
402,949	21,48
403,459	22,04
403,969	21,68
404,479	20,03
404,989	19,35
405,498	19,25
406,008	18,76
406,517	18,89
407,027	17,19
407,536	17,19
408,045	16,14
408,554	16,06
409,063	15,39
409,572	14,37
410,08	14,34
410,589	14,33
411,097	14,53
411,606	13,26
412,114	12,91
412,622	11,85
413,13	12,52
413,638	12,55
414,145	11,58
414,653	11,2
415,16	11,39
415,668	10,77
416,175	10,85
416,682	10,59
417,189	10,58
417,696	10,06
418,203	9,73
418,71	10,02
419,216	9,83
419,723	9,52
420,229	8,96
420,735	8,92
421,242	9,24
421,748	8,8
422,254	8,93
422,759	9,35
423,265	8,86
423,771	8,68
424,276	8,6
424,781	8,42
425,287	8,76
425,792	8,27
426,297	7,91
426,802	7,96
427,306	8,2
427,811	8,06
428,316	7,98
428,82	8,36
429,324	8,01
429,829	7,99
430,333	7,99
430,837	7,62
431,34	7,67
431,844	7,75
432,348	8,03
432,851	7,68
433,355	8,03
433,858	7,43
434,361	7,49
434,864	7,65
435,367	7,26
435,87	7,39
436,373	7,44
436,876	7,17
437,378	7,49
437,88	7,36
438,383	7,38
438,885	7,05
439,387	7,47
439,889	7,56
440,391	7,49
440,892	7,29
441,394	7,67
441,896	7,44
442,397	7,61
442,898	7,57
443,399	7,42
443,9	7,48
444,401	7,41
444,902	7,21
445,403	7,44
445,903	7,43
446,404	7,46
446,904	7,56
447,405	7,53
447,905	7,51
448,405	7,86
448,905	8,06
449,404	7,78
449,904	7,72
450,404	7,77
450,903	7,67
451,403	7,63
451,902	7,69
452,401	7,79
452,9	7,96
453,399	8,06
453,898	8,16
454,396	7,98
454,895	7,79
455,393	8,11
455,892	8,02
456,39	8,36
456,888	8,13
457,386	8,19
457,884	7,98
458,382	8,15
458,879	8,13
459,377	8,05
459,874	8,29
460,372	8,32
460,869	8,18
461,366	8,18
461,863	8,08
462,36	8,33
462,857	8,18
463,353	8,18
463,85	8,21
464,346	8,08
464,843	7,99
465,339	8,48
465,835	8,17
466,331	8,08
466,827	8,16
467,323	8,27
467,818	8,21
468,314	8,19
468,809	8,08
469,305	8,04
469,8	8,1
470,295	8,31
470,79	8,28
471,285	8,29
471,78	8,3
472,274	8,11
472,769	8,05
473,263	8,27
473,758	8,15
474,252	8,17
474,746	8,11
475,24	8,15
475,734	8,27
476,228	8,05
476,721	8,33
477,215	8,28
477,708	8,14
478,202	8,25
478,695	8,33
479,188	8,2
479,681	8,34
480,174	8,4
480,667	8,61
481,159	8,23
481,652	8,36
482,144	8,33
482,637	8,55
483,129	8,36
483,621	8,55
484,113	8,4
484,605	8,53
485,097	8,6
485,588	8,44
486,08	8,51
486,571	8,51
487,063	8,53
487,554	8,74
488,045	8,77
488,536	8,83
489,027	8,67
489,518	8,81
490,008	8,91
490,499	8,95
490,989	8,95
491,48	9,11
491,97	9,24
492,46	9,29
492,95	9,29
493,44	9,55
493,93	9,46
494,419	9,44
494,909	9,66
495,398	9,72
495,888	9,78
496,377	9,76
496,866	10,12
497,355	10,23
497,844	10,19
498,333	10,52
498,821	10,69
499,31	10,79
499,798	10,6
500,287	10,78
500,775	11,13
501,263	11,32
501,751	11,45
502,239	11,54
502,727	12,02
503,215	11,89
503,702	12,15
504,19	12,36
504,677	12,59
505,164	12,84
505,651	12,79
506,139	13,14
506,625	13,53
507,112	13,63
507,599	13,93
508,086	14,28
508,572	14,43
509,058	14,9
509,545	14,77
510,031	15,21
510,517	15,49
511,003	15,89
511,489	16,11
511,974	16,48
512,46	16,65
512,946	17,09
513,431	17,59
513,916	17,45
514,401	17,91
514,887	18,38
515,371	18,61
515,856	19,19
516,341	19,38
516,826	19,95
517,31	19,83
517,795	20,3
518,279	20,9
518,763	21,33
519,247	21,76
519,731	21,99
520,215	22,25
520,699	22,52
521,182	23,09
521,666	23,63
522,149	23,92
522,633	24,45
523,116	24,36
523,599	24,85
524,082	25,2
524,565	25,61
525,048	26,09
525,53	26,26
526,013	26,64
526,495	26,49
526,978	27,03
527,46	27,41
527,942	27,81
528,424	28,09
528,906	28,06
529,388	28,41
529,87	28,67
530,351	28,67
530,833	29,16
531,314	29,06
531,795	28,98
532,277	29,66
532,758	30,32
533,238	29,93
533,719	29,75
534,2	30,04
534,681	30,59
535,161	30,54
535,642	30,13
536,122	30,32
536,602	30,6
537,082	30,55
537,562	31,01
538,042	31,14
538,522	30,61
539,001	30,71
539,481	31,11
539,96	31,08
540,44	31,44
540,919	31,17
541,398	31,34
541,877	31,54
542,356	31,2
542,835	31,84
543,313	31,62
543,792	31,8
544,27	31,66
544,749	31,77
545,227	31,98
545,705	31,9
546,183	32,02
546,661	31,85
547,139	31,89
547,616	31,86
548,094	32,02
548,571	32,09
549,049	32,3
549,526	32,33
550,003	32,28
550,48	32,35
550,957	32,28
551,434	32,07
551,911	32,12
552,387	32,42
552,864	32,48
553,34	32,42
553,817	32,63
554,293	32,39
554,769	32,54
555,245	32,38
555,721	32,21
556,197	32,42
556,672	32,5
557,148	32,3
557,623	32,07
558,099	32,4
558,574	32,24
559,049	32,33
559,524	31,99
559,999	32,05
560,474	31,69
560,948	31,96
561,423	31,82
561,897	31,69
562,372	31,47
562,846	31,66
563,32	31,47
563,794	31,41
564,268	31,24
564,742	31,24
565,216	30,87
565,69	30,91
566,163	30,77
566,636	30,4
567,11	30,41
567,583	29,86
568,056	30,22
568,529	29,59
569,002	29,53
569,475	29,52
569,947	28,96
570,42	28,96
570,892	28,87
571,365	28,77
571,837	28,54
572,309	28,3
572,781	28,41
573,253	27,94
573,725	27,4
574,197	27,48
574,668	27,63
575,14	27,51
575,611	26,83
576,082	26,86
576,554	26,75
577,025	26,62
577,496	26,25
577,967	26,34
578,437	26,19
578,908	25,8
579,379	25,81
579,849	25,61
580,319	25,38
580,79	25,46
581,26	25,33
581,73	24,97
582,2	25,19
582,669	24,66
583,139	24,65
583,609	24,62
584,078	24,37
584,548	24,35
585,017	24,23
585,486	24,28
585,955	24,05
586,424	24,04
586,893	23,74
587,362	23,6
587,83	23,31
588,299	23,41
588,767	23,18
589,236	23,16
589,704	23,21
590,172	23,26
590,64	23,06
591,108	22,86
591,576	22,79
592,043	22,78
592,511	22,84
592,978	22,58
593,446	22,55
593,913	22,48
594,38	22,49
594,847	22,55
595,314	22,04
595,781	22,16
596,248	22,29
596,715	22,11
597,181	22,21
597,647	22,32
598,114	22,21
598,58	22,1
599,046	21,98
599,512	21,82
599,978	21,86
600,444	21,88
600,91	21,78
601,375	21,58
601,841	21,74
602,306	21,67
602,771	21,59
603,236	21,61
603,702	21,41
604,167	21,24
604,631	21,2
605,096	21,29
605,561	21,25
606,025	21,03
606,49	20,99
606,954	20,75
607,418	20,88
607,882	20,72
608,347	20,58
608,81	20,56
609,274	20,42
609,738	20,27
610,202	20,29
610,665	20,03
611,128	19,95
611,592	20,09
612,055	19,78
612,518	19,63
612,981	19,5
613,444	19,73
613,907	19,39
614,369	19,41
614,832	19,55
615,294	19,12
615,757	19,02
616,219	19
616,681	18,9
617,143	18,72
617,605	18,56
618,067	18,64
618,529	18,45
618,99	18,36
619,452	18,37
619,913	18,33
620,375	18,15
620,836	17,93
621,297	17,98
621,758	17,87
622,219	17,8
622,68	17,67
623,14	17,95
623,601	17,83
624,061	17,69
624,522	17,46
624,982	17,57
625,442	17,58
625,902	17,45
626,362	17,5
626,822	17,56
627,282	17,58
627,742	17,32
628,201	17,4
628,661	17,35
629,12	17,25
629,579	17,2
630,038	17,38
630,497	17,19
630,956	17,28
631,415	17,12
631,874	17,25
632,332	17,28
632,791	17,21
633,249	17,06
633,708	17
634,166	17,07
634,624	16,68
635,082	16,81
635,54	16,66
635,998	16,59
636,455	16,4
636,913	16,25
637,37	16,31
637,828	16,07
638,285	15,88
638,742	15,91
639,199	15,72
639,656	15,51
640,113	15,3
640,57	15,37
641,027	15,17
641,483	14,86
641,94	14,67
642,396	14,56
642,852	14,5
643,309	14,4
643,765	14,13
644,221	13,9
644,676	13,76
645,132	13,78
645,588	13,57
646,043	13,37
646,499	13,13
646,954	13,02
647,409	12,97
647,864	12,82
648,319	12,67
648,774	12,52
649,229	12,4
649,684	12,3
650,139	12,2
650,593	12,11
651,047	11,97
651,502	12,03
651,956	11,93
652,41	11,76
652,864	11,81
653,318	11,67
653,772	11,73
654,225	11,67
654,679	11,59
655,133	11,54
655,586	11,48
656,039	11,41
656,492	11,26
656,946	11,17
657,399	11,14
657,851	10,95
658,304	10,99
658,757	10,93
659,209	10,72
659,662	10,57
660,114	10,52
660,567	10,45
661,019	10,39
661,471	10,17
661,923	10,15
662,375	10,01
662,826	9,96
663,278	9,8
663,73	9,71
664,181	9,66
664,632	9,56
665,084	9,5
665,535	9,46
665,986	9,42
666,437	9,36
666,888	9,22
667,338	9,21
667,789	9,22
668,24	9,17
668,69	9,09
669,14	9,07
669,591	9,17
670,041	9,17
670,491	9,15
670,941	9,14
671,391	9,19
671,84	9,18
672,29	9,23
672,74	9,32
673,189	9,37
673,638	9,34
674,088	9,36
674,537	9,51
674,986	9,56
675,435	9,67
675,883	9,75
676,332	9,76
676,781	9,89
677,229	9,97
677,678	10,15
678,126	10,2
678,574	10,37
679,022	10,52
679,47	10,6
679,918	10,67
680,366	10,72
680,814	11,05
681,261	11,14
681,709	11,31
682,156	11,45
682,604	11,52
683,051	11,64
683,498	11,88
683,945	12,04
684,392	12,26
684,839	12,4
685,286	12,71
685,732	12,82
686,179	13,12
686,625	13,34
687,071	13,52
687,518	13,95
687,964	14,21
688,41	14,54
688,856	14,86
689,301	15,31
689,747	15,54
690,193	16,14
690,638	16,46
691,084	17,17
691,529	17,55
691,974	18,09
692,419	18,72
692,864	19,15
693,309	19,83
693,754	20,37
694,199	21,12
694,643	21,49
695,088	22,13
695,532	23,03
695,977	23,52
696,421	24,1
696,865	24,82
697,309	25,51
697,753	25,98
698,197	26,71
698,64	27,19
699,084	27,75
699,527	28,45
699,971	29,04
700,414	29,61
700,857	30,23
701,3	30,71
701,743	31,03
702,186	31,91
702,629	32,41
703,072	32,8
703,515	33,29
703,957	33,94
704,399	34,26
704,842	34,73
705,284	35
705,726	35,47
706,168	36,05
706,61	36,53
707,052	36,78
707,494	37,37
707,935	37,74
708,377	38,31
708,818	38,63
709,26	38,85
709,701	39,36
710,142	39,44
710,583	40,04
711,024	40,49
711,465	40,84
711,905	41,12
712,346	41,55
712,787	41,65
713,227	42,13
713,667	42,66
714,108	43,07
714,548	43,06
714,988	43,36
715,428	43,7
715,868	44,16
716,307	44,21
716,747	44,74
717,186	45,07
717,626	45,29
718,065	45,6
718,504	45,76
718,944	46,12
719,383	46,5
719,822	46,68
720,261	46,85
720,699	47,01
721,138	47,09
721,576	47,66
722,015	47,78
722,453	48,19
722,892	48,26
723,33	48,36
723,768	48,71
724,206	49,06
724,644	49,19
725,081	49,41
725,519	49,42
725,957	49,5
726,394	49,83
726,832	49,69
727,269	50,23
727,706	50,24
728,143	50,52
728,58	50,6
729,017	50,58
729,454	51,07
729,89	50,86
730,327	50,9
730,764	51,1
731,2	51,34
731,636	51,32
732,072	51,5
732,509	51,53
732,945	51,73
733,38	51,81
733,816	51,81
734,252	51,92
734,688	51,71
735,123	51,93
735,559	52,33
735,994	52,11
736,429	52,24
736,864	52,3
737,299	52,05
737,734	52,12
738,169	52,39
738,604	52,48
739,038	52,31
739,473	52,5
739,907	52,63
740,342	52,47
740,776	52,23
741,21	52,77
741,644	52,63
742,078	52,9
742,512	52,67
742,946	52,69
743,379	52,56
743,813	52,55
744,246	52,66
744,68	52,72
745,113	52,63
745,546	52,53
745,979	52,72
746,412	52,58
746,845	52,35
747,278	52,8
747,711	52,55
748,143	52,71
748,576	52,29
749,008	52,45
749,441	52,44
749,873	52,48
750,305	52,44
750,737	52,36
751,169	52,16
751,601	52,23
752,032	52,4
752,464	52,41
752,896	52,4
753,327	52,21
753,758	52,13
754,19	52,19
754,621	52,32
755,052	52,08
755,483	52
755,914	52,03
756,344	52,17
756,775	51,99
757,206	52,05
757,636	51,84
758,066	51,93
758,497	51,85
758,927	51,69
759,357	51,78
759,787	51,98
760,217	51,61
760,647	51,45
761,076	51,72
761,506	51,61
761,935	51,41
762,365	51,64
762,794	51,59
763,223	51,5
763,653	51,77
764,082	51,52
764,51	51,47
764,939	51,45
765,368	51,53
765,797	51,5
766,225	51,31
766,654	51,27
767,082	51,04
767,51	51,53
767,938	51,16
768,367	51,21
768,795	51,2
769,222	51,29
769,65	51,13
770,078	51,32
770,505	50,96
770,933	51,02
771,36	51,18
771,788	51,01
772,215	50,97
772,642	50,8
773,069	51,07
773,496	50,83
773,923	50,91
774,349	50,79
774,776	50,83
775,203	50,8
775,629	50,63
776,055	50,74
776,482	50,83
776,908	50,74
777,334	50,76
777,76	50,65
778,186	50,63
778,611	50,61
779,037	50,81
779,463	50,61
779,888	50,51
780,314	50,3
780,739	50,69
781,164	50,46
781,589	50,49
782,014	50,41
782,439	50,45
782,864	50,37
783,289	50,58
783,713	50,42
784,138	50,27
784,562	50,49
784,987	50,42
785,411	50,46
785,835	50,15
786,259	50,4
786,683	50,47
787,107	50,48
787,531	50,22
787,954	50,14
788,378	50,45
788,802	50,56
789,225	50,3
789,648	50,26
790,071	50,41
790,495	50,11
790,918	50,17
791,34	50,43
791,763	50,2
792,186	50,09
792,609	50,56
793,031	50,02
793,454	50,18
793,876	50,13
794,298	50,16
794,721	50,21
795,143	50,16
795,565	50,08
795,986	50,22
796,408	50,15
796,83	50,1
797,252	50,39
797,673	50,29
798,094	49,95
798,516	49,88
798,937	50,07
799,358	49,91
799,779	50,12
800,2	50,03
800,621	50,02
801,042	49,95
801,462	49,9
801,883	50,14
802,303	49,97
802,724	49,9
803,144	50,19
803,564	49,91
803,984	50,05
804,404	49,83
804,824	50,21
805,244	49,98
805,664	50,23
806,084	49,93
806,503	50,07
806,923	49,96
807,342	49,98
807,761	49,78
808,18	49,95
808,599	49,99
809,018	49,84
809,437	49,96
809,856	49,69
810,275	49,66
810,693	49,75
811,112	49,87
811,53	49,66
811,949	50,15
812,367	49,83
812,785	49,99
813,203	50,06
813,621	49,9
814,039	49,73
814,457	49,78
814,874	49,84
815,292	49,66
815,709	49,88
816,127	49,85
816,544	50,22
816,961	49,81
817,378	49,99
817,795	49,73
818,212	49,75
818,629	49,78
819,046	49,65
819,462	49,79
819,879	49,89
820,295	49,56
820,712	49,81
821,128	49,8
821,544	49,52
821,96	49,7
822,376	49,81
822,792	49,77
823,208	49,81
823,624	49,67
824,039	50,05
824,455	49,59
824,87	49,6
825,286	49,81
825,701	49,58
826,116	49,3
826,531	49,63
826,946	49,53
827,361	49,4
827,776	49,5
828,19	49,53
828,605	49,91
829,02	49,6
829,434	49,6
829,848	49,73
830,263	49,6
830,677	49,39
831,091	49,73
831,505	49,48
831,919	49,68
832,332	49,33
832,746	49,49
833,16	49,45
833,573	49,55
833,987	49,46
834,4	49,65
834,813	49,68
835,226	49,75
835,639	49,48
836,052	49,53
836,465	49,57
836,878	49,74
837,29	49,38
837,703	49,39
838,116	49,46
838,528	49,27
838,94	49,63
839,352	49,53
839,765	49,37
840,177	49,53
840,589	49,62
841	49,58
841,412	49,44
841,824	49,52
842,235	49,43
842,647	49,51
843,058	49,71
843,47	49,6
843,881	49,62
844,292	49,27
844,703	49,29
845,114	49,45
845,525	49,32
845,935	49,33
846,346	49,32
846,757	49,43
847,167	49,51
847,577	49,75
847,988	49,47
848,398	49,27
848,808	49,21
849,218	49,28
849,628	49,2
850,038	49,36
850,448	49,24
850,857	49,5
851,267	49,13
851,676	49,31
852,086	49,32
852,495	49,27
852,904	49,29
853,313	48,97
853,722	49,24
854,131	49,24
854,54	49,21
854,949	49,27
855,357	49,16
855,766	49,43
856,174	48,99
856,583	49,27
856,991	49,21
857,399	49,34
857,807	49,6
858,215	49,41
858,623	49,35
859,031	49,34
859,439	49,47
859,846	49,19
860,254	49,38
860,661	49,31
861,069	49,17
861,476	49,3
861,883	49,17
862,29	49,43
862,697	49,41
863,104	48,99
863,511	49,03
863,918	49,2
864,325	49,12
864,731	48,77
865,138	49,26
865,544	49,48
865,95	49
866,357	48,95
866,763	49,12
867,169	49,41
867,575	49,18
867,98	49,21
868,386	49,37
868,792	49,08
869,197	49,03
869,603	49,12
870,008	49,17
870,414	49,13
870,819	48,79
871,224	49,16
871,629	48,82
872,034	49,13
872,439	48,91
872,844	49,04
873,248	49,15
873,653	49,02
874,057	49,31
874,462	48,94
874,866	49,11
875,27	49,05
875,674	49,03
876,078	48,99
876,482	48,86
876,886	49,02
877,29	48,76
877,694	49,24
878,097	48,75
878,501	48,78
878,904	49
879,308	49,1
879,711	48,99
880,114	49,34
880,517	48,85
880,92	49,05
881,323	49,06
881,726	48,94
882,128	48,78
882,531	49,19
882,934	48,94
883,336	48,9
883,738	48,97
884,141	49,32
884,543	49,39
884,945	48,98
885,347	49,02
885,749	48,78
886,151	48,93
886,552	48,88
886,954	48,87
887,355	48,91
887,757	48,87
888,158	49,16
888,56	49,19
888,961	49,05
889,362	48,98
889,763	49,1
890,164	49,02
890,565	48,88
890,965	49,11
891,366	49,14
891,767	48,95
892,167	49,11
892,567	48,72
892,968	49,06
893,368	49,05
893,768	48,55
894,168	48,89
894,568	49,17
894,968	49,19
895,368	48,84
895,767	48,9
896,167	49,05
896,566	48,81
896,966	48,89
897,365	48,98
897,764	48,99
898,164	49,13
898,563	48,95
898,962	49,1
899,361	48,84
899,759	48,97
900,158	49,1
900,557	49,12
900,955	49,25
901,354	48,96
901,752	48,87
902,15	48,72
902,548	48,92
902,947	48,71
903,345	48,72
903,742	49,08
904,14	48,8
904,538	48,96
904,936	48,81
905,333	48,81
905,731	48,76
906,128	48,87
906,525	48,81
906,923	48,75
907,32	48,65
907,717	48,6
908,114	49,03
908,511	48,91
908,907	48,98
909,304	48,9
909,701	48,79
910,097	48,73
910,494	49,14
910,89	48,63
911,286	48,9
911,682	48,93
912,078	48,85
912,474	48,96
912,87	49,11
913,266	48,68
913,662	48,95
914,058	48,98
914,453	48,96
914,849	48,84
915,244	48,63
915,639	49,26
916,034	49,05
916,43	48,85
916,825	48,94
917,22	48,95
917,614	48,85
918,009	48,55
918,404	48,58
918,798	48,8
919,193	48,77
919,587	48,94
919,982	48,45
920,376	48,79
920,77	48,74
921,164	48,55
921,558	48,97
921,952	48,78
922,346	48,79
922,74	48,92
923,133	48,78
923,527	48,67
923,92	48,69
924,314	48,52
924,707	48,54
925,1	48,69
925,493	48,55
925,886	48,67
926,279	48,73
926,672	48,46
927,065	48,72
927,457	48,57
927,85	48,36
928,243	48,56
928,635	48,4
929,027	48,12
929,42	48,56
929,812	48,37
930,204	48,46
930,596	48,58
930,988	48,69
931,379	48,64
931,771	48,55
932,163	48,6
932,554	48,26
932,946	48,22
933,337	48,36
933,729	48,81
934,12	48,03
934,511	48,4
934,902	47,97
935,293	48,31
935,684	48,56
936,075	48,58
936,465	48,28
936,856	47,53
937,246	48,67
937,637	48,23
938,027	48,44
938,417	48,43
938,808	48,08
939,198	48,37
939,588	48,12
939,978	48,17
940,368	48,17
940,757	48,12
941,147	47,9
941,537	48,5
941,926	47,93
942,315	47,78
942,705	48,7
943,094	48
943,483	47,51
943,872	48,16
944,261	47,75
944,65	48
945,039	47,89
945,428	47,59
945,816	47,81
946,205	47,24
946,593	47,8
946,982	47,64
947,37	47,96
947,758	48,01
948,146	47,59
948,534	47,07
948,922	47,82
949,31	47,74
949,698	47,66
950,086	47,74
950,473	48,03
950,861	47,45
951,248	47,16
951,636	47,5
952,023	47,5
952,41	47,38
952,797	47,7
953,184	47,48
953,571	47,49
953,958	48,01
954,345	47,64
954,731	47,65
955,118	47,44
955,505	47,11
955,891	47,97
956,277	47,42
956,664	47,51
957,05	47,14
957,436	47,08
957,822	47,19
958,208	46,72
958,594	47,17
958,979	47,31
959,365	46,97
959,751	47,21
960,136	47,17
960,522	47,06
960,907	47,27
961,292	47,43
961,677	47,21
962,062	46,85
962,447	47,6
962,832	47,3
963,217	47,17
963,602	46,91
963,986	47,09
964,371	46,73
964,756	47,12
965,14	47,4
965,524	46,88
965,908	47,18
966,293	46,9
966,677	46,86
967,061	46,92
967,445	46,99
967,828	47,57
968,212	47,07
968,596	47,48
968,979	47,37
969,363	47,19
969,746	47,02
970,129	46,92
970,513	47,22
970,896	47,22
971,279	47,2
971,662	46,93
972,045	47,02
972,428	46,96
972,81	46,94
973,193	46,96
973,575	47,01
973,958	47,05
974,34	47,45
974,723	47,08
975,105	47,15
975,487	47,66
975,869	47,38
976,251	47,63
976,633	47,52
977,015	47,35
977,396	47,14
977,778	47,29
978,16	46,96
978,541	47,04
978,922	47,18
979,304	47,28
979,685	46,54
980,066	47,28
980,447	47,04
980,828	47,27
981,209	47,55
981,59	47,23
981,97	46,92
982,351	47,5
982,732	47,18
983,112	47,44
983,493	47,32
983,873	47,25
984,253	47,53
984,633	46,9
985,013	47,39
985,393	47,01
985,773	46,73
986,153	47,51
986,533	47,1
986,912	47,51
987,292	47,19
987,671	47,8
988,051	47,3
988,43	47,15
988,809	47,48
989,188	47,53
989,567	47,35
989,946	47,76
990,325	46,62
990,704	47,65
991,083	47,1
991,461	47,15
991,84	47,05
992,218	47
992,597	47,42
992,975	47,34
993,353	47,42
993,732	47,26
994,11	46,95
994,488	47,15
994,866	46,92
995,243	47,57
995,621	47,26
995,999	47
996,376	47,63
996,754	46,8
997,131	47,54
997,509	47,02
997,886	47
998,263	47,67
998,64	47,03
999,017	47,67
999,394	47,18
999,771	47,49
1000,148	47,09
1000,524	47,45
1000,901	48,01
1001,277	47,55
1001,654	47,18
1002,03	47,41
1002,406	48,11
1002,783	47,52
1003,159	47,32
1003,535	47,13
1003,911	47,5
1004,286	48,12
1004,662	47,12
1005,038	47,58
1005,414	47,23
1005,789	47,85
1006,164	47,12
1006,54	47,29
1006,915	47,58
1007,29	47,69
1007,665	47,21
1008,04	47,72
1008,415	47,35
1008,79	47,87
1009,165	47,45
1009,54	47,31
1009,914	48,12
1010,289	47,74
1010,663	47,5
1011,038	48,09
1011,412	47,54
1011,786	48,02
1012,16	47,73
1012,535	47,85
1012,909	47,51
1013,282	47,46
1013,656	48,02
1014,03	46,96
1014,404	47,72
1014,777	47,8
1015,151	47,65
1015,524	47,82
1015,897	47,88
1016,271	48,26
1016,644	47,89
1017,017	48,02
1017,39	48,03
1017,763	48,07
1018,136	48,28
1018,508	48,1
1018,881	48,03
1019,254	47,52
1019,626	48,07
1019,999	47,89
1020,371	47,4
1020,743	48,12
1021,116	47,85
1021,488	47,95
1021,86	47,96
1022,232	48,22
1022,604	47,62
1022,975	47,98
1023,347	47,8
1023,719	48,21
1024,09	48,52
1024,462	48,53
1024,833	47,86
1025,204	48,75
1025,576	48,19
1025,947	47,93
1026,318	47,87
1026,689	48,43
1027,06	47,89
1027,431	47,48
1027,801	48,54
1028,172	47,91
1028,543	48,36
1028,913	48,56
1029,284	48,5
1029,654	48,13
1030,024	48,18
1030,394	47,96
1030,764	47,63
1031,135	48,09
1031,504	47,78
1031,874	48,51
1032,244	48,29
1032,614	48,44
1032,983	48,41
1033,353	48,37
1033,722	48
1034,092	47,79
1034,461	48,27
1034,83	48,22
1035,2	48,25
1035,569	47,88
1035,938	47,52
1036,307	48,66
1036,675	48,21
1037,044	47,47
1037,413	48,4
1037,781	48,48
1038,15	48,72
1038,518	48,56
1038,887	48,71
1039,255	48,34
1039,623	47,91
1039,991	48,01
1040,359	48,37
1040,727	48,03
1041,095	48,87
1041,463	47,99
1041,831	47,56
1042,198	48,6
1042,566	47,97
1042,933	48,23
1043,301	48,79
1043,668	47,94
1044,035	48,05
1044,402	49,24
1044,77	48,25
1045,137	48,37
1045,503	47,98
1045,87	47,57
1046,237	48,58
1046,604	48,8
1046,97	48,26
1047,337	48,55
1047,703	47,9
1048,07	47,76
1048,436	48,02
1048,802	47,92
1049,168	48,46
1049,534	48,46
1049,9	48,68
1050,266	48,65
1050,632	48,06
1050,998	47,95
1051,364	48,07
1051,729	48,25
1052,095	48,13
1052,46	49,06
1052,825	48,09
1053,191	47,7
1053,556	48,74
1053,921	48,35
1054,286	48,78
1054,651	48
1055,016	47,9
1055,381	48,69
1055,745	48,97
1056,11	48,85
1056,475	48,14
1056,839	48,33
1057,203	48,64
1057,568	49,08
1057,932	47,83
1058,296	48,24
1058,66	48,4
1059,024	48,41
1059,388	48,75
1059,752	48,45
1060,116	48,71
1060,48	49,29
1060,843	48
1061,207	49,93
1061,57	49,33
1061,934	49,1
1062,297	48,32
1062,66	47,57
1063,023	49,2
1063,386	48,43
1063,749	49,52
1064,112	49,13
1064,475	49,18
1064,838	48
1065,201	48,98
1065,563	48,77
1065,926	48,66
1066,288	48,54
1066,651	48,7
1067,013	48,87
1067,375	48,84
1067,737	48,28
1068,099	49,17
1068,461	49
1068,823	48,92
1069,185	49,1
1069,547	48,03
1069,909	49,12
1070,27	49,34
1070,632	48,95
1070,993	48,78
1071,355	49,36
1071,716	47,63
1072,077	48,34
1072,438	48,95
1072,799	49,09
1073,16	49,44
1073,521	49,33
1073,882	49,77
1074,243	49,59
1074,603	49,1
1074,964	48,74
1075,325	48,63
1075,685	49,05
1076,045	49,19
1076,406	48,83
1076,766	48,72
1077,126	48,82
1077,486	48,54
1077,846	48,16
1078,206	47,77
1078,566	48,32
1078,925	47,84
1079,285	48,49
1079,645	48,65
1080,004	48,58
1080,364	48,63
1080,723	50,24
1081,082	48,36
1081,442	48,8
1081,801	48,59
1082,16	48,63
1082,519	48,44
1082,878	49,47
1083,237	48,5
1083,595	49,42
1083,954	48,18
1084,313	47,4
1084,671	49,24
1085,03	49,07
1085,388	48,39
1085,746	48,06
1086,104	47,77
1086,463	47,48
1086,821	49,02
1087,179	48,52
1087,537	48,6
1087,894	48,17
1088,252	49,12
1088,61	50
1088,967	48,97
1089,325	49,88
1089,682	49,49
1090,04	47,57
1090,397	47,6
1090,754	48,43
1091,111	48,61
1091,469	48,39
1091,826	47,66
1092,182	48,04
1092,539	49,84
1092,896	47,58
1093,253	47,86
1093,609	47,2
1093,966	47,04
1094,322	49,66
1094,679	48,91
1095,035	49,62
1095,391	47,42
1095,748	48,83
1096,104	48,64
1096,46	48,92
1096,816	48,7
1097,171	48,51
1097,527	49,72
1097,883	48,7
1098,239	50,21
1098,594	49,84
1098,95	48,42
1099,305	47,92
1099,66	49,78
1100,016	48,97
1100,371	49,9
1100,726	49,23
1101,081	48,26
1101,436	48,31
1101,791	48,86
1102,146	47,9
1102,5	48,88
1102,855	49,37
1103,21	49,91
1103,564	50,35
1103,918	48,03
1104,273	50,44
1104,627	48,25
1104,981	49,96
1105,335	48,45
1105,69	49
1106,043	50,67
1106,397	50,66
1106,751	49,04
1107,105	48,68
1107,459	47,55
1107,812	48,64
1108,166	49,34
1108,519	49,3
1108,873	49,54
1109,226	48,61
1109,579	50,68
1109,932	50,79
1110,285	49,56
1110,638	49,16
1110,991	50,64
1111,344	48,68
1111,697	48,65
1112,05	49,81
1112,402	50,4
1112,755	49,25
1113,107	50,15
1113,46	49,4
1113,812	52,45
1114,164	51,68
1114,517	49,82
1114,869	66,17
1115,221	61,07
1115,573	62,63
1115,924	66,16
