Data from B5__Relative__1__00007.txt Node

Date: Tue Jan 30 17:51:19 CET 2024
User: diatiterra
Spectrometer: HDX00911
Trigger mode: 0
Integration Time (sec): 6,000000E-3
Scans to average: 3
Nonlinearity correction enabled: true
Boxcar width: 0
Storing dark spectrum: false
XAxis mode: Wavelengths
Number of Pixels in Spectrum: 2068
>>>>>Begin Spectral Data<<<<<
194,468	82,03
195,025	61,43
195,581	65,07
196,138	62,22
196,694	66,45
197,251	56,79
197,807	55,47
198,363	52,41
198,919	53,7
199,474	52,86
200,03	55,55
200,586	52,92
201,141	48,37
201,696	48,96
202,251	49,08
202,806	58,24
203,361	58,98
203,916	52,2
204,471	56,08
205,025	55,25
205,58	53,53
206,134	54,01
206,688	55,21
207,242	52,05
207,796	48,98
208,35	50,29
208,904	54,64
209,457	48,95
210,011	54,01
210,564	51,67
211,117	55,32
211,67	58,12
212,223	56,5
212,776	58,4
213,329	56,44
213,881	52,62
214,434	51,18
214,986	54,39
215,538	54,87
216,09	53,34
216,642	54,11
217,194	52,26
217,746	56,9
218,297	52,78
218,849	53
219,4	57,08
219,951	57,23
220,502	59,38
221,053	48,02
221,604	54,11
222,155	56,05
222,705	54,05
223,256	49,07
223,806	51,79
224,356	51,67
224,906	55,84
225,456	52,37
226,006	49,11
226,556	49,21
227,106	57,91
227,655	52,8
228,204	54,71
228,754	60,04
229,303	52,21
229,852	55,87
230,401	56,46
230,949	58,67
231,498	50,75
232,047	50,61
232,595	53,96
233,143	53,6
233,691	53,87
234,239	49,3
234,787	52,14
235,335	50,3
235,883	55,31
236,43	57,55
236,978	56,7
237,525	55,23
238,072	49,57
238,619	51,31
239,166	55,04
239,713	56,38
240,26	55,67
240,806	51,22
241,353	49,99
241,899	57,02
242,445	54,75
242,991	51,53
243,537	57,5
244,083	48,07
244,629	55,55
245,174	53,37
245,72	51,17
246,265	56,06
246,81	56,96
247,355	51,18
247,9	55,56
248,445	58,36
248,99	54,78
249,534	51,56
250,079	56,61
250,623	49,29
251,168	51,86
251,712	51,16
252,256	49,16
252,8	54,19
253,343	51,16
253,887	52,56
254,43	57,65
254,974	51,55
255,517	57,28
256,06	51,71
256,603	53,31
257,146	59,48
257,689	54,69
258,232	51,51
258,774	49,78
259,317	51,77
259,859	51,79
260,401	57,95
260,943	55,93
261,485	49,56
262,027	53,78
262,569	53,97
263,11	46,61
263,652	57,98
264,193	50,89
264,734	55,86
265,275	56,95
265,816	50,68
266,357	54,37
266,898	55,41
267,438	56,73
267,979	61,69
268,519	56,61
269,059	52,74
269,6	53,34
270,14	51,94
270,68	51,81
271,219	53,31
271,759	54,17
272,298	51,83
272,838	52,51
273,377	51,07
273,916	50,42
274,455	52,08
274,994	54,53
275,533	51,33
276,072	55,49
276,61	51,13
277,149	52,23
277,687	55,68
278,225	48,33
278,763	55,51
279,301	50,22
279,839	50,68
280,377	50,76
280,914	48,3
281,452	49,55
281,989	56,59
282,526	54,37
283,064	60,86
283,601	55,07
284,137	52
284,674	52,11
285,211	54,76
285,747	51,18
286,284	55,94
286,82	50,22
287,356	51,56
287,892	50,96
288,428	47,36
288,964	51,66
289,5	54,33
290,035	54,94
290,571	50,64
291,106	56,82
291,641	53,4
292,176	48,02
292,711	53,56
293,246	52,98
293,781	50,34
294,315	52,11
294,85	57,62
295,384	55,65
295,918	48,73
296,453	51,64
296,987	53,32
297,52	57,62
298,054	52,85
298,588	51,89
299,121	53,85
299,655	47,21
300,188	51,96
300,721	50,66
301,254	56,68
301,787	50,42
302,32	52,48
302,853	46,46
303,385	56,67
303,918	54,56
304,45	51,18
304,982	49,1
305,514	51,46
306,046	45,05
306,578	50,22
307,11	50,77
307,641	51,59
308,173	58,26
308,704	46,89
309,236	51,28
309,767	53,62
310,298	52,49
310,829	51,13
311,359	49,38
311,89	52,36
312,421	53,15
312,951	49,56
313,481	53,22
314,012	51,16
314,542	49,46
315,072	54,37
315,601	48,08
316,131	49,78
316,661	51,42
317,19	49,53
317,72	50,93
318,249	47,12
318,778	48,71
319,307	47,53
319,836	53,7
320,365	52,58
320,893	49,45
321,422	44,56
321,95	49,89
322,479	52,67
323,007	41,66
323,535	48,6
324,063	45,32
324,591	54,32
325,118	53,61
325,646	46,17
326,173	52,15
326,701	57,08
327,228	50,22
327,755	54,85
328,282	48,5
328,809	49,56
329,336	50,23
329,862	49,78
330,389	45,17
330,915	51,67
331,441	49,68
331,968	46,69
332,494	47,06
333,02	47,74
333,545	47,08
334,071	43,56
334,597	48,01
335,122	53,39
335,648	47,7
336,173	50,2
336,698	47,63
337,223	46,51
337,748	44,54
338,272	45,25
338,797	46,07
339,322	54,69
339,846	45,99
340,37	44,17
340,894	47,65
341,419	45,51
341,942	46,86
342,466	47,34
342,99	46,49
343,514	46,01
344,037	43,48
344,56	45,34
345,084	39,32
345,607	46,66
346,13	40,95
346,653	43,68
347,175	42,76
347,698	43,44
348,221	38,98
348,743	41,22
349,265	43,63
349,787	41,69
350,309	39,62
350,831	43,94
351,353	37,49
351,875	38,14
352,397	36,04
352,918	39,91
353,439	40,12
353,961	37,28
354,482	36,16
355,003	38,97
355,524	35,28
356,044	39,38
356,565	34,18
357,086	42,03
357,606	35,97
358,126	40,33
358,646	37,98
359,167	35,81
359,687	33,68
360,206	32,74
360,726	33,94
361,246	38,52
361,765	38,8
362,285	36,92
362,804	38,24
363,323	33,39
363,842	35,38
364,361	37,12
364,88	39,5
365,398	32,35
365,917	35,43
366,435	33,92
366,954	33,03
367,472	34,62
367,99	35,81
368,508	33,7
369,026	27,38
369,544	33,82
370,061	32,79
370,579	32,4
371,096	32,65
371,613	33,61
372,131	33,41
372,648	32,81
373,165	30,58
373,681	31,46
374,198	30,14
374,715	29,24
375,231	29,54
375,747	31,67
376,264	30,12
376,78	31,26
377,296	28,2
377,812	31,73
378,327	30,79
378,843	28,56
379,359	30,07
379,874	31,19
380,389	28,07
380,905	29
381,42	28,56
381,935	28,2
382,449	22,83
382,964	27,36
383,479	25,78
383,993	25,52
384,508	25,62
385,022	23,21
385,536	27,18
386,05	25,19
386,564	25,43
387,078	24,67
387,592	24,84
388,105	23,94
388,619	22,91
389,132	19,66
389,645	22,31
390,158	22,14
390,671	20,24
391,184	20,51
391,697	20,38
392,21	21,93
392,722	21,32
393,235	20,87
393,747	21,34
394,259	19,01
394,771	21,37
395,283	20,57
395,795	20,82
396,307	20,38
396,818	20,88
397,33	19,67
397,841	19,34
398,353	18,73
398,864	17,98
399,375	17,89
399,886	17,36
400,397	16,14
400,907	16,12
401,418	15,66
401,928	16,88
402,439	16,58
402,949	15,23
403,459	14,99
403,969	15,69
404,479	14,52
404,989	13,11
405,498	12,93
406,008	13,63
406,517	12,37
407,027	11,88
407,536	12,33
408,045	11,6
408,554	11,18
409,063	10,36
409,572	10,35
410,08	10,35
410,589	9,62
411,097	9,43
411,606	9,7
412,114	9,03
412,622	8,56
413,13	8,67
413,638	8,89
414,145	7,82
414,653	7,92
415,16	7,5
415,668	7,35
416,175	7,3
416,682	6,66
417,189	7,16
417,696	6,55
418,203	6,56
418,71	6,41
419,216	6,56
419,723	6,32
420,229	6,34
420,735	6,25
421,242	6,07
421,748	5,59
422,254	5,76
422,759	5,81
423,265	5,68
423,771	5,78
424,276	5,3
424,781	5,33
425,287	5,33
425,792	5,41
426,297	5,19
426,802	5,09
427,306	5,27
427,811	5,07
428,316	5,06
428,82	5,04
429,324	5,04
429,829	4,95
430,333	4,79
430,837	4,83
431,34	4,94
431,844	5,18
432,348	4,85
432,851	4,67
433,355	4,83
433,858	4,73
434,361	4,94
434,864	4,45
435,367	4,55
435,87	4,53
436,373	4,53
436,876	4,34
437,378	4,33
437,88	4,46
438,383	4,4
438,885	4,49
439,387	4,69
439,889	4,52
440,391	4,65
440,892	4,3
441,394	4,39
441,896	4,38
442,397	4,67
442,898	4,23
443,399	4,46
443,9	4,58
444,401	4,48
444,902	4,52
445,403	4,37
445,903	4,51
446,404	4,6
446,904	4,62
447,405	4,51
447,905	4,5
448,405	4,79
448,905	4,6
449,404	4,9
449,904	4,37
450,404	4,69
450,903	4,78
451,403	4,61
451,902	4,93
452,401	4,79
452,9	5,22
453,399	4,81
453,898	4,95
454,396	4,99
454,895	5
455,393	4,71
455,892	5,03
456,39	4,92
456,888	4,86
457,386	5,18
457,884	4,95
458,382	5,02
458,879	4,91
459,377	5,06
459,874	5,16
460,372	5,13
460,869	5
461,366	4,94
461,863	5,22
462,36	5,27
462,857	4,98
463,353	4,84
463,85	5,1
464,346	4,93
464,843	4,93
465,339	5,14
465,835	4,95
466,331	4,89
466,827	4,96
467,323	5,07
467,818	5,06
468,314	4,84
468,809	5,04
469,305	4,9
469,8	5,05
470,295	5,03
470,79	4,95
471,285	5,03
471,78	5,11
472,274	5,01
472,769	5,1
473,263	5,05
473,758	4,89
474,252	5,06
474,746	5,08
475,24	4,94
475,734	4,97
476,228	4,94
476,721	4,95
477,215	4,99
477,708	5,17
478,202	5,06
478,695	5,12
479,188	5,15
479,681	4,99
480,174	5,09
480,667	4,98
481,159	5,11
481,652	5,18
482,144	4,98
482,637	5,23
483,129	5,16
483,621	5,38
484,113	5,35
484,605	5,34
485,097	5,4
485,588	5,27
486,08	5,39
486,571	5,44
487,063	5,35
487,554	5,52
488,045	5,46
488,536	5,57
489,027	5,51
489,518	5,41
490,008	5,56
490,499	5,6
490,989	5,81
491,48	5,64
491,97	5,82
492,46	5,86
492,95	5,98
493,44	6,05
493,93	6,01
494,419	6,18
494,909	6,26
495,398	6,17
495,888	6,48
496,377	6,45
496,866	6,46
497,355	6,59
497,844	6,83
498,333	6,86
498,821	6,88
499,31	7,01
499,798	7,27
500,287	7,36
500,775	7,58
501,263	7,75
501,751	7,85
502,239	8,05
502,727	8,26
503,215	8,33
503,702	8,37
504,19	8,6
504,677	9,03
505,164	9,05
505,651	9,48
506,139	9,61
506,625	9,79
507,112	9,88
507,599	10,27
508,086	10,4
508,572	10,86
509,058	10,9
509,545	11,26
510,031	11,47
510,517	11,73
511,003	12,15
511,489	12,36
511,974	12,76
512,46	12,94
512,946	13,23
513,431	13,64
513,916	13,62
514,401	14,17
514,887	14,76
515,371	15,03
515,856	15,27
516,341	15,78
516,826	15,75
517,31	16,33
517,795	16,78
518,279	17,07
518,763	17,44
519,247	17,77
519,731	18,24
520,215	18,58
520,699	18,79
521,182	19,13
521,666	19,83
522,149	20,39
522,633	20,45
523,116	20,6
523,599	21,15
524,082	21,61
524,565	21,98
525,048	22,38
525,53	22,59
526,013	23,02
526,495	23,23
526,978	23,78
527,46	23,74
527,942	24,01
528,424	24,49
528,906	24,65
529,388	24,76
529,87	25,05
530,351	25,21
530,833	25,43
531,314	25,76
531,795	25,77
532,277	26,16
532,758	26,47
533,238	26,52
533,719	26,67
534,2	26,7
534,681	27,13
535,161	27,15
535,642	27,02
536,122	27,24
536,602	27,27
537,082	27,48
537,562	27,68
538,042	27,51
538,522	27,37
539,001	27,93
539,481	28,04
539,96	28,17
540,44	28,02
540,919	27,56
541,398	28,07
541,877	28,39
542,356	28,35
542,835	28,37
543,313	28,08
543,792	28,69
544,27	28,46
544,749	28,58
545,227	28,71
545,705	28,66
546,183	28,46
546,661	28,74
547,139	28,81
547,616	28,69
548,094	28,85
548,571	28,79
549,049	28,83
549,526	29,06
550,003	28,82
550,48	28,98
550,957	28,97
551,434	29,03
551,911	29,09
552,387	29,41
552,864	29,05
553,34	29,11
553,817	29,18
554,293	29,06
554,769	29,39
555,245	28,98
555,721	29,46
556,197	29,09
556,672	29,24
557,148	29,27
557,623	29,05
558,099	29,21
558,574	28,96
559,049	29,16
559,524	28,68
559,999	28,96
560,474	28,79
560,948	28,68
561,423	28,38
561,897	28,41
562,372	28,23
562,846	27,91
563,32	28,18
563,794	28,01
564,268	27,95
564,742	27,73
565,216	27,71
565,69	27,48
566,163	27,42
566,636	26,77
567,11	26,88
567,583	26,51
568,056	26,56
568,529	26,22
569,002	26,01
569,475	25,87
569,947	25,59
570,42	25,43
570,892	25,23
571,365	25,07
571,837	25,14
572,309	24,88
572,781	24,67
573,253	24,51
573,725	24,06
574,197	24
574,668	24,01
575,14	23,74
575,611	23,24
576,082	23,07
576,554	23,29
577,025	23,08
577,496	22,42
577,967	22,55
578,437	22,58
578,908	22,19
579,379	22,03
579,849	22
580,319	21,84
580,79	21,63
581,26	21,36
581,73	21,33
582,2	21,27
582,669	21,28
583,139	20,9
583,609	20,99
584,078	20,79
584,548	20,76
585,017	20,55
585,486	20,37
585,955	20,17
586,424	20,16
586,893	20,22
587,362	19,92
587,83	19,7
588,299	19,7
588,767	19,65
589,236	19,59
589,704	19,68
590,172	19,63
590,64	19,42
591,108	19,39
591,576	19,1
592,043	19,18
592,511	19,09
592,978	19,04
593,446	19,01
593,913	18,86
594,38	18,54
594,847	18,81
595,314	18,64
595,781	18,64
596,248	18,55
596,715	18,64
597,181	18,54
597,647	18,6
598,114	18,29
598,58	18,57
599,046	18,16
599,512	18,46
599,978	18,22
600,444	18,2
600,91	18,28
601,375	18,02
601,841	18,01
602,306	17,91
602,771	17,73
603,236	17,88
603,702	17,7
604,167	17,68
604,631	17,55
605,096	17,45
605,561	17,43
606,025	17,21
606,49	17,37
606,954	17,29
607,418	17,25
607,882	16,88
608,347	16,97
608,81	16,81
609,274	16,54
609,738	16,54
610,202	16,56
610,665	16,42
611,128	16,32
611,592	16,24
612,055	16,2
612,518	15,97
612,981	15,85
613,444	15,73
613,907	15,7
614,369	15,61
614,832	15,53
615,294	15,39
615,757	15,18
616,219	15,16
616,681	15,24
617,143	15,02
617,605	14,75
618,067	14,68
618,529	14,55
618,99	14,61
619,452	14,42
619,913	14,42
620,375	14,21
620,836	14,32
621,297	14,35
621,758	14,16
622,219	14,07
622,68	14,01
623,14	14,04
623,601	14,02
624,061	13,88
624,522	13,85
624,982	13,74
625,442	13,92
625,902	13,75
626,362	13,8
626,822	13,68
627,282	13,8
627,742	13,82
628,201	13,7
628,661	13,67
629,12	13,62
629,579	13,57
630,038	13,56
630,497	13,51
630,956	13,55
631,415	13,66
631,874	13,42
632,332	13,53
632,791	13,38
633,249	13,39
633,708	13,23
634,166	13,16
634,624	13,17
635,082	12,94
635,54	13,08
635,998	12,97
636,455	12,86
636,913	12,72
637,37	12,57
637,828	12,5
638,285	12,23
638,742	12,17
639,199	12,08
639,656	12,03
640,113	11,78
640,57	11,55
641,027	11,44
641,483	11,34
641,94	11,15
642,396	10,97
642,852	10,92
643,309	10,74
643,765	10,61
644,221	10,4
644,676	10,15
645,132	10,15
645,588	9,99
646,043	9,68
646,499	9,57
646,954	9,44
647,409	9,26
647,864	9,2
648,319	9,04
648,774	8,92
649,229	8,92
649,684	8,71
650,139	8,71
650,593	8,57
651,047	8,44
651,502	8,42
651,956	8,34
652,41	8,34
652,864	8,26
653,318	8,25
653,772	8,15
654,225	8,11
654,679	8,05
655,133	8
655,586	7,93
656,039	7,86
656,492	7,74
656,946	7,81
657,399	7,65
657,851	7,51
658,304	7,37
658,757	7,36
659,209	7,26
659,662	7,18
660,114	7,01
660,567	7
661,019	6,8
661,471	6,77
661,923	6,73
662,375	6,55
662,826	6,45
663,278	6,42
663,73	6,22
664,181	6,16
664,632	6,08
665,084	6,01
665,535	5,97
665,986	5,97
666,437	5,82
666,888	5,75
667,338	5,77
667,789	5,7
668,24	5,69
668,69	5,67
669,14	5,69
669,591	5,63
670,041	5,72
670,491	5,56
670,941	5,66
671,391	5,65
671,84	5,81
672,29	5,75
672,74	5,73
673,189	5,75
673,638	5,87
674,088	5,88
674,537	5,98
674,986	5,99
675,435	6,07
675,883	6,15
676,332	6,24
676,781	6,32
677,229	6,4
677,678	6,52
678,126	6,63
678,574	6,77
679,022	6,83
679,47	6,98
679,918	7,09
680,366	7,13
680,814	7,32
681,261	7,35
681,709	7,55
682,156	7,6
682,604	7,84
683,051	7,92
683,498	8,14
683,945	8,27
684,392	8,49
684,839	8,65
685,286	8,8
685,732	8,98
686,179	9,21
686,625	9,5
687,071	9,77
687,518	10,05
687,964	10,36
688,41	10,65
688,856	11,15
689,301	11,43
689,747	11,85
690,193	12,32
690,638	12,82
691,084	13,34
691,529	13,8
691,974	14,38
692,419	14,95
692,864	15,55
693,309	16,14
693,754	16,73
694,199	17,31
694,643	18,14
695,088	18,78
695,532	19,48
695,977	20,19
696,421	20,88
696,865	21,48
697,309	22,31
697,753	23,07
698,197	23,71
698,64	24,31
699,084	24,84
699,527	25,64
699,971	26,26
700,414	26,87
700,857	27,54
701,3	28,15
701,743	28,84
702,186	29,48
702,629	29,95
703,072	30,48
703,515	31,26
703,957	31,59
704,399	32,19
704,842	32,76
705,284	33,16
705,726	33,82
706,168	34,14
706,61	34,92
707,052	35,31
707,494	35,7
707,935	36,36
708,377	36,73
708,818	37,17
709,26	37,7
709,701	38,11
710,142	38,52
710,583	38,83
711,024	39,19
711,465	39,56
711,905	40,1
712,346	40,54
712,787	40,81
713,227	41,24
713,667	41,7
714,108	42,04
714,548	42,59
714,988	42,7
715,428	43,24
715,868	43,55
716,307	43,51
716,747	44,28
717,186	44,39
717,626	44,77
718,065	45,29
718,504	45,22
718,944	45,79
719,383	46,17
719,822	46,33
720,261	46,57
720,699	46,92
721,138	46,93
721,576	47,24
722,015	47,7
722,453	47,88
722,892	48,35
723,33	48,55
723,768	48,68
724,206	48,77
724,644	48,75
725,081	49,16
725,519	49,07
725,957	49,67
726,394	49,93
726,832	49,97
727,269	50,23
727,706	50,35
728,143	50,53
728,58	50,66
729,017	50,53
729,454	51,17
729,89	51,06
730,327	51,16
730,764	51,33
731,2	51,38
731,636	51,78
732,072	51,78
732,509	51,74
732,945	51,81
733,38	51,9
733,816	51,96
734,252	52,13
734,688	52,21
735,123	52,34
735,559	52,43
735,994	52,51
736,429	52,51
736,864	52,64
737,299	52,44
737,734	52,72
738,169	52,76
738,604	52,78
739,038	52,97
739,473	52,67
739,907	52,92
740,342	52,89
740,776	52,8
741,21	52,96
741,644	53
742,078	53,15
742,512	53,12
742,946	53,36
743,379	53,07
743,813	53,43
744,246	53,23
744,68	53,25
745,113	53,12
745,546	53,21
745,979	53,22
746,412	53,18
746,845	53,11
747,278	53,1
747,711	53,34
748,143	53,25
748,576	53,2
749,008	53,1
749,441	53,05
749,873	53,14
750,305	53,04
750,737	52,88
751,169	52,98
751,601	53,24
752,032	53,05
752,464	52,84
752,896	52,97
753,327	52,87
753,758	52,82
754,19	52,81
754,621	52,98
755,052	52,89
755,483	52,85
755,914	52,78
756,344	52,87
756,775	52,8
757,206	52,86
757,636	52,5
758,066	52,72
758,497	52,69
758,927	52,41
759,357	52,66
759,787	52,72
760,217	52,49
760,647	52,53
761,076	52,7
761,506	52,51
761,935	52,12
762,365	52,5
762,794	52,37
763,223	52,32
763,653	52,39
764,082	52,27
764,51	52,23
764,939	52,53
765,368	52,16
765,797	52,41
766,225	52,21
766,654	51,98
767,082	52,15
767,51	52,38
767,938	52,34
768,367	52,14
768,795	52,01
769,222	51,99
769,65	52,12
770,078	52,11
770,505	51,88
770,933	51,92
771,36	51,86
771,788	52,15
772,215	52,23
772,642	51,84
773,069	51,84
773,496	51,78
773,923	51,72
774,349	51,8
774,776	51,85
775,203	51,75
775,629	51,87
776,055	51,66
776,482	51,89
776,908	52,09
777,334	51,69
777,76	51,67
778,186	51,8
778,611	51,56
779,037	51,51
779,463	51,66
779,888	51,73
780,314	51,55
780,739	51,83
781,164	51,51
781,589	51,55
782,014	51,52
782,439	51,69
782,864	51,56
783,289	51,68
783,713	51,52
784,138	51,27
784,562	51,49
784,987	51,44
785,411	51,62
785,835	51,54
786,259	51,46
786,683	51,65
787,107	51,42
787,531	51,29
787,954	51,43
788,378	51,61
788,802	51,4
789,225	51,3
789,648	51,58
790,071	51,52
790,495	51,17
790,918	51,59
791,34	51,32
791,763	51,42
792,186	51,46
792,609	51,28
793,031	51,24
793,454	51,29
793,876	51,09
794,298	51,22
794,721	51,47
795,143	51,34
795,565	51,22
795,986	51,6
796,408	51,38
796,83	51,27
797,252	51,38
797,673	51,43
798,094	51,12
798,516	51,13
798,937	51,31
799,358	51,42
799,779	51,14
800,2	51,23
800,621	51,39
801,042	51,25
801,462	51,28
801,883	51,32
802,303	51,05
802,724	51,07
803,144	51,32
803,564	51,01
803,984	51,27
804,404	51,33
804,824	51,36
805,244	51,14
805,664	51,39
806,084	51,04
806,503	51,31
806,923	51,16
807,342	51,16
807,761	51,07
808,18	51,36
808,599	51,32
809,018	51,24
809,437	51,38
809,856	51,03
810,275	51,07
810,693	51,08
811,112	51,01
811,53	51,09
811,949	51,7
812,367	50,84
812,785	51,13
813,203	51,24
813,621	51,51
814,039	51,2
814,457	51,05
814,874	51,42
815,292	51,19
815,709	51,29
816,127	51,23
816,544	51,38
816,961	51,08
817,378	51,05
817,795	51,19
818,212	50,85
818,629	51,1
819,046	51,09
819,462	51,16
819,879	51,32
820,295	51,07
820,712	51,03
821,128	51,05
821,544	51,02
821,96	50,97
822,376	51,04
822,792	51,02
823,208	51
823,624	51,09
824,039	51,05
824,455	50,99
824,87	51,25
825,286	50,99
825,701	51,25
826,116	50,58
826,531	50,9
826,946	51,06
827,361	50,79
827,776	50,91
828,19	51,05
828,605	50,82
829,02	51,22
829,434	51,01
829,848	51,07
830,263	50,87
830,677	50,82
831,091	50,82
831,505	50,99
831,919	51,09
832,332	50,81
832,746	50,88
833,16	50,88
833,573	51,09
833,987	51,03
834,4	50,94
834,813	50,75
835,226	51,08
835,639	50,82
836,052	50,98
836,465	50,66
836,878	51,06
837,29	50,94
837,703	50,94
838,116	50,84
838,528	50,84
838,94	50,91
839,352	51,07
839,765	51,04
840,177	50,79
840,589	50,94
841	50,82
841,412	50,84
841,824	50,91
842,235	50,84
842,647	50,97
843,058	50,94
843,47	51,06
843,881	50,85
844,292	50,82
844,703	50,68
845,114	50,82
845,525	51,22
845,935	50,94
846,346	50,74
846,757	50,75
847,167	51,02
847,577	51,04
847,988	50,76
848,398	50,86
848,808	50,81
849,218	50,88
849,628	50,85
850,038	50,83
850,448	50,66
850,857	51,12
851,267	50,83
851,676	50,9
852,086	50,99
852,495	50,71
852,904	50,85
853,313	50,59
853,722	50,76
854,131	50,79
854,54	50,86
854,949	50,88
855,357	50,75
855,766	50,76
856,174	50,59
856,583	50,85
856,991	50,58
857,399	50,89
857,807	50,83
858,215	50,65
858,623	51,01
859,031	50,87
859,439	51,01
859,846	50,99
860,254	50,58
860,661	50,59
861,069	50,71
861,476	50,9
861,883	50,67
862,29	50,9
862,697	50,85
863,104	50,49
863,511	51,03
863,918	50,64
864,325	50,78
864,731	50,3
865,138	50,73
865,544	50,8
865,95	50,45
866,357	50,45
866,763	50,81
867,169	50,62
867,575	50,46
867,98	50,89
868,386	51,01
868,792	50,61
869,197	50,67
869,603	50,75
870,008	50,76
870,414	50,54
870,819	50,68
871,224	50,81
871,629	50,54
872,034	50,73
872,439	50,77
872,844	50,64
873,248	50,89
873,653	50,9
874,057	50,61
874,462	50,73
874,866	50,72
875,27	50,66
875,674	50,48
876,078	50,55
876,482	50,55
876,886	50,61
877,29	50,56
877,694	50,84
878,097	50,48
878,501	50,63
878,904	50,57
879,308	50,34
879,711	50,78
880,114	50,93
880,517	50,51
880,92	50,66
881,323	50,75
881,726	50,64
882,128	50,51
882,531	50,82
882,934	50,49
883,336	50,6
883,738	50,59
884,141	50,49
884,543	50,64
884,945	50,63
885,347	50,9
885,749	50,42
886,151	50,48
886,552	50,47
886,954	50,4
887,355	50,58
887,757	50,46
888,158	50,65
888,56	50,69
888,961	50,71
889,362	50,59
889,763	50,47
890,164	50,77
890,565	50,68
890,965	50,96
891,366	50,67
891,767	50,83
892,167	50,59
892,567	50,37
892,968	50,89
893,368	50,61
893,768	50,63
894,168	50,62
894,568	50,61
894,968	51,05
895,368	50,68
895,767	50,49
896,167	50,73
896,566	50,6
896,966	50,52
897,365	50,78
897,764	50,49
898,164	50,4
898,563	50,36
898,962	50,71
899,361	50,68
899,759	50,37
900,158	50,74
900,557	50,59
900,955	50,8
901,354	50,43
901,752	50,47
902,15	50,74
902,548	50,75
902,947	50,38
903,345	50,76
903,742	50,68
904,14	50,84
904,538	50,42
904,936	50,4
905,333	50,57
905,731	50,2
906,128	50,52
906,525	50,65
906,923	50,55
907,32	50,63
907,717	50,46
908,114	50,92
908,511	50,24
908,907	50,53
909,304	50,54
909,701	50,81
910,097	50,62
910,494	50,89
910,89	50,75
911,286	50,55
911,682	50,74
912,078	50,84
912,474	50,79
912,87	50,71
913,266	50,62
913,662	50,49
914,058	50,52
914,453	50,86
914,849	50,76
915,244	50,48
915,639	50,65
916,034	50,97
916,43	50,52
916,825	51,11
917,22	50,57
917,614	50,77
918,009	50,38
918,404	50,4
918,798	50,64
919,193	50,34
919,587	50,8
919,982	50,49
920,376	50,44
920,77	50,41
921,164	50,34
921,558	50,73
921,952	50,4
922,346	50,29
922,74	50,64
923,133	50,82
923,527	50,34
923,92	50,38
924,314	50,29
924,707	50,25
925,1	50,14
925,493	50,48
925,886	50,28
926,279	50,1
926,672	50,36
927,065	50,56
927,457	50,58
927,85	50,17
928,243	50,31
928,635	50,23
929,027	50,29
929,42	50,51
929,812	50,28
930,204	50,03
930,596	50,09
930,988	50,55
931,379	50,53
931,771	50,29
932,163	50,38
932,554	49,96
932,946	50,15
933,337	49,96
933,729	50,06
934,12	50,28
934,511	50,64
934,902	50,1
935,293	50,3
935,684	50,31
936,075	50,73
936,465	49,87
936,856	50,14
937,246	50,3
937,637	49,69
938,027	50,1
938,417	50
938,808	49,94
939,198	50,46
939,588	49,85
939,978	50,24
940,368	49,79
940,757	50,12
941,147	49,84
941,537	50,61
941,926	49,63
942,315	49
942,705	49,92
943,094	50,04
943,483	49,91
943,872	49,5
944,261	49,79
944,65	50,3
945,039	50,15
945,428	49,29
945,816	49,95
946,205	49,61
946,593	49,63
946,982	50,33
947,37	50,22
947,758	49,76
948,146	48,92
948,534	49,23
948,922	49,51
949,31	49,34
949,698	49,35
950,086	49,16
950,473	50,06
950,861	49,35
951,248	49,96
951,636	49,18
952,023	49,48
952,41	49,52
952,797	48,91
953,184	49,72
953,571	49,42
953,958	49,34
954,345	49,19
954,731	49,36
955,118	49,46
955,505	49,27
955,891	49,28
956,277	49,38
956,664	48,78
957,05	49,24
957,436	49,56
957,822	49,43
958,208	49,54
958,594	49,66
958,979	49,17
959,365	48,99
959,751	48,9
960,136	48,6
960,522	49,01
960,907	48,99
961,292	48,96
961,677	49,35
962,062	48,93
962,447	49,52
962,832	49,16
963,217	48,86
963,602	49,19
963,986	49,11
964,371	48,95
964,756	49,24
965,14	49,01
965,524	49,06
965,908	48,67
966,293	48,63
966,677	48,87
967,061	49,32
967,445	48,99
967,828	49,71
968,212	49,04
968,596	49,38
968,979	49,09
969,363	49,19
969,746	48,9
970,129	48,27
970,513	48,56
970,896	48,93
971,279	48,94
971,662	49,3
972,045	48,97
972,428	48,53
972,81	48,92
973,193	49,1
973,575	49,03
973,958	48,6
974,34	49,55
974,723	49,05
975,105	49,31
975,487	48,96
975,869	48,74
976,251	48,93
976,633	49,31
977,015	48,97
977,396	49,28
977,778	48,74
978,16	48,91
978,541	49,07
978,922	48,94
979,304	49,08
979,685	49,01
980,066	49,22
980,447	48,92
980,828	48,86
981,209	48,9
981,59	48,92
981,97	49,06
982,351	49,14
982,732	49,24
983,112	49,23
983,493	49,18
983,873	49,03
984,253	48,99
984,633	49,16
985,013	48,85
985,393	49,18
985,773	48,67
986,153	49,33
986,533	48,81
986,912	48,92
987,292	49,09
987,671	49,2
988,051	49,57
988,43	49,36
988,809	49,08
989,188	49,31
989,567	49,02
989,946	49,56
990,325	48,98
990,704	49,5
991,083	49,14
991,461	49,15
991,84	49,06
992,218	48,88
992,597	49,79
992,975	48,9
993,353	49,3
993,732	49,8
994,11	49,05
994,488	48,99
994,866	49,11
995,243	49,07
995,621	49,06
995,999	49,2
996,376	49,66
996,754	49,42
997,131	49,25
997,509	49,21
997,886	49,32
998,263	49,79
998,64	49,34
999,017	49,55
999,394	49,25
999,771	49,25
1000,148	48,97
1000,524	49,61
1000,901	49,49
1001,277	49,83
1001,654	48,88
1002,03	49,24
1002,406	49,93
1002,783	49,62
1003,159	49,4
1003,535	48,85
1003,911	49,58
1004,286	50,48
1004,662	49,55
1005,038	49,5
1005,414	48,81
1005,789	49,72
1006,164	49,09
1006,54	49,52
1006,915	48,97
1007,29	49,12
1007,665	49,13
1008,04	49,36
1008,415	49,23
1008,79	50,03
1009,165	49,5
1009,54	49,61
1009,914	50,04
1010,289	49,63
1010,663	49,52
1011,038	50,27
1011,412	49,96
1011,786	49,61
1012,16	49,59
1012,535	49,8
1012,909	49,71
1013,282	49,55
1013,656	50,09
1014,03	49,31
1014,404	49,55
1014,777	49,5
1015,151	49,5
1015,524	50,02
1015,897	49,86
1016,271	49,8
1016,644	49,91
1017,017	49,74
1017,39	49,67
1017,763	50,07
1018,136	49,98
1018,508	49,9
1018,881	50,35
1019,254	49,15
1019,626	49,81
1019,999	49,6
1020,371	49,11
1020,743	50,21
1021,116	49,76
1021,488	49,59
1021,86	50,24
1022,232	49,51
1022,604	50,16
1022,975	50,37
1023,347	49,93
1023,719	49,73
1024,09	50,13
1024,462	50,97
1024,833	49,52
1025,204	49,66
1025,576	50,29
1025,947	49,64
1026,318	50,21
1026,689	49,97
1027,06	49,65
1027,431	49,52
1027,801	49,72
1028,172	49,74
1028,543	49,9
1028,913	49,8
1029,284	50,29
1029,654	49,86
1030,024	50,62
1030,394	50,12
1030,764	49,58
1031,135	50,7
1031,504	50,17
1031,874	50,21
1032,244	50,19
1032,614	49,55
1032,983	49,58
1033,353	50,13
1033,722	49,9
1034,092	49,66
1034,461	50,13
1034,83	49,87
1035,2	49,65
1035,569	48,92
1035,938	49,25
1036,307	50,58
1036,675	50,11
1037,044	50,09
1037,413	50,03
1037,781	50,35
1038,15	50,34
1038,518	50,95
1038,887	50,29
1039,255	50,85
1039,623	50
1039,991	50,17
1040,359	50,74
1040,727	50,9
1041,095	50,27
1041,463	50,61
1041,831	50,6
1042,198	50,58
1042,566	49,68
1042,933	50,29
1043,301	49,93
1043,668	49,87
1044,035	50,17
1044,402	50,49
1044,77	50,13
1045,137	50,29
1045,503	49,74
1045,87	49,55
1046,237	50,11
1046,604	50,76
1046,97	50,76
1047,337	50,25
1047,703	51,1
1048,07	50,2
1048,436	50,46
1048,802	49,65
1049,168	50,24
1049,534	50,71
1049,9	50,5
1050,266	50,02
1050,632	49,94
1050,998	51,17
1051,364	51,31
1051,729	49,93
1052,095	50,35
1052,46	50,47
1052,825	50,43
1053,191	50,5
1053,556	51,3
1053,921	51,2
1054,286	50,34
1054,651	50,54
1055,016	49,51
1055,381	50,03
1055,745	50,97
1056,11	51,05
1056,475	50,83
1056,839	50,46
1057,203	50,15
1057,568	51,91
1057,932	50,6
1058,296	50,55
1058,66	50,96
1059,024	50,17
1059,388	51,05
1059,752	50,83
1060,116	51,12
1060,48	50,53
1060,843	50,7
1061,207	49,66
1061,57	51,65
1061,934	51,14
1062,297	50,71
1062,66	51,13
1063,023	50,79
1063,386	51,16
1063,749	51,78
1064,112	50,8
1064,475	51,4
1064,838	50,64
1065,201	51,18
1065,563	50,63
1065,926	51,09
1066,288	50,24
1066,651	51,51
1067,013	50,58
1067,375	50,71
1067,737	50,66
1068,099	51
1068,461	50,94
1068,823	51,08
1069,185	51,76
1069,547	51,08
1069,909	50,5
1070,27	50,24
1070,632	51,01
1070,993	50,59
1071,355	50,92
1071,716	49,82
1072,077	50,46
1072,438	51,19
1072,799	49,98
1073,16	51,59
1073,521	52,16
1073,882	50,27
1074,243	51,52
1074,603	51,42
1074,964	49,22
1075,325	51,01
1075,685	50,1
1076,045	50,51
1076,406	49,8
1076,766	50,5
1077,126	50,84
1077,486	50,85
1077,846	50,59
1078,206	50,47
1078,566	50,32
1078,925	50,55
1079,285	51,88
1079,645	50,88
1080,004	51,27
1080,364	52
1080,723	52,6
1081,082	50,07
1081,442	51,71
1081,801	50,2
1082,16	50,71
1082,519	50,85
1082,878	50,57
1083,237	51,25
1083,595	50,63
1083,954	52,3
1084,313	50,65
1084,671	52,17
1085,03	51,05
1085,388	50,54
1085,746	51,14
1086,104	50,43
1086,463	49,63
1086,821	51,04
1087,179	50,58
1087,537	50,97
1087,894	49,94
1088,252	51,76
1088,61	52,38
1088,967	50,67
1089,325	50,49
1089,682	50,67
1090,04	50,27
1090,397	49,59
1090,754	50,78
1091,111	51,37
1091,469	50
1091,826	50,45
1092,182	49,09
1092,539	52,35
1092,896	49,01
1093,253	50,43
1093,609	50,04
1093,966	50,41
1094,322	51,52
1094,679	51,42
1095,035	50,58
1095,391	50,44
1095,748	50,67
1096,104	51,18
1096,46	51,24
1096,816	50,95
1097,171	51,23
1097,527	53,11
1097,883	50,38
1098,239	52,57
1098,594	52,6
1098,95	51,24
1099,305	51,13
1099,66	51,94
1100,016	51,61
1100,371	51,29
1100,726	50,91
1101,081	52,23
1101,436	50,19
1101,791	51,93
1102,146	50,24
1102,5	50,15
1102,855	51,26
1103,21	52,39
1103,564	52,28
1103,918	51,67
1104,273	52,23
1104,627	50,32
1104,981	51,1
1105,335	52,09
1105,69	51,17
1106,043	52,28
1106,397	51,12
1106,751	51,94
1107,105	50,46
1107,459	52,39
1107,812	51,93
1108,166	50,41
1108,519	51,15
1108,873	51,52
1109,226	51,02
1109,579	52,71
1109,932	53,11
1110,285	49,9
1110,638	50,9
1110,991	51,33
1111,344	53,63
1111,697	51,81
1112,05	51,73
1112,402	53,02
1112,755	49,78
1113,107	51,49
1113,46	52,86
1113,812	50,02
1114,164	53,86
1114,517	49,71
1114,869	76,16
1115,221	61,07
1115,573	57,1
1115,924	61,6
