Data from C2__Relative__2__00013.txt Node

Date: Tue Jan 30 17:51:55 CET 2024
User: diatiterra
Spectrometer: HDX00911
Trigger mode: 0
Integration Time (sec): 6,000000E-3
Scans to average: 3
Nonlinearity correction enabled: true
Boxcar width: 0
Storing dark spectrum: false
XAxis mode: Wavelengths
Number of Pixels in Spectrum: 2068
>>>>>Begin Spectral Data<<<<<
194,468	80,69
195,025	59,01
195,581	71,94
196,138	62,67
196,694	64,35
197,251	66,3
197,807	57,57
198,363	59,12
198,919	58,92
199,474	63,8
200,03	57,02
200,586	54,34
201,141	54,24
201,696	55,29
202,251	54,37
202,806	51,93
203,361	56,66
203,916	54,41
204,471	58,35
205,025	57,48
205,58	58,78
206,134	56,12
206,688	51,19
207,242	54,21
207,796	57,92
208,35	54,9
208,904	54,64
209,457	55,97
210,011	58,86
210,564	50,49
211,117	55,73
211,67	61,63
212,223	61,38
212,776	58,19
213,329	57,94
213,881	56,81
214,434	50,79
214,986	56,53
215,538	57,31
216,09	55,16
216,642	59,05
217,194	51,64
217,746	55,85
218,297	57,56
218,849	56,44
219,4	61,1
219,951	57,85
220,502	56,08
221,053	50,92
221,604	56,85
222,155	57,28
222,705	56,76
223,256	54,37
223,806	63,19
224,356	57,53
224,906	55,2
225,456	56,34
226,006	57,1
226,556	48,62
227,106	61,33
227,655	50,93
228,204	55,55
228,754	60,67
229,303	57,65
229,852	54,78
230,401	57,92
230,949	58,26
231,498	51,52
232,047	50,2
232,595	56,1
233,143	55,93
233,691	54,86
234,239	54,82
234,787	58,07
235,335	57,16
235,883	53,32
236,43	57,14
236,978	55,28
237,525	55,03
238,072	52,5
238,619	55,22
239,166	53,85
239,713	54,76
240,26	58,46
240,806	50,81
241,353	53,81
241,899	54,29
242,445	54,75
242,991	48,66
243,537	57,72
244,083	58,82
244,629	52,12
245,174	55,06
245,72	57,14
246,265	57,92
246,81	57,4
247,355	55,93
247,9	54,72
248,445	60,19
248,99	56,96
249,534	54,91
250,079	51,32
250,623	55,3
251,168	54,75
251,712	54,56
252,256	44,82
252,8	54,39
253,343	57,05
253,887	50,78
254,43	57,19
254,974	57,3
255,517	59,74
256,06	58,28
256,603	56,5
257,146	53,6
257,689	54,01
258,232	51,73
258,774	57,51
259,317	52,61
259,859	50,74
260,401	61,75
260,943	54,24
261,485	57,49
262,027	55,78
262,569	52,74
263,11	51,95
263,652	62,83
264,193	55,31
264,734	52,45
265,275	51,65
265,816	52,49
266,357	55,41
266,898	54,76
267,438	55,38
267,979	56,02
268,519	57,05
269,059	56,46
269,6	52,22
270,14	57,86
270,68	54,85
271,219	55,82
271,759	53,95
272,298	51,18
272,838	51,2
273,377	50
273,916	53,99
274,455	49,37
274,994	57,18
275,533	48,67
276,072	55,05
276,61	53,16
277,149	49,25
277,687	54,8
278,225	55,2
278,763	53,26
279,301	54,72
279,839	53,18
280,377	51,41
280,914	51,06
281,452	57,77
281,989	57,76
282,526	51,93
283,064	53,98
283,601	53,56
284,137	56
284,674	56,75
285,211	59,28
285,747	53,11
286,284	53,89
286,82	51,55
287,356	53,24
287,892	55,46
288,428	52,2
288,964	56,01
289,5	55,63
290,035	56,06
290,571	50,85
291,106	58,25
291,641	54,53
292,176	57,38
292,711	57,23
293,246	58,3
293,781	53,47
294,315	50
294,85	58,77
295,384	59,64
295,918	49,36
296,453	49,02
296,987	55,67
297,52	47,68
298,054	53,29
298,588	55,41
299,121	54,98
299,655	51,29
300,188	50,65
300,721	49,56
301,254	55,8
301,787	54,24
302,32	59,78
302,853	52,25
303,385	52
303,918	55,27
304,45	54,85
304,982	57,51
305,514	60,9
306,046	50,31
306,578	49,35
307,11	48,79
307,641	54,53
308,173	58,03
308,704	57,29
309,236	52,68
309,767	53,19
310,298	53,36
310,829	53,82
311,359	56,01
311,89	44,72
312,421	47,69
312,951	49,12
313,481	51,16
314,012	43,79
314,542	51,64
315,072	49,26
315,601	50,63
316,131	51,8
316,661	49,45
317,19	51,92
317,72	46,36
318,249	49,89
318,778	53,02
319,307	45,96
319,836	53,25
320,365	49,54
320,893	55,17
321,422	46,74
321,95	48,19
322,479	52,01
323,007	45,72
323,535	46,89
324,063	47,55
324,591	55,46
325,118	52,44
325,646	47,26
326,173	46,73
326,701	50,55
327,228	51,78
327,755	58,95
328,282	50
328,809	50,66
329,336	47,06
329,862	51,52
330,389	54,16
330,915	48,34
331,441	52,22
331,968	50,32
332,494	48,48
333,02	52,26
333,545	51,84
334,071	53,11
334,597	47,59
335,122	51,86
335,648	52,91
336,173	53,12
336,698	49,68
337,223	49,38
337,748	46,49
338,272	44,68
338,797	50,29
339,322	54,91
339,846	50,31
340,37	47,31
340,894	48,5
341,419	50,94
341,942	51,74
342,466	46,43
342,99	51,35
343,514	47,85
344,037	51,28
344,56	51,28
345,084	49,45
345,607	48,47
346,13	45,79
346,653	44,79
347,175	50,36
347,698	47,99
348,221	47,11
348,743	44,76
349,265	46,57
349,787	42,05
350,309	43,91
350,831	45,57
351,353	43,61
351,875	45,97
352,397	40,06
352,918	42,12
353,439	44,78
353,961	44,61
354,482	37,1
355,003	43,49
355,524	37,47
356,044	43,65
356,565	40,2
357,086	44,03
357,606	42,37
358,126	42,17
358,646	42,56
359,167	39,05
359,687	44,34
360,206	37,81
360,726	41,8
361,246	41,47
361,765	40,87
362,285	39,67
362,804	41,47
363,323	42,21
363,842	43,2
364,361	41,98
364,88	38,68
365,398	40,89
365,917	42,66
366,435	38,84
366,954	43,23
367,472	41,35
367,99	41,87
368,508	40,86
369,026	34,47
369,544	40,44
370,061	41,01
370,579	38,52
371,096	39,54
371,613	37,16
372,131	43,81
372,648	39,31
373,165	38,91
373,681	37,15
374,198	38,47
374,715	37,58
375,231	39,84
375,747	36,51
376,264	35,29
376,78	40,41
377,296	38,43
377,812	34,93
378,327	36,28
378,843	38,64
379,359	34,75
379,874	36,81
380,389	32,86
380,905	36,21
381,42	33,64
381,935	35,02
382,449	32,77
382,964	32,61
383,479	31,44
383,993	32,89
384,508	32,5
385,022	31,47
385,536	32,31
386,05	30,61
386,564	31,75
387,078	31,57
387,592	28,63
388,105	30,07
388,619	29,79
389,132	28,88
389,645	28,49
390,158	28,19
390,671	27,07
391,184	25,52
391,697	25,99
392,21	25,63
392,722	28,6
393,235	25,04
393,747	26,11
394,259	25,74
394,771	26,53
395,283	26
395,795	25,62
396,307	25,37
396,818	24,68
397,33	24,53
397,841	22,57
398,353	24,85
398,864	23,16
399,375	23,19
399,886	22,35
400,397	20,6
400,907	21,09
401,418	20,85
401,928	21,7
402,439	20,99
402,949	20,02
403,459	20,66
403,969	19,35
404,479	18,25
404,989	17,88
405,498	17,91
406,008	17,49
406,517	16,99
407,027	16,47
407,536	16,43
408,045	15,57
408,554	15,04
409,063	14,73
409,572	14,27
410,08	13,74
410,589	13,5
411,097	12,93
411,606	12,17
412,114	12,23
412,622	11,56
413,13	11,33
413,638	11,72
414,145	10,91
414,653	10,72
415,16	9,92
415,668	10,49
416,175	9,86
416,682	9,3
417,189	9,43
417,696	8,9
418,203	9,03
418,71	9,06
419,216	9,07
419,723	8,76
420,229	8,32
420,735	8,51
421,242	8,4
421,748	8,51
422,254	8,09
422,759	8,13
423,265	7,75
423,771	7,6
424,276	7,77
424,781	7,71
425,287	7,66
425,792	7,54
426,297	7,44
426,802	7,5
427,306	7,44
427,811	7,61
428,316	7,22
428,82	7,02
429,324	7,15
429,829	6,82
430,333	7,27
430,837	7,08
431,34	6,88
431,844	7,34
432,348	6,7
432,851	6,73
433,355	6,9
433,858	6,94
434,361	6,9
434,864	6,81
435,367	6,35
435,87	6,73
436,373	6,75
436,876	6,44
437,378	6,79
437,88	6,93
438,383	6,22
438,885	6,53
439,387	6,67
439,889	6,52
440,391	6,17
440,892	6,55
441,394	6,82
441,896	6,6
442,397	6,83
442,898	6,65
443,399	6,47
443,9	6,63
444,401	6,67
444,902	6,47
445,403	6,6
445,903	6,75
446,404	6,66
446,904	6,82
447,405	6,71
447,905	6,65
448,405	7,34
448,905	6,7
449,404	7,08
449,904	6,61
450,404	7,1
450,903	7,19
451,403	6,87
451,902	7,09
452,401	7,13
452,9	6,93
453,399	6,98
453,898	7,25
454,396	7,3
454,895	7,37
455,393	7,46
455,892	7,35
456,39	7,42
456,888	7,43
457,386	7,34
457,884	7,31
458,382	7,44
458,879	7,08
459,377	7,33
459,874	7,28
460,372	7,5
460,869	7,4
461,366	7,48
461,863	7,31
462,36	7,3
462,857	7,56
463,353	7,28
463,85	7,51
464,346	7,34
464,843	7,38
465,339	7,4
465,835	7,27
466,331	7,38
466,827	7,4
467,323	7,58
467,818	7,27
468,314	7,2
468,809	7,08
469,305	7,55
469,8	7,37
470,295	7,37
470,79	7,31
471,285	7,45
471,78	7,52
472,274	7,39
472,769	7,46
473,263	7,47
473,758	7,28
474,252	7,45
474,746	7,67
475,24	7,35
475,734	7,45
476,228	7,22
476,721	7,47
477,215	7,27
477,708	7,6
478,202	7,29
478,695	7,59
479,188	7,4
479,681	7,48
480,174	7,63
480,667	7,47
481,159	7,6
481,652	7,67
482,144	7,51
482,637	7,76
483,129	7,67
483,621	7,87
484,113	7,68
484,605	7,65
485,097	7,87
485,588	7,63
486,08	7,81
486,571	7,65
487,063	7,88
487,554	7,63
488,045	7,94
488,536	7,97
489,027	7,93
489,518	7,91
490,008	8
490,499	7,87
490,989	7,99
491,48	8,19
491,97	8,12
492,46	8,34
492,95	8,44
493,44	8,36
493,93	8,5
494,419	8,44
494,909	8,79
495,398	8,79
495,888	9,06
496,377	8,96
496,866	9
497,355	9,11
497,844	9,21
498,333	9,51
498,821	9,34
499,31	9,6
499,798	9,68
500,287	9,82
500,775	10,15
501,263	10,35
501,751	10,25
502,239	10,53
502,727	10,6
503,215	10,95
503,702	11,03
504,19	11,03
504,677	11,45
505,164	11,53
505,651	11,69
506,139	11,72
506,625	11,97
507,112	12,4
507,599	12,6
508,086	12,57
508,572	13,05
509,058	13,12
509,545	13,34
510,031	13,76
510,517	14,01
511,003	14,46
511,489	14,7
511,974	14,79
512,46	15,05
512,946	15,47
513,431	15,56
513,916	15,88
514,401	16,15
514,887	16,63
515,371	16,89
515,856	17,35
516,341	17,5
516,826	17,88
517,31	18,35
517,795	18,56
518,279	18,8
518,763	19,22
519,247	19,74
519,731	20
520,215	20,38
520,699	20,66
521,182	21
521,666	21,42
522,149	21,74
522,633	22,17
523,116	22,11
523,599	22,9
524,082	23,16
524,565	23,7
525,048	23,53
525,53	24,13
526,013	24,43
526,495	24,97
526,978	25,2
527,46	24,98
527,942	25,42
528,424	25,84
528,906	25,83
529,388	26,19
529,87	26,16
530,351	26,72
530,833	26,64
531,314	26,95
531,795	26,84
532,277	27,18
532,758	27,48
533,238	27,69
533,719	27,74
534,2	27,99
534,681	27,66
535,161	28,2
535,642	28,23
536,122	28,15
536,602	28,13
537,082	28,6
537,562	28,35
538,042	28,7
538,522	28,5
539,001	28,7
539,481	28,86
539,96	28,91
540,44	29,16
540,919	28,92
541,398	28,98
541,877	29,48
542,356	29,23
542,835	29,32
543,313	29,39
543,792	29,44
544,27	29,64
544,749	29,48
545,227	29,86
545,705	29,35
546,183	29,83
546,661	29,68
547,139	29,75
547,616	29,73
548,094	29,42
548,571	29,83
549,049	29,91
549,526	29,91
550,003	30,01
550,48	29,95
550,957	30,08
551,434	30,05
551,911	29,85
552,387	30,11
552,864	29,99
553,34	29,78
553,817	29,96
554,293	30,07
554,769	30,42
555,245	29,85
555,721	30,1
556,197	30,26
556,672	29,82
557,148	30,07
557,623	29,99
558,099	30,17
558,574	30,03
559,049	29,76
559,524	29,63
559,999	29,76
560,474	29,66
560,948	29,35
561,423	29,33
561,897	29,24
562,372	29,06
562,846	29,26
563,32	29,25
563,794	29,13
564,268	28,69
564,742	28,77
565,216	28,68
565,69	28,32
566,163	28,31
566,636	28,04
567,11	28,14
567,583	27,94
568,056	27,82
568,529	27,57
569,002	27,52
569,475	27,31
569,947	26,97
570,42	26,92
570,892	26,5
571,365	26,62
571,837	26,36
572,309	26,21
572,781	25,92
573,253	25,79
573,725	25,76
574,197	25,2
574,668	25,36
575,14	24,92
575,611	24,83
576,082	24,73
576,554	24,86
577,025	24,46
577,496	24,11
577,967	24,28
578,437	23,92
578,908	23,93
579,379	23,96
579,849	23,71
580,319	23,52
580,79	23,33
581,26	23,26
581,73	23,03
582,2	22,92
582,669	22,67
583,139	22,82
583,609	22,45
584,078	22,42
584,548	22,54
585,017	22,29
585,486	22,27
585,955	22,01
586,424	22,17
586,893	21,92
587,362	21,95
587,83	21,67
588,299	21,46
588,767	21,48
589,236	21,53
589,704	21,61
590,172	21,48
590,64	21,18
591,108	21,2
591,576	20,96
592,043	20,98
592,511	20,97
592,978	20,63
593,446	20,84
593,913	20,58
594,38	20,65
594,847	20,71
595,314	20,68
595,781	20,48
596,248	20,49
596,715	20,32
597,181	20,5
597,647	20,29
598,114	20,46
598,58	20,49
599,046	20,4
599,512	20,33
599,978	20,01
600,444	20,1
600,91	19,94
601,375	20,06
601,841	20,17
602,306	20,07
602,771	19,98
603,236	19,83
603,702	19,74
604,167	19,9
604,631	19,81
605,096	19,49
605,561	19,61
606,025	19,6
606,49	19,42
606,954	19,24
607,418	19,15
607,882	19,17
608,347	19,09
608,81	19,12
609,274	18,66
609,738	18,82
610,202	18,81
610,665	18,36
611,128	18,4
611,592	18,38
612,055	18,2
612,518	18,25
612,981	17,79
613,444	18,01
613,907	18
614,369	17,9
614,832	17,63
615,294	17,49
615,757	17,56
616,219	17,37
616,681	17,24
617,143	17,14
617,605	16,92
618,067	17,06
618,529	16,88
618,99	16,9
619,452	16,59
619,913	16,73
620,375	16,56
620,836	16,49
621,297	16,59
621,758	16,37
622,219	16,36
622,68	16,29
623,14	16,52
623,601	16,31
624,061	16,13
624,522	16,16
624,982	16,04
625,442	16,09
625,902	15,99
626,362	16,11
626,822	16,02
627,282	15,98
627,742	16,03
628,201	15,85
628,661	15,95
629,12	15,96
629,579	15,88
630,038	15,87
630,497	15,82
630,956	15,8
631,415	15,69
631,874	15,85
632,332	15,76
632,791	15,8
633,249	15,59
633,708	15,54
634,166	15,56
634,624	15,52
635,082	15,23
635,54	15,31
635,998	15,23
636,455	15,14
636,913	14,91
637,37	14,92
637,828	14,95
638,285	14,75
638,742	14,54
639,199	14,5
639,656	14,35
640,113	14,21
640,57	13,99
641,027	13,87
641,483	13,87
641,94	13,58
642,396	13,46
642,852	13,38
643,309	13,29
643,765	13,1
644,221	12,85
644,676	12,81
645,132	12,65
645,588	12,49
646,043	12,23
646,499	12,19
646,954	12,2
647,409	11,99
647,864	11,9
648,319	11,72
648,774	11,53
649,229	11,51
649,684	11,42
650,139	11,32
650,593	11,3
651,047	11,28
651,502	11,05
651,956	10,94
652,41	10,81
652,864	10,81
653,318	10,83
653,772	10,77
654,225	10,71
654,679	10,59
655,133	10,6
655,586	10,47
656,039	10,51
656,492	10,38
656,946	10,32
657,399	10,17
657,851	10,09
658,304	9,89
658,757	9,8
659,209	9,77
659,662	9,46
660,114	9,64
660,567	9,44
661,019	9,37
661,471	9,22
661,923	9,07
662,375	9,01
662,826	8,93
663,278	8,76
663,73	8,69
664,181	8,68
664,632	8,49
665,084	8,38
665,535	8,33
665,986	8,29
666,437	8,24
666,888	8,14
667,338	8,1
667,789	7,98
668,24	7,98
668,69	7,95
669,14	8
669,591	7,85
670,041	7,82
670,491	7,83
670,941	7,81
671,391	7,86
671,84	7,77
672,29	7,79
672,74	7,79
673,189	7,92
673,638	7,83
674,088	7,87
674,537	7,84
674,986	7,94
675,435	8,05
675,883	8,03
676,332	8,18
676,781	8,21
677,229	8,24
677,678	8,4
678,126	8,35
678,574	8,42
679,022	8,51
679,47	8,62
679,918	8,72
680,366	8,75
680,814	8,9
681,261	8,99
681,709	9,14
682,156	9,2
682,604	9,38
683,051	9,53
683,498	9,65
683,945	9,84
684,392	9,98
684,839	10,16
685,286	10,45
685,732	10,62
686,179	10,88
686,625	11,07
687,071	11,35
687,518	11,64
687,964	11,94
688,41	12,4
688,856	12,7
689,301	13,19
689,747	13,33
690,193	13,8
690,638	14,45
691,084	14,87
691,529	15,42
691,974	15,88
692,419	16,5
692,864	17,06
693,309	17,74
693,754	18,33
694,199	18,81
694,643	19,48
695,088	20,18
695,532	20,74
695,977	21,26
696,421	21,92
696,865	22,49
697,309	23,4
697,753	23,88
698,197	24,63
698,64	25,14
699,084	25,71
699,527	26,37
699,971	26,86
700,414	27,51
700,857	28,18
701,3	28,67
701,743	29,21
702,186	30,05
702,629	30,51
703,072	30,89
703,515	31,49
703,957	31,98
704,399	32,58
704,842	32,73
705,284	33,37
705,726	34,05
706,168	34,38
706,61	35,07
707,052	35,4
707,494	35,7
707,935	36,28
708,377	36,61
708,818	37,03
709,26	37,46
709,701	37,92
710,142	38,1
710,583	38,6
711,024	39,09
711,465	39,54
711,905	39,79
712,346	40,21
712,787	40,58
713,227	40,85
713,667	41,39
714,108	41,78
714,548	42,19
714,988	42,14
715,428	42,56
715,868	43
716,307	43,22
716,747	43,68
717,186	43,78
717,626	44,11
718,065	44,63
718,504	44,64
718,944	45,11
719,383	45,48
719,822	45,72
720,261	45,73
720,699	45,99
721,138	46,26
721,576	46,57
722,015	46,89
722,453	47,27
722,892	47,4
723,33	47,45
723,768	47,84
724,206	47,73
724,644	48,2
725,081	48,29
725,519	48,4
725,957	48,49
726,394	48,72
726,832	48,76
727,269	49,3
727,706	49,14
728,143	49,55
728,58	49,64
729,017	49,65
729,454	50,01
729,89	49,98
730,327	50,18
730,764	50,3
731,2	50,35
731,636	50,51
732,072	50,84
732,509	50,75
732,945	50,92
733,38	51,16
733,816	51,13
734,252	51,11
734,688	51,06
735,123	51,19
735,559	51,52
735,994	51,27
736,429	51,44
736,864	51,86
737,299	51,33
737,734	51,86
738,169	51,56
738,604	51,94
739,038	51,86
739,473	51,69
739,907	51,89
740,342	51,85
740,776	51,76
741,21	52,26
741,644	52,08
742,078	52,26
742,512	52,23
742,946	52,4
743,379	52,14
743,813	52,24
744,246	52,06
744,68	52,38
745,113	52,4
745,546	52,12
745,979	52,18
746,412	52,36
746,845	51,9
747,278	52,4
747,711	52,43
748,143	52,48
748,576	52,15
749,008	51,99
749,441	52,2
749,873	52,11
750,305	52,32
750,737	52,14
751,169	52,08
751,601	52,23
752,032	52,12
752,464	52,34
752,896	51,98
753,327	52,05
753,758	52,11
754,19	52,22
754,621	52,17
755,052	52,2
755,483	52,07
755,914	51,95
756,344	52,12
756,775	52,18
757,206	52,02
757,636	52,01
758,066	52,04
758,497	51,8
758,927	51,82
759,357	52
759,787	51,97
760,217	51,89
760,647	51,82
761,076	51,93
761,506	51,96
761,935	51,72
762,365	51,84
762,794	51,79
763,223	51,89
763,653	52
764,082	51,7
764,51	52,01
764,939	51,78
765,368	51,68
765,797	51,92
766,225	51,71
766,654	51,59
767,082	51,67
767,51	51,67
767,938	51,61
768,367	51,47
768,795	51,38
769,222	51,74
769,65	51,38
770,078	51,6
770,505	51,53
770,933	51,44
771,36	51,44
771,788	51,71
772,215	51,6
772,642	51,45
773,069	51,43
773,496	51,34
773,923	51,46
774,349	51,3
774,776	51,54
775,203	51,35
775,629	51,49
776,055	51,44
776,482	51,37
776,908	51,41
777,334	51,35
777,76	51,5
778,186	51,41
778,611	51,54
779,037	51,28
779,463	51,1
779,888	51,25
780,314	51,13
780,739	51,59
781,164	51,42
781,589	51,34
782,014	51,25
782,439	51,29
782,864	51,32
783,289	51,43
783,713	51,15
784,138	51,28
784,562	51,38
784,987	51,04
785,411	51,3
785,835	51,25
786,259	51,1
786,683	51,36
787,107	51,23
787,531	51,18
787,954	51,29
788,378	51,22
788,802	51,29
789,225	51,28
789,648	51,28
790,071	51,22
790,495	51,09
790,918	51,24
791,34	50,97
791,763	51,04
792,186	51,23
792,609	51,12
793,031	51,05
793,454	51,16
793,876	51,19
794,298	51,11
794,721	51,35
795,143	51,31
795,565	50,9
795,986	51,18
796,408	51,15
796,83	51,17
797,252	51,2
797,673	51,19
798,094	50,88
798,516	50,89
798,937	50,99
799,358	51
799,779	51,17
800,2	51,09
800,621	51,32
801,042	50,88
801,462	51,17
801,883	51,09
802,303	51,06
802,724	51,1
803,144	51,25
803,564	50,85
803,984	51,31
804,404	51,29
804,824	51,33
805,244	51,24
805,664	50,87
806,084	51,02
806,503	51,16
806,923	51,05
807,342	50,9
807,761	50,88
808,18	51,2
808,599	51,09
809,018	51,13
809,437	51,06
809,856	51,06
810,275	50,91
810,693	50,83
811,112	50,93
811,53	50,87
811,949	51,26
812,367	50,95
812,785	51,21
813,203	51,25
813,621	50,95
814,039	50,99
814,457	50,89
814,874	51,07
815,292	51,11
815,709	50,88
816,127	50,98
816,544	50,93
816,961	50,9
817,378	51,35
817,795	50,94
818,212	50,98
818,629	50,91
819,046	50,76
819,462	50,99
819,879	51,18
820,295	50,86
820,712	50,82
821,128	51,12
821,544	50,81
821,96	51,02
822,376	51,02
822,792	50,94
823,208	50,94
823,624	51,19
824,039	50,95
824,455	50,82
824,87	51,13
825,286	50,9
825,701	50,83
826,116	50,57
826,531	51,09
826,946	50,85
827,361	50,95
827,776	50,84
828,19	50,63
828,605	50,83
829,02	50,8
829,434	50,83
829,848	51,31
830,263	50,79
830,677	50,75
831,091	51,11
831,505	50,84
831,919	50,78
832,332	50,66
832,746	50,74
833,16	50,97
833,573	50,94
833,987	50,77
834,4	50,8
834,813	50,87
835,226	50,76
835,639	50,73
836,052	50,81
836,465	51,09
836,878	50,95
837,29	50,88
837,703	50,72
838,116	50,92
838,528	50,81
838,94	50,88
839,352	50,79
839,765	50,97
840,177	50,78
840,589	50,95
841	50,91
841,412	50,67
841,824	50,88
842,235	50,52
842,647	50,7
843,058	50,98
843,47	50,87
843,881	50,75
844,292	50,87
844,703	50,53
845,114	50,87
845,525	50,72
845,935	50,93
846,346	50,56
846,757	50,75
847,167	50,89
847,577	50,97
847,988	50,7
848,398	50,52
848,808	50,6
849,218	50,69
849,628	50,65
850,038	50,87
850,448	50,69
850,857	51,03
851,267	50,64
851,676	50,86
852,086	50,94
852,495	50,75
852,904	50,62
853,313	50,47
853,722	50,63
854,131	50,77
854,54	50,54
854,949	50,71
855,357	50,69
855,766	50,85
856,174	50,46
856,583	50,34
856,991	50,7
857,399	50,77
857,807	51,05
858,215	50,61
858,623	50,72
859,031	50,77
859,439	50,85
859,846	50,55
860,254	50,88
860,661	50,59
861,069	50,58
861,476	51,06
861,883	50,29
862,29	50,71
862,697	50,55
863,104	50,43
863,511	50,87
863,918	50,73
864,325	50,53
864,731	50,38
865,138	50,63
865,544	50,84
865,95	50,58
866,357	50,44
866,763	50,77
867,169	50,58
867,575	50,37
867,98	50,72
868,386	50,62
868,792	50,7
869,197	50,57
869,603	50,48
870,008	50,74
870,414	50,49
870,819	50,7
871,224	50,93
871,629	50,36
872,034	50,56
872,439	50,82
872,844	50,58
873,248	50,56
873,653	50,4
874,057	50,75
874,462	50,52
874,866	50,64
875,27	50,72
875,674	50,7
876,078	50,37
876,482	50,58
876,886	50,58
877,29	50,33
877,694	50,63
878,097	50,34
878,501	50,45
878,904	50,62
879,308	50,44
879,711	50,65
880,114	50,76
880,517	50,36
880,92	50,81
881,323	50,66
881,726	50,58
882,128	50,2
882,531	50,44
882,934	50,4
883,336	50,35
883,738	50,5
884,141	50,47
884,543	50,61
884,945	50,58
885,347	50,65
885,749	50,23
886,151	50,51
886,552	50,26
886,954	50,26
887,355	50,54
887,757	50,52
888,158	50,37
888,56	50,55
888,961	50,36
889,362	50,42
889,763	50,51
890,164	50,46
890,565	50,49
890,965	50,44
891,366	50,51
891,767	50,71
892,167	50,86
892,567	50,64
892,968	50,86
893,368	50,54
893,768	50,56
894,168	50,52
894,568	50,65
894,968	50,7
895,368	50,34
895,767	50,33
896,167	50,38
896,566	50,71
896,966	50,46
897,365	50,58
897,764	50,06
898,164	50,94
898,563	50,7
898,962	50,6
899,361	50,56
899,759	50,22
900,158	50,41
900,557	50,77
900,955	50,38
901,354	50,27
901,752	50,34
902,15	50,76
902,548	50,69
902,947	50,31
903,345	50,42
903,742	50,44
904,14	50,6
904,538	50,31
904,936	50,32
905,333	50,34
905,731	50,35
906,128	50,39
906,525	50,34
906,923	50,23
907,32	50,16
907,717	50,18
908,114	50,4
908,511	50,37
908,907	50,73
909,304	50,46
909,701	50,55
910,097	50,01
910,494	50,9
910,89	50,47
911,286	50,57
911,682	50,65
912,078	50,54
912,474	50,44
912,87	50,51
913,266	50,46
913,662	50,39
914,058	50,19
914,453	50,66
914,849	50,37
915,244	50,21
915,639	50,14
916,034	50,62
916,43	50,54
916,825	50,56
917,22	50,65
917,614	50,32
918,009	50,16
918,404	50,19
918,798	50,33
919,193	50,52
919,587	50,48
919,982	49,96
920,376	50,49
920,77	50,02
921,164	50,45
921,558	50,7
921,952	50,26
922,346	50,16
922,74	50,22
923,133	50,41
923,527	50,09
923,92	49,98
924,314	50,06
924,707	50,16
925,1	50,07
925,493	50,36
925,886	50,58
926,279	49,97
926,672	50,04
927,065	50,33
927,457	50,06
927,85	49,78
928,243	49,97
928,635	49,85
929,027	49,85
929,42	49,92
929,812	50,08
930,204	50
930,596	50,12
930,988	50,19
931,379	50,1
931,771	49,86
932,163	50,33
932,554	49,53
932,946	49,84
933,337	49,79
933,729	49,88
934,12	49,8
934,511	50,25
934,902	49,25
935,293	49,8
935,684	49,88
936,075	49,93
936,465	49,64
936,856	49,42
937,246	49,93
937,637	49,03
938,027	50,09
938,417	49,52
938,808	49,45
939,198	49,79
939,588	49,87
939,978	49,3
940,368	49,8
940,757	49,45
941,147	49,73
941,537	49,65
941,926	49,34
942,315	49,51
942,705	50,09
943,094	49,59
943,483	49,96
943,872	49,57
944,261	49,77
944,65	49,89
945,039	49,55
945,428	49,05
945,816	49,26
946,205	48,77
946,593	49,06
946,982	49,39
947,37	49,68
947,758	48,85
948,146	48,97
948,534	49,1
948,922	48,93
949,31	48,82
949,698	49,13
950,086	49,31
950,473	49,35
950,861	48,84
951,248	48,91
951,636	48,91
952,023	48,52
952,41	48,92
952,797	48,57
953,184	48,69
953,571	48,46
953,958	48,53
954,345	48,2
954,731	48,47
955,118	48,37
955,505	48,61
955,891	48,85
956,277	48,48
956,664	48,54
957,05	48,05
957,436	48,49
957,822	48,51
958,208	48,76
958,594	48,86
958,979	47,9
959,365	48,4
959,751	48,52
960,136	47,79
960,522	48,37
960,907	48,16
961,292	48,23
961,677	48,37
962,062	47,98
962,447	48,37
962,832	48,29
963,217	48,12
963,602	48,33
963,986	48,02
964,371	47,98
964,756	48,48
965,14	48,01
965,524	47,96
965,908	48,03
966,293	48,06
966,677	47,83
967,061	48,49
967,445	48,26
967,828	48,38
968,212	48,49
968,596	47,94
968,979	48,25
969,363	48,38
969,746	48,18
970,129	47,95
970,513	48,28
970,896	48,2
971,279	47,93
971,662	48,01
972,045	48,1
972,428	47,9
972,81	48,27
973,193	47,99
973,575	48,06
973,958	47,77
974,34	48,01
974,723	47,84
975,105	48,2
975,487	48,37
975,869	48,08
976,251	48,29
976,633	48,14
977,015	48,39
977,396	48,12
977,778	48,05
978,16	47,94
978,541	48,14
978,922	47,7
979,304	48,3
979,685	47,97
980,066	48,71
980,447	48,45
980,828	48,05
981,209	48,01
981,59	48,07
981,97	48,34
982,351	48,43
982,732	48,24
983,112	48,57
983,493	48,5
983,873	48,27
984,253	48,61
984,633	47,87
985,013	48,13
985,393	48,21
985,773	48,1
986,153	48,38
986,533	48,25
986,912	48,47
987,292	48,31
987,671	48,73
988,051	48,69
988,43	48,25
988,809	48,06
989,188	49
989,567	48,36
989,946	48,49
990,325	47,77
990,704	48,2
991,083	48,33
991,461	48,38
991,84	48,08
992,218	48,34
992,597	48,58
992,975	48,23
993,353	48,39
993,732	48,18
994,11	48,26
994,488	48,62
994,866	48,16
995,243	48,4
995,621	48,35
995,999	48,56
996,376	48,61
996,754	48,29
997,131	48,4
997,509	48,31
997,886	48,31
998,263	48,66
998,64	48,38
999,017	48,77
999,394	48,15
999,771	48,59
1000,148	48,1
1000,524	48,29
1000,901	48,68
1001,277	48,86
1001,654	48,23
1002,03	48,78
1002,406	48,48
1002,783	49,11
1003,159	48,3
1003,535	48,43
1003,911	48,51
1004,286	49,43
1004,662	47,99
1005,038	48,89
1005,414	48,81
1005,789	48,3
1006,164	48,18
1006,54	48,27
1006,915	48,34
1007,29	48,57
1007,665	48,76
1008,04	49,28
1008,415	48,79
1008,79	49,23
1009,165	48,72
1009,54	49,03
1009,914	48,93
1010,289	49,13
1010,663	48,75
1011,038	48,96
1011,412	49,18
1011,786	49,14
1012,16	49,11
1012,535	48,81
1012,909	49,22
1013,282	48,73
1013,656	49,07
1014,03	49,36
1014,404	48,91
1014,777	48,8
1015,151	49,06
1015,524	49,4
1015,897	49,73
1016,271	49,39
1016,644	49,33
1017,017	49,47
1017,39	49,2
1017,763	48,36
1018,136	49,25
1018,508	49,45
1018,881	49,59
1019,254	49,1
1019,626	49,11
1019,999	49,21
1020,371	49,1
1020,743	49,21
1021,116	49,33
1021,488	48,98
1021,86	49,19
1022,232	49,36
1022,604	48,77
1022,975	49,19
1023,347	49,34
1023,719	48,92
1024,09	49,07
1024,462	49,43
1024,833	48,98
1025,204	50,03
1025,576	49,81
1025,947	49,49
1026,318	49,82
1026,689	49,9
1027,06	49,41
1027,431	49,73
1027,801	49,32
1028,172	49,17
1028,543	49,38
1028,913	49,91
1029,284	50,02
1029,654	49,34
1030,024	49,73
1030,394	49,29
1030,764	48,94
1031,135	49,51
1031,504	49,25
1031,874	49,48
1032,244	49,42
1032,614	49,9
1032,983	49,61
1033,353	49,48
1033,722	49,7
1034,092	49,57
1034,461	49,5
1034,83	50,13
1035,2	49,86
1035,569	49,97
1035,938	49,05
1036,307	50,06
1036,675	49,35
1037,044	49,48
1037,413	49,77
1037,781	49,9
1038,15	49,99
1038,518	49,35
1038,887	49,59
1039,255	49,24
1039,623	49,69
1039,991	49,94
1040,359	50,07
1040,727	49,73
1041,095	49,95
1041,463	50,11
1041,831	50,14
1042,198	49,69
1042,566	49,13
1042,933	49,55
1043,301	49,74
1043,668	49,59
1044,035	49,19
1044,402	50,66
1044,77	49,63
1045,137	50,28
1045,503	50
1045,87	50,03
1046,237	49,74
1046,604	50,23
1046,97	50,71
1047,337	49,85
1047,703	50,65
1048,07	49,6
1048,436	51,04
1048,802	49,52
1049,168	50,06
1049,534	50,62
1049,9	49,8
1050,266	50,3
1050,632	50,1
1050,998	50,58
1051,364	50,3
1051,729	50,18
1052,095	50,17
1052,46	50,5
1052,825	49,98
1053,191	49,89
1053,556	49,82
1053,921	50,66
1054,286	50,1
1054,651	50,02
1055,016	49,28
1055,381	50,03
1055,745	49,81
1056,11	50,41
1056,475	50,89
1056,839	50,67
1057,203	50,05
1057,568	50,19
1057,932	50,25
1058,296	50,43
1058,66	50,55
1059,024	51,08
1059,388	51,38
1059,752	49,9
1060,116	50,06
1060,48	50,64
1060,843	50,85
1061,207	50,49
1061,57	51,3
1061,934	51,05
1062,297	49,63
1062,66	50,03
1063,023	49,99
1063,386	50,57
1063,749	50,54
1064,112	50,53
1064,475	51,47
1064,838	49,34
1065,201	50,66
1065,563	49,62
1065,926	50,03
1066,288	50,33
1066,651	51,23
1067,013	49,69
1067,375	50,8
1067,737	50,59
1068,099	50,43
1068,461	51,45
1068,823	50,76
1069,185	50,64
1069,547	50,1
1069,909	50,44
1070,27	50,7
1070,632	50,61
1070,993	49,66
1071,355	50,75
1071,716	49,86
1072,077	50,98
1072,438	50,23
1072,799	50,56
1073,16	51,71
1073,521	50,62
1073,882	49,92
1074,243	50,55
1074,603	50,91
1074,964	50,12
1075,325	51,21
1075,685	51,49
1076,045	51,23
1076,406	51,17
1076,766	50,25
1077,126	50,2
1077,486	50,34
1077,846	50,22
1078,206	50,27
1078,566	50,1
1078,925	50,19
1079,285	50,02
1079,645	49,68
1080,004	51,4
1080,364	51,58
1080,723	51,2
1081,082	49,65
1081,442	51,71
1081,801	49,86
1082,16	50,66
1082,519	50,05
1082,878	49,75
1083,237	51,12
1083,595	50,41
1083,954	50,51
1084,313	50,76
1084,671	52,39
1085,03	51,05
1085,388	50,78
1085,746	50,52
1086,104	49,98
1086,463	50,45
1086,821	50,39
1087,179	50,72
1087,537	51,44
1087,894	50,58
1088,252	51,27
1088,61	50,68
1088,967	50,34
1089,325	50,91
1089,682	50,86
1090,04	49,55
1090,397	50,34
1090,754	49,67
1091,111	51,5
1091,469	50,2
1091,826	50,54
1092,182	52,66
1092,539	50,6
1092,896	49,92
1093,253	50,97
1093,609	49,92
1093,966	51,05
1094,322	50,33
1094,679	50,68
1095,035	52,74
1095,391	50,14
1095,748	51,02
1096,104	51,76
1096,46	51,47
1096,816	50,89
1097,171	49,78
1097,527	51,4
1097,883	50,11
1098,239	51,95
1098,594	50,57
1098,95	52,16
1099,305	52,88
1099,66	50,23
1100,016	51,73
1100,371	50,18
1100,726	50,04
1101,081	51,19
1101,436	49,87
1101,791	52,21
1102,146	50,6
1102,5	50,82
1102,855	51,48
1103,21	51,44
1103,564	51,41
1103,918	50,84
1104,273	51,9
1104,627	50,09
1104,981	48,9
1105,335	51,82
1105,69	52,24
1106,043	51,47
1106,397	51,93
1106,751	50,9
1107,105	48,94
1107,459	50,63
1107,812	50,71
1108,166	50,34
1108,519	51,31
1108,873	51,32
1109,226	50,59
1109,579	54,12
1109,932	53,03
1110,285	52,52
1110,638	52,46
1110,991	51,03
1111,344	48,82
1111,697	49,32
1112,05	49,9
1112,402	50,5
1112,755	50,59
1113,107	50,3
1113,46	50,4
1113,812	52,73
1114,164	50,94
1114,517	51,05
1114,869	75,69
1115,221	62,92
1115,573	73,22
1115,924	61,14
