Data from D1__Relative__0__00039.txt Node

Date: Tue Jan 30 17:54:34 CET 2024
User: diatiterra
Spectrometer: HDX00911
Trigger mode: 0
Integration Time (sec): 6,000000E-3
Scans to average: 3
Nonlinearity correction enabled: true
Boxcar width: 0
Storing dark spectrum: false
XAxis mode: Wavelengths
Number of Pixels in Spectrum: 2068
>>>>>Begin Spectral Data<<<<<
194,468	94,51
195,025	76,42
195,581	76,98
196,138	76,3
196,694	78,48
197,251	67,96
197,807	71,22
198,363	64,15
198,919	66,53
199,474	75,65
200,03	65,62
200,586	65,05
201,141	62,14
201,696	57,53
202,251	66,19
202,806	68,02
203,361	66,6
203,916	60,83
204,471	63,92
205,025	66,99
205,58	63,84
206,134	66,03
206,688	60,63
207,242	59,12
207,796	66,66
208,35	57,91
208,904	71,87
209,457	62,04
210,011	66,88
210,564	66,13
211,117	66,6
211,67	68,21
212,223	64,42
212,776	68,28
213,329	67,38
213,881	66,45
214,434	57,56
214,986	67,66
215,538	69,5
216,09	60,84
216,642	68,31
217,194	63,37
217,746	64,01
218,297	63,53
218,849	65,88
219,4	68,29
219,951	71,9
220,502	66,8
221,053	63,14
221,604	63,91
222,155	66,94
222,705	64,03
223,256	60,48
223,806	62,79
224,356	62,97
224,906	63,69
225,456	61,3
226,006	57,88
226,556	62,29
227,106	69,02
227,655	66,31
228,204	62,05
228,754	60,25
229,303	64,31
229,852	65,87
230,401	68,13
230,949	64,25
231,498	62,05
232,047	58,39
232,595	65,31
233,143	68,86
233,691	58,64
234,239	67,25
234,787	60,53
235,335	62,78
235,883	59,96
236,43	63,35
236,978	64,22
237,525	63,03
238,072	65,47
238,619	61,52
239,166	59,2
239,713	60,23
240,26	61,45
240,806	64,89
241,353	60,43
241,899	63,08
242,445	60,88
242,991	57,9
243,537	67,65
244,083	61,25
244,629	66,06
245,174	57,8
245,72	58,84
246,265	70,25
246,81	61,81
247,355	65,65
247,9	66,67
248,445	68,43
248,99	68,7
249,534	63,62
250,079	64,1
250,623	57,91
251,168	61,98
251,712	58,8
252,256	55,57
252,8	61,34
253,343	61,26
253,887	59,48
254,43	68,3
254,974	69,03
255,517	60,19
256,06	62,82
256,603	64,39
257,146	57,74
257,689	57,21
258,232	60,17
258,774	63,09
259,317	63,46
259,859	59,4
260,401	67,35
260,943	61,87
261,485	63,88
262,027	63,34
262,569	59,46
263,11	62,83
263,652	66,06
264,193	65,93
264,734	61,83
265,275	61,37
265,816	62,22
266,357	62,91
266,898	61,69
267,438	65,25
267,979	65,09
268,519	61,68
269,059	64,12
269,6	61,11
270,14	62,65
270,68	62,54
271,219	63,79
271,759	65,57
272,298	60,47
272,838	62,96
273,377	64,31
273,916	58,82
274,455	64,37
274,994	63,14
275,533	61,56
276,072	64,7
276,61	64,87
277,149	57,11
277,687	58,52
278,225	61,04
278,763	60
279,301	63,74
279,839	64,09
280,377	62,69
280,914	64,41
281,452	66,45
281,989	66,68
282,526	58,85
283,064	66,03
283,601	60,47
284,137	66,01
284,674	64,14
285,211	63,58
285,747	63,6
286,284	68,73
286,82	61,11
287,356	65,76
287,892	70,4
288,428	58,59
288,964	63,9
289,5	66,89
290,035	63,91
290,571	63,62
291,106	71,14
291,641	60,19
292,176	64,86
292,711	63,5
293,246	64,47
293,781	64,66
294,315	59,91
294,85	63,15
295,384	64,1
295,918	59,7
296,453	61,49
296,987	60,17
297,52	61,81
298,054	62,5
298,588	62,69
299,121	60,87
299,655	63,09
300,188	63,1
300,721	59,69
301,254	65,65
301,787	60,59
302,32	67,08
302,853	56,96
303,385	61,78
303,918	61,02
304,45	60,47
304,982	64,1
305,514	63,83
306,046	65,26
306,578	58,41
307,11	62,92
307,641	70,83
308,173	63,93
308,704	65,6
309,236	71,24
309,767	57,23
310,298	57,05
310,829	66,82
311,359	63,9
311,89	57,08
312,421	58,61
312,951	61,23
313,481	62,86
314,012	58,74
314,542	59,74
315,072	59,49
315,601	56,16
316,131	60,32
316,661	64,34
317,19	62,21
317,72	60,91
318,249	58,63
318,778	61,21
319,307	58,3
319,836	60,86
320,365	63,1
320,893	63,74
321,422	64,13
321,95	57,75
322,479	63,79
323,007	54,06
323,535	57,38
324,063	62,73
324,591	61,14
325,118	58,01
325,646	58,21
326,173	58,25
326,701	60,57
327,228	56
327,755	62,58
328,282	56,41
328,809	59,65
329,336	63,58
329,862	60,87
330,389	60,38
330,915	63,2
331,441	58,35
331,968	54,37
332,494	58,78
333,02	60,22
333,545	56,8
334,071	60,45
334,597	56,99
335,122	60,4
335,648	56,87
336,173	54,79
336,698	56,25
337,223	59,22
337,748	56,41
338,272	56,05
338,797	55,52
339,322	56,22
339,846	53,59
340,37	55,61
340,894	57,26
341,419	52,19
341,942	57,01
342,466	50,07
342,99	58,74
343,514	54,59
344,037	55,56
344,56	60,58
345,084	52,95
345,607	56,96
346,13	53,24
346,653	52,01
347,175	51,88
347,698	54,44
348,221	51,91
348,743	50,06
349,265	51,18
349,787	55,59
350,309	58,01
350,831	55,29
351,353	50,54
351,875	50,8
352,397	47,33
352,918	49,97
353,439	57,93
353,961	49,2
354,482	48,32
355,003	48,95
355,524	45,59
356,044	49,72
356,565	47,36
357,086	51,73
357,606	46,68
358,126	47,06
358,646	48,51
359,167	48,04
359,687	46,73
360,206	46,73
360,726	46,69
361,246	44,57
361,765	44,31
362,285	49,81
362,804	46,18
363,323	47,32
363,842	46,19
364,361	45,76
364,88	44,25
365,398	43,99
365,917	46,74
366,435	47,22
366,954	45,92
367,472	45,21
367,99	45,23
368,508	40,99
369,026	39,97
369,544	45,34
370,061	45,19
370,579	41,05
371,096	41,24
371,613	45,32
372,131	43
372,648	41,07
373,165	37,93
373,681	41,77
374,198	43,52
374,715	42,43
375,231	45,46
375,747	43,67
376,264	39,78
376,78	42,06
377,296	41,04
377,812	41,51
378,327	39,31
378,843	39,1
379,359	38,5
379,874	41,13
380,389	37,57
380,905	36,21
381,42	39,83
381,935	39,85
382,449	36,13
382,964	36,91
383,479	35,53
383,993	36,69
384,508	35,61
385,022	34,06
385,536	35,99
386,05	33,98
386,564	35,26
387,078	33,52
387,592	33,4
388,105	32,95
388,619	32,37
389,132	31,72
389,645	31,58
390,158	30,46
390,671	31,16
391,184	30,12
391,697	30,41
392,21	30,89
392,722	29,51
393,235	29,9
393,747	30,15
394,259	28,81
394,771	29,51
395,283	28,84
395,795	28,18
396,307	29,12
396,818	28,57
397,33	28,76
397,841	25,75
398,353	28,03
398,864	27,14
399,375	26,17
399,886	25,81
400,397	25,02
400,907	23,69
401,418	23,13
401,928	23,82
402,439	22,93
402,949	22,36
403,459	21,75
403,969	21,99
404,479	20,9
404,989	20,34
405,498	19,96
406,008	20,64
406,517	19,42
407,027	18,43
407,536	18,8
408,045	17,3
408,554	16,93
409,063	16,76
409,572	15,58
410,08	15,93
410,589	15,39
411,097	14,81
411,606	14,67
412,114	13,49
412,622	12,8
413,13	13,18
413,638	13,78
414,145	12,12
414,653	12
415,16	11,33
415,668	11,42
416,175	11,39
416,682	11,1
417,189	11,12
417,696	10,23
418,203	10,72
418,71	10,22
419,216	10,36
419,723	9,52
420,229	10,21
420,735	9,63
421,242	10,06
421,748	9,67
422,254	8,98
422,759	9,48
423,265	8,87
423,771	8,92
424,276	8,95
424,781	8,83
425,287	8,69
425,792	8,38
426,297	9,14
426,802	8,62
427,306	8,39
427,811	8,69
428,316	8,64
428,82	8,57
429,324	8,12
429,829	8,35
430,333	8,26
430,837	8,11
431,34	8,13
431,844	8,26
432,348	8,06
432,851	8,35
433,355	8,12
433,858	7,99
434,361	7,91
434,864	7,81
435,367	7,57
435,87	7,9
436,373	7,75
436,876	7,61
437,378	7,65
437,88	7,75
438,383	7,69
438,885	7,31
439,387	7,7
439,889	7,55
440,391	7,6
440,892	7,9
441,394	7,37
441,896	7,39
442,397	8,02
442,898	7,54
443,399	7,36
443,9	7,34
444,401	7,75
444,902	7,47
445,403	7,37
445,903	7,5
446,404	7,68
446,904	7,74
447,405	7,72
447,905	7,36
448,405	8,04
448,905	7,68
449,404	7,89
449,904	7,51
450,404	7,78
450,903	7,72
451,403	7,76
451,902	7,68
452,401	7,75
452,9	7,77
453,399	7,76
453,898	8,14
454,396	7,88
454,895	7,86
455,393	7,9
455,892	7,9
456,39	7,96
456,888	7,94
457,386	7,95
457,884	7,89
458,382	7,79
458,879	7,92
459,377	7,8
459,874	7,89
460,372	7,81
460,869	7,88
461,366	8,07
461,863	7,83
462,36	7,91
462,857	7,92
463,353	8,03
463,85	7,66
464,346	7,66
464,843	8
465,339	7,94
465,835	7,95
466,331	7,62
466,827	7,78
467,323	7,68
467,818	7,9
468,314	7,51
468,809	7,69
469,305	7,86
469,8	7,9
470,295	7,86
470,79	7,99
471,285	8,04
471,78	8,1
472,274	7,96
472,769	7,81
473,263	7,79
473,758	8,05
474,252	7,8
474,746	7,92
475,24	7,85
475,734	7,89
476,228	7,93
476,721	7,85
477,215	7,87
477,708	7,92
478,202	7,82
478,695	8,14
479,188	7,91
479,681	8,3
480,174	7,9
480,667	8,04
481,159	8,06
481,652	8,1
482,144	7,81
482,637	7,89
483,129	8,05
483,621	8,02
484,113	8,02
484,605	8,07
485,097	8,11
485,588	8,22
486,08	8
486,571	8,08
487,063	8,03
487,554	8,28
488,045	8,1
488,536	7,86
489,027	8,14
489,518	8,19
490,008	7,96
490,499	8,18
490,989	8,22
491,48	8,32
491,97	8,32
492,46	8,25
492,95	8,41
493,44	8,49
493,93	8,39
494,419	8,57
494,909	8,3
495,398	8,61
495,888	8,55
496,377	8,71
496,866	8,54
497,355	8,88
497,844	8,9
498,333	8,91
498,821	8,97
499,31	9,07
499,798	9,01
500,287	9,23
500,775	9,23
501,263	9,29
501,751	9,48
502,239	9,47
502,727	9,77
503,215	9,78
503,702	10,03
504,19	9,92
504,677	10,1
505,164	10,11
505,651	10,24
506,139	10,47
506,625	10,7
507,112	11
507,599	11,09
508,086	11,23
508,572	11,39
509,058	11,59
509,545	11,62
510,031	11,75
510,517	12,06
511,003	12,32
511,489	12,65
511,974	12,73
512,46	12,8
512,946	13,16
513,431	13,58
513,916	13,63
514,401	14,01
514,887	14,49
515,371	14,62
515,856	14,83
516,341	15,17
516,826	15,44
517,31	15,69
517,795	16,06
518,279	16,6
518,763	17
519,247	16,78
519,731	17,29
520,215	17,61
520,699	17,84
521,182	17,99
521,666	18,69
522,149	19,01
522,633	19,31
523,116	19,47
523,599	19,73
524,082	20,36
524,565	20,54
525,048	20,98
525,53	21,41
526,013	21,71
526,495	21,95
526,978	22,2
527,46	22,29
527,942	22,68
528,424	23,08
528,906	23,26
529,388	23,35
529,87	23,73
530,351	24
530,833	24,01
531,314	24,41
531,795	24,47
532,277	24,83
532,758	25,06
533,238	24,69
533,719	25,22
534,2	25,13
534,681	25,57
535,161	25,91
535,642	25,62
536,122	26,05
536,602	25,87
537,082	26,17
537,562	26,22
538,042	26,31
538,522	26,33
539,001	26,48
539,481	26,61
539,96	26,48
540,44	26,52
540,919	26,63
541,398	26,66
541,877	26,85
542,356	26,88
542,835	26,91
543,313	26,73
543,792	26,94
544,27	27,17
544,749	27,07
545,227	27,32
545,705	27,4
546,183	27,23
546,661	27,51
547,139	27,42
547,616	27,44
548,094	27,18
548,571	27,74
549,049	27,62
549,526	27,76
550,003	27,72
550,48	27,56
550,957	27,93
551,434	27,46
551,911	27,75
552,387	27,91
552,864	27,81
553,34	27,76
553,817	27,97
554,293	27,67
554,769	28,46
555,245	27,7
555,721	27,38
556,197	27,59
556,672	27,77
557,148	27,89
557,623	27,72
558,099	27,5
558,574	27,58
559,049	27,34
559,524	27,26
559,999	27,52
560,474	27,3
560,948	27,22
561,423	27,12
561,897	27,02
562,372	26,57
562,846	26,71
563,32	26,49
563,794	26,63
564,268	26,52
564,742	26,18
565,216	25,9
565,69	25,83
566,163	25,69
566,636	25,44
567,11	25,46
567,583	25
568,056	25,08
568,529	24,68
569,002	24,66
569,475	24,4
569,947	24,29
570,42	24,11
570,892	23,66
571,365	23,59
571,837	23,28
572,309	23,25
572,781	23,1
573,253	22,92
573,725	22,69
574,197	22,57
574,668	22,58
575,14	22,31
575,611	21,84
576,082	21,79
576,554	21,76
577,025	21,6
577,496	21,29
577,967	21,31
578,437	20,96
578,908	20,71
579,379	20,69
579,849	20,51
580,319	20,59
580,79	20,23
581,26	20,18
581,73	20,02
582,2	20,18
582,669	19,86
583,139	19,54
583,609	19,55
584,078	19,39
584,548	19,27
585,017	19,28
585,486	19,22
585,955	18,96
586,424	18,92
586,893	18,88
587,362	18,69
587,83	18,65
588,299	18,5
588,767	18,47
589,236	18,39
589,704	18,45
590,172	18,38
590,64	18,32
591,108	17,98
591,576	18,19
592,043	18,24
592,511	17,94
592,978	17,74
593,446	17,83
593,913	17,65
594,38	17,67
594,847	17,75
595,314	17,68
595,781	17,66
596,248	17,56
596,715	17,53
597,181	17,57
597,647	17,32
598,114	17,33
598,58	17,48
599,046	17,47
599,512	17,26
599,978	17,2
600,444	17,16
600,91	17,12
601,375	17,19
601,841	17,06
602,306	17,17
602,771	17,03
603,236	16,99
603,702	16,92
604,167	16,71
604,631	16,7
605,096	16,69
605,561	16,64
606,025	16,52
606,49	16,38
606,954	16,38
607,418	16,3
607,882	16,28
608,347	16,12
608,81	16,1
609,274	15,86
609,738	15,72
610,202	15,77
610,665	15,7
611,128	15,56
611,592	15,47
612,055	15,29
612,518	15,34
612,981	15,27
613,444	15,06
613,907	14,93
614,369	14,89
614,832	14,88
615,294	14,81
615,757	14,67
616,219	14,58
616,681	14,44
617,143	14,36
617,605	14,26
618,067	14,28
618,529	14,08
618,99	14,12
619,452	14,01
619,913	14,04
620,375	13,77
620,836	13,79
621,297	13,79
621,758	13,7
622,219	13,64
622,68	13,55
623,14	13,64
623,601	13,5
624,061	13,5
624,522	13,41
624,982	13,34
625,442	13,33
625,902	13,41
626,362	13,32
626,822	13,39
627,282	13,3
627,742	13,29
628,201	13,24
628,661	13,24
629,12	13,12
629,579	13,11
630,038	13,17
630,497	13,11
630,956	13,2
631,415	13
631,874	12,99
632,332	13,11
632,791	13,03
633,249	12,96
633,708	13,01
634,166	12,95
634,624	12,83
635,082	12,64
635,54	12,6
635,998	12,49
636,455	12,6
636,913	12,58
637,37	12,54
637,828	12,24
638,285	12,18
638,742	12,03
639,199	12,08
639,656	11,84
640,113	11,84
640,57	11,7
641,027	11,63
641,483	11,51
641,94	11,4
642,396	11,27
642,852	11,14
643,309	11,15
643,765	11
644,221	10,82
644,676	10,72
645,132	10,72
645,588	10,6
646,043	10,48
646,499	10,36
646,954	10,29
647,409	10,17
647,864	10,02
648,319	10
648,774	9,96
649,229	9,83
649,684	9,75
650,139	9,7
650,593	9,73
651,047	9,64
651,502	9,53
651,956	9,44
652,41	9,38
652,864	9,51
653,318	9,35
653,772	9,2
654,225	9,31
654,679	9,14
655,133	9,24
655,586	9,09
656,039	9,07
656,492	9,01
656,946	8,86
657,399	8,92
657,851	8,69
658,304	8,76
658,757	8,72
659,209	8,61
659,662	8,59
660,114	8,54
660,567	8,41
661,019	8,43
661,471	8,27
661,923	8,27
662,375	8,2
662,826	8,11
663,278	8,01
663,73	8,03
664,181	7,98
664,632	7,88
665,084	7,89
665,535	7,85
665,986	7,8
666,437	7,84
666,888	7,79
667,338	7,74
667,789	7,82
668,24	7,85
668,69	7,78
669,14	7,84
669,591	7,7
670,041	7,83
670,491	7,76
670,941	7,83
671,391	7,93
671,84	7,93
672,29	7,82
672,74	7,87
673,189	8,01
673,638	8,12
674,088	8,16
674,537	8,21
674,986	8,25
675,435	8,27
675,883	8,35
676,332	8,46
676,781	8,52
677,229	8,59
677,678	8,68
678,126	8,73
678,574	8,82
679,022	8,93
679,47	9,07
679,918	9,2
680,366	9,05
680,814	9,42
681,261	9,4
681,709	9,44
682,156	9,66
682,604	9,66
683,051	9,75
683,498	9,9
683,945	10,06
684,392	10,21
684,839	10,07
685,286	10,41
685,732	10,43
686,179	10,63
686,625	10,75
687,071	10,84
687,518	10,99
687,964	11,18
688,41	11,34
688,856	11,62
689,301	11,75
689,747	11,99
690,193	12,29
690,638	12,48
691,084	12,87
691,529	13,2
691,974	13,65
692,419	14,03
692,864	14,39
693,309	14,91
693,754	15,36
694,199	15,86
694,643	16,45
695,088	17,09
695,532	17,47
695,977	17,94
696,421	18,61
696,865	19,22
697,309	19,93
697,753	20,42
698,197	21,14
698,64	21,73
699,084	22,24
699,527	22,88
699,971	23,66
700,414	24,19
700,857	24,87
701,3	25,58
701,743	25,97
702,186	26,85
702,629	27,47
703,072	28,2
703,515	28,69
703,957	29,2
704,399	29,92
704,842	30,6
705,284	30,91
705,726	31,64
706,168	32,25
706,61	32,99
707,052	33,41
707,494	33,94
707,935	34,73
708,377	35,28
708,818	35,67
709,26	36,19
709,701	36,67
710,142	37
710,583	37,93
711,024	38,37
711,465	38,92
711,905	39,37
712,346	39,87
712,787	40,41
713,227	40,85
713,667	41,48
714,108	41,92
714,548	42,24
714,988	42,62
715,428	43,17
715,868	43,79
716,307	44,05
716,747	44,53
717,186	44,99
717,626	45,54
718,065	46,08
718,504	46,39
718,944	47,05
719,383	47,15
719,822	47,58
720,261	47,91
720,699	48,36
721,138	48,73
721,576	48,95
722,015	49,42
722,453	50,21
722,892	50,62
723,33	50,73
723,768	50,88
724,206	51,14
724,644	51,53
725,081	51,69
725,519	52,17
725,957	52,19
726,394	52,67
726,832	52,93
727,269	53,32
727,706	53,5
728,143	53,82
728,58	54,1
729,017	54,08
729,454	54,65
729,89	54,63
730,327	54,76
730,764	54,89
731,2	55,4
731,636	55,39
732,072	55,51
732,509	55,88
732,945	55,92
733,38	56,02
733,816	56,09
734,252	56,26
734,688	56,33
735,123	56,76
735,559	56,92
735,994	56,9
736,429	56,95
736,864	57
737,299	56,72
737,734	57,17
738,169	57,26
738,604	57,75
739,038	57,42
739,473	57,88
739,907	57,73
740,342	57,68
740,776	57,67
741,21	57,87
741,644	57,87
742,078	58,07
742,512	58,07
742,946	58,02
743,379	57,9
743,813	58,23
744,246	57,95
744,68	58,06
745,113	58,29
745,546	58,09
745,979	58,28
746,412	58,39
746,845	58,32
747,278	58,51
747,711	58,39
748,143	58,21
748,576	58,33
749,008	58,2
749,441	57,99
749,873	58,14
750,305	58,15
750,737	58,15
751,169	58,15
751,601	58,18
752,032	58,21
752,464	58,39
752,896	58,09
753,327	58,18
753,758	58,05
754,19	57,84
754,621	58,29
755,052	58,12
755,483	57,84
755,914	57,9
756,344	58,03
756,775	57,86
757,206	58,22
757,636	57,85
758,066	57,67
758,497	57,85
758,927	57,9
759,357	57,77
759,787	58,05
760,217	57,66
760,647	57,76
761,076	57,94
761,506	57,71
761,935	57,41
762,365	57,78
762,794	57,54
763,223	57,73
763,653	57,81
764,082	57,58
764,51	57,78
764,939	57,62
765,368	57,51
765,797	57,59
766,225	57,54
766,654	57,28
767,082	57,43
767,51	57,56
767,938	57,46
768,367	57,2
768,795	57,05
769,222	57,51
769,65	57,25
770,078	57,39
770,505	57,27
770,933	57,21
771,36	57,07
771,788	57,23
772,215	57,43
772,642	56,93
773,069	57,24
773,496	57,22
773,923	56,77
774,349	56,92
774,776	57,06
775,203	57,12
775,629	56,91
776,055	56,95
776,482	57,03
776,908	56,91
777,334	56,77
777,76	57,03
778,186	56,89
778,611	56,92
779,037	56,89
779,463	56,74
779,888	56,73
780,314	56,82
780,739	56,85
781,164	57,05
781,589	56,75
782,014	56,66
782,439	56,74
782,864	56,71
783,289	56,8
783,713	56,51
784,138	56,79
784,562	56,74
784,987	56,65
785,411	56,59
785,835	56,69
786,259	56,49
786,683	56,88
787,107	56,44
787,531	56,49
787,954	56,52
788,378	56,48
788,802	57
789,225	56,51
789,648	56,74
790,071	56,82
790,495	56,3
790,918	56,57
791,34	56,77
791,763	56,3
792,186	56,36
792,609	56,7
793,031	56,54
793,454	56,57
793,876	56,38
794,298	56,6
794,721	56,38
795,143	56,59
795,565	56,55
795,986	56,57
796,408	56,34
796,83	56,38
797,252	56,46
797,673	56,47
798,094	56,43
798,516	56,38
798,937	56,47
799,358	56,38
799,779	56,31
800,2	56,53
800,621	56,5
801,042	56,34
801,462	56,48
801,883	56,69
802,303	56,33
802,724	56,36
803,144	56,54
803,564	56,26
803,984	56,31
804,404	56,76
804,824	56,64
805,244	56,26
805,664	56,38
806,084	56,39
806,503	56,38
806,923	56,44
807,342	56,24
807,761	56,23
808,18	56,57
808,599	56,39
809,018	56,25
809,437	56,3
809,856	56,27
810,275	56,22
810,693	56,25
811,112	56,37
811,53	56,2
811,949	56,28
812,367	56,34
812,785	56,23
813,203	56,47
813,621	56,41
814,039	56,41
814,457	56,01
814,874	56,33
815,292	56,32
815,709	56,14
816,127	56,42
816,544	56,47
816,961	56,23
817,378	56,63
817,795	56,36
818,212	56,2
818,629	56,3
819,046	56,12
819,462	56,21
819,879	56,35
820,295	56
820,712	56,16
821,128	56,11
821,544	55,93
821,96	56,28
822,376	56,09
822,792	55,98
823,208	56,27
823,624	56,46
824,039	56,34
824,455	55,85
824,87	56,37
825,286	56,13
825,701	56,49
826,116	55,92
826,531	56,11
826,946	55,96
827,361	56
827,776	56,03
828,19	55,94
828,605	56,14
829,02	56,11
829,434	56,16
829,848	56,48
830,263	56,28
830,677	55,86
831,091	56,18
831,505	56,26
831,919	56,11
832,332	55,79
832,746	56,07
833,16	56,22
833,573	56,14
833,987	56,16
834,4	55,85
834,813	55,8
835,226	55,91
835,639	55,99
836,052	55,84
836,465	56,23
836,878	56,32
837,29	56,11
837,703	56
838,116	56,2
838,528	55,6
838,94	56,03
839,352	55,99
839,765	56,05
840,177	56,05
840,589	56,19
841	55,81
841,412	56,24
841,824	55,82
842,235	55,68
842,647	55,87
843,058	56,15
843,47	55,98
843,881	56
844,292	55,78
844,703	55,93
845,114	56,27
845,525	56,07
845,935	56,07
846,346	55,77
846,757	55,89
847,167	55,95
847,577	56,1
847,988	55,97
848,398	56,01
848,808	55,59
849,218	55,83
849,628	55,85
850,038	55,89
850,448	55,95
850,857	56,08
851,267	55,82
851,676	56,03
852,086	55,72
852,495	55,95
852,904	55,87
853,313	55,67
853,722	55,65
854,131	55,59
854,54	55,92
854,949	55,93
855,357	55,65
855,766	55,99
856,174	55,71
856,583	55,7
856,991	55,99
857,399	55,87
857,807	56,03
858,215	55,71
858,623	55,92
859,031	55,91
859,439	55,87
859,846	55,83
860,254	55,97
860,661	55,87
861,069	55,77
861,476	55,83
861,883	55,88
862,29	55,87
862,697	55,75
863,104	55,52
863,511	55,77
863,918	55,65
864,325	55,59
864,731	55,34
865,138	55,78
865,544	55,88
865,95	55,74
866,357	55,54
866,763	55,69
867,169	55,85
867,575	55,84
867,98	55,8
868,386	56,05
868,792	55,56
869,197	55,92
869,603	55,61
870,008	55,66
870,414	55,72
870,819	55,6
871,224	55,64
871,629	55,47
872,034	55,61
872,439	55,72
872,844	55,43
873,248	56,09
873,653	55,56
874,057	55,53
874,462	55,76
874,866	55,54
875,27	55,88
875,674	55,72
876,078	55,68
876,482	55,59
876,886	55,63
877,29	55,4
877,694	55,39
878,097	55,45
878,501	55,56
878,904	55,74
879,308	55,41
879,711	55,67
880,114	55,94
880,517	55,27
880,92	56
881,323	55,92
881,726	55,56
882,128	55,4
882,531	55,7
882,934	55,34
883,336	55,66
883,738	55,71
884,141	55,63
884,543	55,72
884,945	55,66
885,347	55,79
885,749	55,18
886,151	55,48
886,552	55,46
886,954	55,5
887,355	55,59
887,757	55,28
888,158	55,78
888,56	55,74
888,961	55,61
889,362	55,26
889,763	55,57
890,164	55,61
890,565	55,5
890,965	55,61
891,366	55,83
891,767	55,86
892,167	55,89
892,567	55,31
892,968	55,33
893,368	55,75
893,768	55,47
894,168	55,73
894,568	55,75
894,968	55,53
895,368	55,29
895,767	55,49
896,167	55,58
896,566	55,51
896,966	55,46
897,365	55,78
897,764	55,6
898,164	55,75
898,563	55,6
898,962	55,77
899,361	55,81
899,759	55,49
900,158	55,57
900,557	55,38
900,955	55,74
901,354	55,55
901,752	55,32
902,15	55,29
902,548	55,35
902,947	55,4
903,345	55,76
903,742	55,68
904,14	55,82
904,538	55,45
904,936	55,5
905,333	55,7
905,731	55,53
906,128	55,31
906,525	55,68
906,923	55,1
907,32	55,46
907,717	55,33
908,114	55,62
908,511	55,39
908,907	55,67
909,304	55,71
909,701	55,67
910,097	55,4
910,494	55,7
910,89	55,21
911,286	55,45
911,682	55,85
912,078	55,51
912,474	55,64
912,87	55,82
913,266	55,47
913,662	55,37
914,058	55,76
914,453	55,47
914,849	55,37
915,244	55,39
915,639	55,7
916,034	55,7
916,43	55,56
916,825	55,9
917,22	55,56
917,614	55,6
918,009	55,19
918,404	55,33
918,798	55,64
919,193	55,35
919,587	55,15
919,982	55,36
920,376	55,45
920,77	55,47
921,164	55,9
921,558	55,66
921,952	55,37
922,346	55,21
922,74	55,33
923,133	55,22
923,527	55,02
923,92	55,2
924,314	55,58
924,707	55,2
925,1	55,42
925,493	55,33
925,886	55,24
926,279	55,13
926,672	54,82
927,065	55,42
927,457	55,06
927,85	54,86
928,243	55,08
928,635	55,03
929,027	54,85
929,42	54,82
929,812	55,02
930,204	55,16
930,596	55,01
930,988	55,03
931,379	55,06
931,771	55,02
932,163	55,21
932,554	55,03
932,946	54,89
933,337	54,9
933,729	54,86
934,12	54,93
934,511	54,97
934,902	54,96
935,293	55,02
935,684	54,68
936,075	55,05
936,465	54,61
936,856	54,47
937,246	54,5
937,637	54,18
938,027	54,88
938,417	54,49
938,808	54,18
939,198	54,73
939,588	54,52
939,978	54,64
940,368	54,87
940,757	54,39
941,147	55,02
941,537	54,55
941,926	54,08
942,315	53,81
942,705	53,97
943,094	54,14
943,483	54,34
943,872	54,5
944,261	54,03
944,65	54,43
945,039	53,98
945,428	53,85
945,816	54,22
946,205	53,81
946,593	53,65
946,982	54,36
947,37	54,37
947,758	53,8
948,146	53,52
948,534	53,14
948,922	53,74
949,31	53,9
949,698	53,97
950,086	52,99
950,473	53,52
950,861	53,52
951,248	53,69
951,636	53,65
952,023	53,04
952,41	53,19
952,797	53,33
953,184	53,79
953,571	53,43
953,958	53
954,345	53,61
954,731	53,07
955,118	53,1
955,505	53,51
955,891	53,05
956,277	52,81
956,664	52,95
957,05	52,67
957,436	53,03
957,822	52,76
958,208	52,75
958,594	53,08
958,979	52,24
959,365	52,24
959,751	52,73
960,136	52,41
960,522	52,42
960,907	52,56
961,292	52,45
961,677	53,05
962,062	52,18
962,447	52,8
962,832	52,7
963,217	52,82
963,602	52,7
963,986	52,41
964,371	52,19
964,756	52,77
965,14	52,44
965,524	52,3
965,908	52,12
966,293	52,38
966,677	52,34
967,061	52,47
967,445	52,92
967,828	52,63
968,212	52,71
968,596	52,62
968,979	52,53
969,363	52,72
969,746	52,37
970,129	52,11
970,513	52,46
970,896	52,44
971,279	52,26
971,662	52,63
972,045	52,44
972,428	52,33
972,81	52,7
973,193	52,23
973,575	52,72
973,958	52,39
974,34	52,04
974,723	52,68
975,105	52,48
975,487	52,33
975,869	52,49
976,251	52,72
976,633	52,36
977,015	52,11
977,396	52,46
977,778	52,38
978,16	52,61
978,541	52,42
978,922	52,05
979,304	52,7
979,685	52,37
980,066	52,42
980,447	52,62
980,828	52,46
981,209	52,65
981,59	52,61
981,97	52,5
982,351	52,65
982,732	52,71
983,112	52,62
983,493	52,85
983,873	52,7
984,253	52,77
984,633	52,78
985,013	52,66
985,393	52,42
985,773	52,67
986,153	52,7
986,533	52,58
986,912	53,38
987,292	52,85
987,671	52,98
988,051	53,33
988,43	52,75
988,809	52,85
989,188	52,97
989,567	52,79
989,946	53,1
990,325	52,39
990,704	52,81
991,083	52,52
991,461	52,75
991,84	52,9
992,218	52,61
992,597	53,12
992,975	52,87
993,353	52,84
993,732	53,16
994,11	52,52
994,488	52,85
994,866	52,34
995,243	52,94
995,621	52,82
995,999	52,71
996,376	53,17
996,754	52,77
997,131	53,05
997,509	52,77
997,886	52,61
998,263	53,29
998,64	52,78
999,017	52,94
999,394	53,06
999,771	53,07
1000,148	53,26
1000,524	53
1000,901	53,14
1001,277	53,51
1001,654	53,09
1002,03	53,31
1002,406	53,43
1002,783	53,16
1003,159	53,25
1003,535	52,67
1003,911	53,54
1004,286	53,75
1004,662	52,83
1005,038	53,23
1005,414	53,15
1005,789	53,34
1006,164	52,86
1006,54	52,97
1006,915	53,03
1007,29	53,69
1007,665	52,78
1008,04	53,83
1008,415	53,17
1008,79	53,83
1009,165	53,77
1009,54	53,18
1009,914	54,09
1010,289	53,4
1010,663	54,02
1011,038	54,02
1011,412	53,5
1011,786	53,83
1012,16	53,89
1012,535	53,93
1012,909	53,83
1013,282	53,87
1013,656	53,5
1014,03	53,43
1014,404	53,47
1014,777	53,74
1015,151	54,2
1015,524	54,05
1015,897	53,68
1016,271	53,82
1016,644	53,94
1017,017	54,09
1017,39	54,29
1017,763	53,56
1018,136	53,56
1018,508	53,56
1018,881	54,16
1019,254	53,68
1019,626	53,69
1019,999	53,87
1020,371	53,67
1020,743	54,16
1021,116	53,96
1021,488	54,1
1021,86	54,31
1022,232	54,3
1022,604	53,77
1022,975	54,32
1023,347	54,19
1023,719	54,22
1024,09	54,42
1024,462	54,28
1024,833	53,74
1025,204	54,21
1025,576	54,31
1025,947	53,7
1026,318	54,86
1026,689	54,54
1027,06	54,03
1027,431	53,71
1027,801	54,28
1028,172	54,66
1028,543	54,11
1028,913	54,19
1029,284	54,55
1029,654	54,28
1030,024	54,51
1030,394	54,4
1030,764	54,39
1031,135	54,55
1031,504	54,47
1031,874	54,42
1032,244	55,01
1032,614	54,65
1032,983	54,15
1033,353	54,33
1033,722	54,35
1034,092	54,72
1034,461	55,27
1034,83	54,7
1035,2	54,33
1035,569	54,48
1035,938	53,98
1036,307	54,99
1036,675	55,09
1037,044	55,12
1037,413	54,85
1037,781	54,87
1038,15	55,17
1038,518	54,54
1038,887	54,99
1039,255	55,23
1039,623	54,54
1039,991	54,87
1040,359	55,43
1040,727	56,02
1041,095	54,88
1041,463	55,12
1041,831	54,45
1042,198	54,95
1042,566	54,39
1042,933	54,55
1043,301	55,09
1043,668	54,72
1044,035	55,31
1044,402	55,9
1044,77	55,53
1045,137	55,02
1045,503	55,11
1045,87	54,8
1046,237	55,13
1046,604	54,97
1046,97	55,74
1047,337	54,71
1047,703	55,31
1048,07	55,11
1048,436	55,23
1048,802	55,26
1049,168	55,27
1049,534	55,63
1049,9	55,11
1050,266	55,04
1050,632	55,16
1050,998	55,21
1051,364	55,6
1051,729	55,34
1052,095	54,79
1052,46	55,59
1052,825	56,14
1053,191	55
1053,556	55,62
1053,921	55,69
1054,286	55,61
1054,651	55,25
1055,016	54,58
1055,381	55,54
1055,745	55,88
1056,11	54,7
1056,475	56,29
1056,839	56,74
1057,203	55,06
1057,568	55,64
1057,932	56,17
1058,296	55,61
1058,66	55,83
1059,024	55,19
1059,388	56,16
1059,752	55,98
1060,116	55,32
1060,48	56,24
1060,843	55,85
1061,207	55,71
1061,57	57,63
1061,934	56,11
1062,297	54,66
1062,66	54,67
1063,023	55,74
1063,386	55,96
1063,749	56,36
1064,112	56,39
1064,475	56,97
1064,838	55,71
1065,201	56,14
1065,563	56,2
1065,926	55,62
1066,288	55,88
1066,651	55,67
1067,013	54,9
1067,375	56,65
1067,737	55,15
1068,099	55,7
1068,461	56,33
1068,823	55,46
1069,185	55,3
1069,547	55,47
1069,909	56,27
1070,27	55,92
1070,632	54,98
1070,993	55,42
1071,355	54,85
1071,716	54,51
1072,077	55,59
1072,438	56,38
1072,799	56,28
1073,16	56,31
1073,521	56,88
1073,882	55,2
1074,243	55,62
1074,603	57,33
1074,964	55,88
1075,325	56,22
1075,685	55,79
1076,045	55,97
1076,406	56,62
1076,766	54,94
1077,126	55,76
1077,486	56,1
1077,846	56,14
1078,206	54,91
1078,566	55,61
1078,925	56,53
1079,285	56
1079,645	55,59
1080,004	56,19
1080,364	56,96
1080,723	57,21
1081,082	56,22
1081,442	56,06
1081,801	55,41
1082,16	56,39
1082,519	55,33
1082,878	55,38
1083,237	56,62
1083,595	55,37
1083,954	57,33
1084,313	55,81
1084,671	56,37
1085,03	57,09
1085,388	55,02
1085,746	55,83
1086,104	54,98
1086,463	56,4
1086,821	56,8
1087,179	57,24
1087,537	56,52
1087,894	55,38
1088,252	57,85
1088,61	58,22
1088,967	55,22
1089,325	56,23
1089,682	56,66
1090,04	55,99
1090,397	55,29
1090,754	56,91
1091,111	56,84
1091,469	56,74
1091,826	55,51
1092,182	55,49
1092,539	57,49
1092,896	55,5
1093,253	55,79
1093,609	54,86
1093,966	54,9
1094,322	55,97
1094,679	56,3
1095,035	56,71
1095,391	56,6
1095,748	54,82
1096,104	56,74
1096,46	56,06
1096,816	57,36
1097,171	56,25
1097,527	58,12
1097,883	57,37
1098,239	56,96
1098,594	57,4
1098,95	56,94
1099,305	55,43
1099,66	56,26
1100,016	57,3
1100,371	56,2
1100,726	55,46
1101,081	56,89
1101,436	57,14
1101,791	58,28
1102,146	56,22
1102,5	56,14
1102,855	56,1
1103,21	58,07
1103,564	58,14
1103,918	56,49
1104,273	57,46
1104,627	56,31
1104,981	56,12
1105,335	56,25
1105,69	55,31
1106,043	56,82
1106,397	58,86
1106,751	56,67
1107,105	56,47
1107,459	56,88
1107,812	58,78
1108,166	58,1
1108,519	57,33
1108,873	57,3
1109,226	56,44
1109,579	57,67
1109,932	56,72
1110,285	56,89
1110,638	59,4
1110,991	58,38
1111,344	57,25
1111,697	56,66
1112,05	57,27
1112,402	59,45
1112,755	57,86
1113,107	57,76
1113,46	57,26
1113,812	57,83
1114,164	58,33
1114,517	56,59
1114,869	94,25
1115,221	83,28
1115,573	77,82
1115,924	78,02
