Data from E6__Relative__4__00089.txt Node

Date: Tue Jan 30 17:59:23 CET 2024
User: diatiterra
Spectrometer: HDX00911
Trigger mode: 0
Integration Time (sec): 6,000000E-3
Scans to average: 3
Nonlinearity correction enabled: true
Boxcar width: 0
Storing dark spectrum: false
XAxis mode: Wavelengths
Number of Pixels in Spectrum: 2068
>>>>>Begin Spectral Data<<<<<
194,468	102,98
195,025	80,29
195,581	77,44
196,138	72,21
196,694	73,07
197,251	59,41
197,807	63,66
198,363	58,7
198,919	62,4
199,474	58,33
200,03	62,26
200,586	56,16
201,141	55,46
201,696	54,36
202,251	55,8
202,806	59,67
203,361	53,91
203,916	55,81
204,471	61,03
205,025	56,87
205,58	60,2
206,134	56,54
206,688	54,01
207,242	57,16
207,796	57,92
208,35	56,9
208,904	54,84
209,457	60,14
210,011	57,59
210,564	53,06
211,117	61,88
211,67	58,12
212,223	59,95
212,776	59,87
213,329	60,52
213,881	57,86
214,434	60,15
214,986	58,67
215,538	58,12
216,09	56,79
216,642	56,58
217,194	53,28
217,746	57,74
218,297	53,77
218,849	61,16
219,4	59,41
219,951	58,05
220,502	57,94
221,053	51,13
221,604	60,38
222,155	63,44
222,705	58,63
223,256	57,42
223,806	58,99
224,356	57,74
224,906	54,99
225,456	58,92
226,006	52,82
226,556	56,04
227,106	59,19
227,655	53,22
228,204	57,65
228,754	62,34
229,303	58,66
229,852	57,18
230,401	63,75
230,949	61,77
231,498	57,65
232,047	55,11
232,595	59,32
233,143	56,78
233,691	59,03
234,239	55,61
234,787	58,48
235,335	60,49
235,883	57,96
236,43	59,21
236,978	56,3
237,525	59,75
238,072	58,57
238,619	55
239,166	55,83
239,713	53,54
240,26	57,81
240,806	57,75
241,353	56,22
241,899	56,63
242,445	61,52
242,991	57,08
243,537	58,14
244,083	61,05
244,629	62,42
245,174	55,27
245,72	59,06
246,265	63,27
246,81	61,15
247,355	58,31
247,9	55,77
248,445	61,56
248,99	58,92
249,534	56,92
250,079	60,14
250,623	55,5
251,168	65,28
251,712	56,89
252,256	49,16
252,8	56,43
253,343	57,47
253,887	50,98
254,43	63,67
254,974	61,07
255,517	57,73
256,06	59,42
256,603	66,74
257,146	58,39
257,689	63,16
258,232	54,76
258,774	59,01
259,317	58,45
259,859	56,02
260,401	62,42
260,943	59,96
261,485	57,93
262,027	59,78
262,569	57,22
263,11	53,18
263,652	54,28
264,193	57,3
264,734	52,66
265,275	55,19
265,816	52,49
266,357	58,54
266,898	54,33
267,438	54,04
267,979	58,28
268,519	56,17
269,059	55,36
269,6	60
270,14	56,95
270,68	57,08
271,219	59,23
271,759	58,33
272,298	50,97
272,838	60,13
273,377	55,55
273,916	60,92
274,455	57,08
274,994	59,83
275,533	55,33
276,072	55,71
276,61	57,66
277,149	50,74
277,687	55,68
278,225	51,66
278,763	55,73
279,301	49,36
279,839	58,87
280,377	57,48
280,914	58,69
281,452	60,97
281,989	60,11
282,526	53,36
283,064	63,66
283,601	56,15
284,137	56,45
284,674	55,91
285,211	63,58
285,747	57,39
286,284	56,17
286,82	55,55
287,356	58,04
287,892	58,54
288,428	56,39
288,964	56,43
289,5	59,31
290,035	57,85
290,571	55,75
291,106	62,07
291,641	53,63
292,176	55,3
292,711	52,91
293,246	57,23
293,781	54,14
294,315	53,58
294,85	59,69
295,384	60,58
295,918	53,58
296,453	54,05
296,987	59,53
297,52	54,97
298,054	57,02
298,588	58,93
299,121	54,53
299,655	57,51
300,188	54,58
300,721	52,2
301,254	59,09
301,787	59,96
302,32	60,96
302,853	54,39
303,385	51,78
303,918	61,02
304,45	56,8
304,982	59,1
305,514	55,73
306,046	57,68
306,578	57,33
307,11	56,29
307,641	59,06
308,173	54,73
308,704	60,06
309,236	58,48
309,767	50,85
310,298	52,28
310,829	52,25
311,359	58,09
311,89	55,28
312,421	55,67
312,951	55,29
313,481	61,48
314,012	55,79
314,542	52,08
315,072	54,8
315,601	51,91
316,131	57,18
316,661	55,14
317,19	53,36
317,72	54,05
318,249	59,49
318,778	57,55
319,307	50,45
319,836	57,72
320,365	57,72
320,893	58,46
321,422	51,52
321,95	55,2
322,479	56,23
323,007	50,21
323,535	49,67
324,063	54,25
324,591	55,69
325,118	58,25
325,646	53,83
326,173	55,99
326,701	58,17
327,228	56,45
327,755	62,58
328,282	53,42
328,809	51,54
329,336	56,57
329,862	53,04
330,389	53
330,915	52,33
331,441	56,24
331,968	55,86
332,494	49,29
333,02	57,64
333,545	57,88
334,071	45,56
334,597	49,89
335,122	56,9
335,648	55,2
336,173	56,25
336,698	54,41
337,223	52,86
337,748	54,85
338,272	50,55
338,797	55,73
339,322	56,22
339,846	51,54
340,37	52,25
340,894	52,78
341,419	51,77
341,942	52,52
342,466	50,8
342,99	53,1
343,514	46,41
344,037	49,43
344,56	50,29
345,084	45,26
345,607	50,7
346,13	46,72
346,653	45,16
347,175	47,13
347,698	52,54
348,221	46
348,743	46,7
349,265	48,05
349,787	48,46
350,309	45,69
350,831	47,73
351,353	44,43
351,875	44,14
352,397	41,3
352,918	47,24
353,439	49,28
353,961	43,58
354,482	42,56
355,003	38,66
355,524	43,09
356,044	40,2
356,565	40,85
357,086	48,81
357,606	44,6
358,126	45,53
358,646	44,09
359,167	43,03
359,687	43,78
360,206	42,12
360,726	47,29
361,246	43,09
361,765	44,17
362,285	43,15
362,804	42,27
363,323	42,49
363,842	45,48
364,361	42,93
364,88	46,55
365,398	39,59
365,917	42,38
366,435	41,76
366,954	43,1
367,472	39,48
367,99	41,33
368,508	38,27
369,026	37,89
369,544	41,42
370,061	40,44
370,579	39,67
371,096	38,18
371,613	42,72
372,131	42,31
372,648	41,29
373,165	37,18
373,681	40,05
374,198	39,46
374,715	37,89
375,231	38,8
375,747	37,02
376,264	34,14
376,78	37,43
377,296	38,72
377,812	37,05
378,327	37,32
378,843	35,5
379,359	37,68
379,874	36,16
380,389	33,31
380,905	38,58
381,42	35,17
381,935	36,27
382,449	33,25
382,964	34,36
383,479	33,56
383,993	33,96
384,508	32,57
385,022	32,48
385,536	32,52
386,05	33,39
386,564	31,33
387,078	30,3
387,592	31,44
388,105	29,18
388,619	29,02
389,132	29,61
389,645	28,67
390,158	27,03
390,671	28,94
391,184	27,45
391,697	25,34
392,21	27,51
392,722	27,53
393,235	26,2
393,747	25,85
394,259	24,84
394,771	26,95
395,283	25,9
395,795	25,73
396,307	26,17
396,818	25,36
397,33	25,75
397,841	24,21
398,353	23,71
398,864	24,07
399,375	23,74
399,886	22,51
400,397	20,68
400,907	20,49
401,418	20,44
401,928	21,62
402,439	21,58
402,949	18,96
403,459	19,17
403,969	20,06
404,479	18,55
404,989	16,96
405,498	17,2
406,008	18,23
406,517	17,63
407,027	15,7
407,536	15,27
408,045	14,52
408,554	14,68
409,063	14,21
409,572	13,14
410,08	13,04
410,589	12,42
411,097	12,33
411,606	12,3
412,114	11,61
412,622	10,65
413,13	11,1
413,638	11,36
414,145	10,29
414,653	10,08
415,16	9,61
415,668	9,72
416,175	9,74
416,682	8,68
417,189	8,87
417,696	8,65
418,203	8,42
418,71	8,69
419,216	8,55
419,723	8,05
420,229	7,79
420,735	8,16
421,242	7,55
421,748	7,38
422,254	7,12
422,759	7,43
423,265	7,32
423,771	7,17
424,276	7,07
424,781	7
425,287	7,08
425,792	6,96
426,297	6,43
426,802	6,74
427,306	6,92
427,811	6,47
428,316	6,94
428,82	6,67
429,324	6,72
429,829	6
430,333	6,3
430,837	6,46
431,34	6,17
431,844	6,37
432,348	6,23
432,851	5,97
433,355	6,32
433,858	6,24
434,361	6,03
434,864	6,17
435,367	5,88
435,87	6,08
436,373	6,17
436,876	5,81
437,378	5,82
437,88	5,64
438,383	5,89
438,885	6,02
439,387	6,16
439,889	5,9
440,391	5,78
440,892	5,97
441,394	5,96
441,896	5,8
442,397	5,95
442,898	6,09
443,399	5,81
443,9	5,91
444,401	5,84
444,902	6,06
445,403	5,84
445,903	5,82
446,404	5,82
446,904	5,87
447,405	6,15
447,905	5,87
448,405	6,07
448,905	6,4
449,404	6,11
449,904	6,1
450,404	6,39
450,903	6,29
451,403	5,96
451,902	6,47
452,401	6,45
452,9	6,35
453,399	6,54
453,898	6,68
454,396	6,53
454,895	6,59
455,393	6,35
455,892	6,88
456,39	6,57
456,888	6,48
457,386	6,91
457,884	6,74
458,382	6,74
458,879	6,85
459,377	6,72
459,874	6,86
460,372	6,65
460,869	6,51
461,366	6,87
461,863	6,42
462,36	6,73
462,857	6,57
463,353	6,7
463,85	6,72
464,346	6,88
464,843	6,64
465,339	7,19
465,835	6,81
466,331	6,66
466,827	6,58
467,323	6,7
467,818	6,53
468,314	6,62
468,809	6,48
469,305	6,39
469,8	6,68
470,295	6,52
470,79	6,49
471,285	6,71
471,78	6,69
472,274	6,42
472,769	6,77
473,263	6,72
473,758	6,69
474,252	6,88
474,746	6,58
475,24	6,72
475,734	6,75
476,228	6,68
476,721	6,71
477,215	6,7
477,708	6,9
478,202	6,9
478,695	6,74
479,188	6,76
479,681	6,95
480,174	6,98
480,667	7,11
481,159	6,99
481,652	6,83
482,144	6,72
482,637	6,89
483,129	6,78
483,621	6,97
484,113	6,93
484,605	7,05
485,097	7,14
485,588	6,98
486,08	7,13
486,571	7,02
487,063	7,12
487,554	7,22
488,045	7,27
488,536	7,29
489,027	7,24
489,518	7,45
490,008	7,44
490,499	7,49
490,989	7,48
491,48	7,65
491,97	7,77
492,46	7,74
492,95	7,95
493,44	7,72
493,93	7,88
494,419	8,03
494,909	8,08
495,398	8,24
495,888	8,29
496,377	8,43
496,866	8,46
497,355	8,67
497,844	8,74
498,333	8,9
498,821	8,86
499,31	9,02
499,798	9,16
500,287	9,22
500,775	9,62
501,263	9,87
501,751	9,94
502,239	9,96
502,727	10,47
503,215	10,22
503,702	10,45
504,19	10,68
504,677	10,92
505,164	11,27
505,651	11,15
506,139	11,55
506,625	11,78
507,112	11,99
507,599	12,28
508,086	12,39
508,572	13,1
509,058	12,9
509,545	13,09
510,031	13,38
510,517	13,72
511,003	14,02
511,489	14,47
511,974	14,64
512,46	14,73
512,946	15,05
513,431	15,49
513,916	15,72
514,401	16,06
514,887	16,25
515,371	16,73
515,856	16,82
516,341	17,23
516,826	17,65
517,31	17,75
517,795	18,05
518,279	18,94
518,763	18,63
519,247	19,22
519,731	19,51
520,215	19,99
520,699	20,15
521,182	20,49
521,666	21,15
522,149	21,11
522,633	21,58
523,116	21,94
523,599	22,08
524,082	22,53
524,565	22,85
525,048	22,89
525,53	23,11
526,013	23,24
526,495	23,69
526,978	23,44
527,46	24,17
527,942	24,51
528,424	24,56
528,906	25,03
529,388	24,96
529,87	25,72
530,351	25,44
530,833	25,68
531,314	25,47
531,795	25,65
532,277	26,18
532,758	26,35
533,238	26,46
533,719	26,44
534,2	26,57
534,681	26,81
535,161	26,89
535,642	27,02
536,122	27,16
536,602	26,92
537,082	27,11
537,562	27,04
538,042	27,56
538,522	27,12
539,001	27,26
539,481	27,55
539,96	27,55
540,44	27,23
540,919	27,63
541,398	27,4
541,877	28
542,356	27,79
542,835	28,21
543,313	27,7
543,792	28,15
544,27	27,68
544,749	28,17
545,227	27,66
545,705	28,27
546,183	28,29
546,661	28,21
547,139	28,17
547,616	27,98
548,094	28,05
548,571	28,41
549,049	28,27
549,526	28,18
550,003	28,31
550,48	28,44
550,957	28,41
551,434	28,33
551,911	28,57
552,387	28,62
552,864	28,27
553,34	28,31
553,817	28,69
554,293	28,35
554,769	28,84
555,245	28,24
555,721	28,4
556,197	28,55
556,672	28,6
557,148	28,45
557,623	28,4
558,099	28,43
558,574	28,43
559,049	28,71
559,524	28,23
559,999	28,06
560,474	28,28
560,948	28,29
561,423	27,89
561,897	27,91
562,372	27,94
562,846	28,13
563,32	27,69
563,794	27,87
564,268	27,61
564,742	27,64
565,216	27,49
565,69	27,26
566,163	27,18
566,636	27,1
567,11	26,98
567,583	26,58
568,056	26,53
568,529	26,37
569,002	26,31
569,475	26,26
569,947	26,07
570,42	25,97
570,892	25,57
571,365	25,65
571,837	25,23
572,309	25,1
572,781	24,77
573,253	24,92
573,725	24,61
574,197	24,42
574,668	24,76
575,14	24,24
575,611	24,04
576,082	23,89
576,554	23,92
577,025	23,77
577,496	23,27
577,967	23,47
578,437	23,3
578,908	23,12
579,379	22,96
579,849	22,77
580,319	22,91
580,79	22,45
581,26	22,37
581,73	22,24
582,2	22,26
582,669	22,12
583,139	21,91
583,609	21,78
584,078	21,91
584,548	21,79
585,017	21,76
585,486	21,39
585,955	21,33
586,424	21,42
586,893	21,29
587,362	21,03
587,83	20,89
588,299	20,74
588,767	20,73
589,236	20,66
589,704	20,55
590,172	20,8
590,64	20,53
591,108	20,51
591,576	20,47
592,043	20,42
592,511	20,31
592,978	20,16
593,446	20,08
593,913	19,87
594,38	19,96
594,847	19,98
595,314	19,81
595,781	19,89
596,248	19,76
596,715	19,78
597,181	19,69
597,647	19,7
598,114	19,62
598,58	19,6
599,046	19,74
599,512	19,51
599,978	19,51
600,444	19,45
600,91	19,6
601,375	19,57
601,841	19,47
602,306	19,46
602,771	19,21
603,236	19,08
603,702	19,18
604,167	19,28
604,631	19,02
605,096	18,93
605,561	18,97
606,025	18,67
606,49	18,62
606,954	18,53
607,418	18,64
607,882	18,52
608,347	18,32
608,81	18,36
609,274	18,23
609,738	18,21
610,202	18,05
610,665	17,93
611,128	17,93
611,592	17,84
612,055	17,83
612,518	17,59
612,981	17,62
613,444	17,4
613,907	17,38
614,369	17,16
614,832	17,18
615,294	16,98
615,757	17,11
616,219	16,94
616,681	16,9
617,143	16,64
617,605	16,58
618,067	16,33
618,529	16,48
618,99	16,29
619,452	16,41
619,913	16,33
620,375	16,09
620,836	16,07
621,297	16,02
621,758	15,96
622,219	15,79
622,68	15,88
623,14	15,9
623,601	15,8
624,061	15,7
624,522	15,66
624,982	15,63
625,442	15,68
625,902	15,64
626,362	15,47
626,822	15,47
627,282	15,58
627,742	15,32
628,201	15,51
628,661	15,45
629,12	15,35
629,579	15,2
630,038	15,32
630,497	15,43
630,956	15,25
631,415	15,33
631,874	15,26
632,332	15,22
632,791	15,29
633,249	15,15
633,708	15,12
634,166	15,08
634,624	14,99
635,082	14,88
635,54	14,83
635,998	14,45
636,455	14,4
636,913	14,52
637,37	14,29
637,828	14,22
638,285	13,97
638,742	13,94
639,199	13,92
639,656	13,55
640,113	13,55
640,57	13,47
641,027	13,32
641,483	13,18
641,94	13
642,396	12,97
642,852	12,67
643,309	12,57
643,765	12,42
644,221	12,06
644,676	12,17
645,132	12
645,588	11,9
646,043	11,77
646,499	11,59
646,954	11,45
647,409	11,21
647,864	11,09
648,319	11,01
648,774	10,91
649,229	10,65
649,684	10,78
650,139	10,67
650,593	10,45
651,047	10,4
651,502	10,44
651,956	10,33
652,41	10,21
652,864	10,19
653,318	10,2
653,772	10,1
654,225	10,1
654,679	9,95
655,133	9,87
655,586	9,83
656,039	9,69
656,492	9,81
656,946	9,64
657,399	9,45
657,851	9,41
658,304	9,37
658,757	9,14
659,209	9,08
659,662	9,06
660,114	8,88
660,567	8,86
661,019	8,71
661,471	8,68
661,923	8,59
662,375	8,31
662,826	8,24
663,278	8,1
663,73	8,08
664,181	7,93
664,632	7,85
665,084	7,77
665,535	7,69
665,986	7,75
666,437	7,54
666,888	7,55
667,338	7,42
667,789	7,28
668,24	7,41
668,69	7,3
669,14	7,31
669,591	7,16
670,041	7,27
670,491	7,24
670,941	7,25
671,391	7,26
671,84	7,2
672,29	7,18
672,74	7,29
673,189	7,28
673,638	7,25
674,088	7,37
674,537	7,4
674,986	7,52
675,435	7,54
675,883	7,67
676,332	7,71
676,781	7,79
677,229	7,88
677,678	7,98
678,126	8,1
678,574	8,19
679,022	8,28
679,47	8,36
679,918	8,48
680,366	8,58
680,814	8,69
681,261	8,86
681,709	9,08
682,156	9,27
682,604	9,38
683,051	9,57
683,498	9,77
683,945	9,94
684,392	10,11
684,839	10,31
685,286	10,51
685,732	10,85
686,179	11,02
686,625	11,13
687,071	11,57
687,518	11,89
687,964	12,03
688,41	12,5
688,856	12,89
689,301	13,27
689,747	13,65
690,193	14,01
690,638	14,59
691,084	14,91
691,529	15,43
691,974	16,07
692,419	16,42
692,864	16,9
693,309	17,3
693,754	18,04
694,199	18,58
694,643	18,96
695,088	19,66
695,532	20,25
695,977	20,67
696,421	21,22
696,865	21,65
697,309	22,35
697,753	22,9
698,197	23,41
698,64	23,75
699,084	24,24
699,527	24,99
699,971	25,35
700,414	25,73
700,857	26,31
701,3	26,69
701,743	27,13
702,186	27,67
702,629	28,05
703,072	28,35
703,515	28,8
703,957	29,13
704,399	29,67
704,842	30,06
705,284	30,06
705,726	30,56
706,168	30,84
706,61	31,37
707,052	31,54
707,494	31,63
707,935	32,15
708,377	32,53
708,818	32,9
709,26	33,06
709,701	33,29
710,142	33,71
710,583	33,82
711,024	34,09
711,465	34,57
711,905	34,7
712,346	34,82
712,787	34,95
713,227	35,25
713,667	35,86
714,108	35,82
714,548	35,87
714,988	36,22
715,428	36,4
715,868	36,72
716,307	36,67
716,747	37,13
717,186	37,21
717,626	37,26
718,065	37,88
718,504	37,7
718,944	38,11
719,383	38,04
719,822	38,24
720,261	38,42
720,699	38,56
721,138	38,51
721,576	38,83
722,015	38,99
722,453	39,28
722,892	39,41
723,33	39,58
723,768	39,74
724,206	39,73
724,644	39,69
725,081	39,89
725,519	39,88
725,957	39,9
726,394	40,23
726,832	40,25
727,269	40,5
727,706	40,39
728,143	40,62
728,58	40,61
729,017	40,57
729,454	40,95
729,89	41,16
730,327	40,71
730,764	40,93
731,2	41,21
731,636	41,17
732,072	41,21
732,509	41,43
732,945	41,27
733,38	41,46
733,816	41,21
734,252	41,28
734,688	41,08
735,123	41,24
735,559	41,54
735,994	41,56
736,429	41,47
736,864	41,46
737,299	41,55
737,734	41,84
738,169	41,57
738,604	41,65
739,038	41,54
739,473	41,47
739,907	41,71
740,342	41,71
740,776	41,53
741,21	41,87
741,644	41,51
742,078	41,66
742,512	41,66
742,946	41,76
743,379	41,64
743,813	41,66
744,246	41,54
744,68	41,39
745,113	41,48
745,546	41,49
745,979	41,48
746,412	41,4
746,845	41,5
747,278	41,66
747,711	41,47
748,143	41,35
748,576	41,33
749,008	41,32
749,441	41,32
749,873	41,27
750,305	41,19
750,737	41,3
751,169	41,32
751,601	41,31
752,032	41,03
752,464	41,2
752,896	41,18
753,327	41,09
753,758	40,87
754,19	41,27
754,621	41,06
755,052	40,94
755,483	40,66
755,914	40,84
756,344	41,04
756,775	40,8
757,206	41,02
757,636	40,73
758,066	40,77
758,497	40,63
758,927	40,58
759,357	40,53
759,787	40,77
760,217	40,6
760,647	40,35
761,076	40,64
761,506	40,66
761,935	40,34
762,365	40,42
762,794	40,3
763,223	40,36
763,653	40,48
764,082	40,26
764,51	40,37
764,939	40,11
765,368	40,23
765,797	40,35
766,225	40,25
766,654	40,08
767,082	40,12
767,51	40,03
767,938	40,24
768,367	39,99
768,795	40,14
769,222	39,99
769,65	40,17
770,078	40,02
770,505	39,78
770,933	39,95
771,36	39,78
771,788	39,86
772,215	40,09
772,642	39,78
773,069	39,83
773,496	39,82
773,923	39,83
774,349	39,73
774,776	39,56
775,203	39,65
775,629	39,6
776,055	39,73
776,482	39,75
776,908	39,75
777,334	39,8
777,76	39,61
778,186	39,61
778,611	39,7
779,037	39,65
779,463	39,53
779,888	39,58
780,314	39,43
780,739	39,7
781,164	39,37
781,589	39,36
782,014	39,5
782,439	39,48
782,864	39,43
783,289	39,64
783,713	39,52
784,138	39,48
784,562	39,38
784,987	39,37
785,411	39,32
785,835	39,43
786,259	39,45
786,683	39,45
787,107	39,34
787,531	39,42
787,954	39,34
788,378	39,49
788,802	39,43
789,225	39,28
789,648	39,39
790,071	39,32
790,495	39,16
790,918	39,33
791,34	39,42
791,763	39,19
792,186	39,22
792,609	39,27
793,031	38,99
793,454	39,25
793,876	39,34
794,298	39,39
794,721	39
795,143	39,43
795,565	39,19
795,986	39,33
796,408	39
796,83	39,12
797,252	39,07
797,673	39,35
798,094	39,06
798,516	39,12
798,937	38,97
799,358	39,2
799,779	39,12
800,2	39,23
800,621	39,23
801,042	39,1
801,462	39,11
801,883	39,26
802,303	39,14
802,724	39,08
803,144	39,13
803,564	39,1
803,984	39,16
804,404	39,11
804,824	39,25
805,244	39,15
805,664	39,19
806,084	38,93
806,503	39,01
806,923	39,25
807,342	38,91
807,761	38,97
808,18	39,08
808,599	38,98
809,018	38,99
809,437	39,14
809,856	38,71
810,275	38,96
810,693	39,12
811,112	38,94
811,53	38,89
811,949	39,4
812,367	38,95
812,785	39,13
813,203	39,02
813,621	39,07
814,039	38,99
814,457	38,78
814,874	39,16
815,292	39,11
815,709	38,85
816,127	39,17
816,544	39,11
816,961	39,1
817,378	39,12
817,795	39,05
818,212	38,89
818,629	38,88
819,046	39,01
819,462	39,02
819,879	39,22
820,295	38,9
820,712	38,76
821,128	39,05
821,544	39,03
821,96	38,94
822,376	38,92
822,792	39,01
823,208	38,86
823,624	38,94
824,039	38,85
824,455	38,74
824,87	38,96
825,286	38,79
825,701	38,96
826,116	38,77
826,531	38,79
826,946	38,94
827,361	38,7
827,776	38,84
828,19	38,87
828,605	38,75
829,02	38,93
829,434	38,88
829,848	38,89
830,263	38,74
830,677	38,99
831,091	38,99
831,505	38,91
831,919	38,85
832,332	38,66
832,746	38,73
833,16	38,77
833,573	38,93
833,987	38,87
834,4	38,67
834,813	38,86
835,226	38,77
835,639	38,83
836,052	38,61
836,465	38,74
836,878	38,93
837,29	38,91
837,703	38,79
838,116	38,69
838,528	38,61
838,94	38,67
839,352	38,71
839,765	38,72
840,177	38,84
840,589	38,82
841	38,73
841,412	38,74
841,824	38,78
842,235	38,67
842,647	38,63
843,058	38,74
843,47	38,77
843,881	38,55
844,292	38,58
844,703	38,8
845,114	38,84
845,525	38,7
845,935	38,58
846,346	38,77
846,757	38,5
847,167	38,67
847,577	38,77
847,988	38,46
848,398	38,72
848,808	38,47
849,218	38,48
849,628	38,61
850,038	38,63
850,448	38,64
850,857	38,68
851,267	38,66
851,676	38,65
852,086	38,8
852,495	38,59
852,904	38,68
853,313	38,34
853,722	38,52
854,131	38,53
854,54	38,7
854,949	38,64
855,357	38,45
855,766	38,71
856,174	38,53
856,583	38,49
856,991	38,64
857,399	38,68
857,807	38,64
858,215	38,7
858,623	38,63
859,031	38,58
859,439	38,42
859,846	38,78
860,254	38,62
860,661	38,59
861,069	38,51
861,476	38,48
861,883	38,61
862,29	38,55
862,697	38,49
863,104	38,49
863,511	38,47
863,918	38,36
864,325	38,34
864,731	38,15
865,138	38,45
865,544	38,73
865,95	38,5
866,357	38,42
866,763	38,55
867,169	38,54
867,575	38,46
867,98	38,7
868,386	38,63
868,792	38,63
869,197	38,51
869,603	38,3
870,008	38,51
870,414	38,41
870,819	38,19
871,224	38,44
871,629	38,31
872,034	38,61
872,439	38,29
872,844	38,51
873,248	38,32
873,653	38,53
874,057	38,37
874,462	38,52
874,866	38,38
875,27	38,26
875,674	38,64
876,078	38,49
876,482	38,25
876,886	38,46
877,29	38,19
877,694	38,37
878,097	38,12
878,501	38,08
878,904	38,11
879,308	38,36
879,711	38,2
880,114	38,42
880,517	38,57
880,92	38,45
881,323	38,52
881,726	38,32
882,128	38,33
882,531	38,41
882,934	38,47
883,336	38,1
883,738	38,41
884,141	38,46
884,543	38,35
884,945	38,42
885,347	38,4
885,749	38,29
886,151	38,19
886,552	38,32
886,954	38,36
887,355	38,28
887,757	38,1
888,158	38,4
888,56	38,59
888,961	38,27
889,362	38,31
889,763	38,38
890,164	38,68
890,565	38,2
890,965	38,32
891,366	38,52
891,767	38,54
892,167	38,46
892,567	38,32
892,968	38,43
893,368	38,29
893,768	38,38
894,168	38,43
894,568	38,34
894,968	38,55
895,368	38,28
895,767	38,31
896,167	38,46
896,566	38,46
896,966	38,18
897,365	38,47
897,764	38,4
898,164	38,37
898,563	38,35
898,962	38,32
899,361	38,43
899,759	38,33
900,158	38,19
900,557	38,38
900,955	38,51
901,354	38,33
901,752	38,13
902,15	38,52
902,548	38,23
902,947	38,07
903,345	38,1
903,742	38,45
904,14	38,45
904,538	38,52
904,936	38,29
905,333	38,13
905,731	38,14
906,128	38,35
906,525	38,46
906,923	38,61
907,32	38,28
907,717	38,18
908,114	38,32
908,511	38,3
908,907	38,44
909,304	38,3
909,701	38,26
910,097	38,09
910,494	38,69
910,89	38,24
911,286	38,62
911,682	38,28
912,078	38,41
912,474	38,49
912,87	38,69
913,266	38,03
913,662	38,43
914,058	38,54
914,453	38,46
914,849	38,59
915,244	38,33
915,639	38,53
916,034	38,33
916,43	38,13
916,825	38,48
917,22	38,38
917,614	37,92
918,009	37,98
918,404	37,93
918,798	38,21
919,193	38,45
919,587	38,21
919,982	38,12
920,376	38,18
920,77	38,44
921,164	38,49
921,558	38,23
921,952	38,33
922,346	38,42
922,74	38,4
923,133	38,21
923,527	38,09
923,92	38,06
924,314	38,46
924,707	37,95
925,1	38,34
925,493	38,08
925,886	38,04
926,279	38,04
926,672	37,96
927,065	38,13
927,457	38,14
927,85	38,09
928,243	38,22
928,635	38,06
929,027	37,9
929,42	38,27
929,812	38,15
930,204	38,14
930,596	38,13
930,988	38,28
931,379	38,21
931,771	38,06
932,163	38,3
932,554	38,02
932,946	37,99
933,337	38,16
933,729	38,19
934,12	37,97
934,511	38,05
934,902	38,02
935,293	38,11
935,684	38,04
936,075	38,04
936,465	37,95
936,856	37,54
937,246	37,94
937,637	37,62
938,027	38,11
938,417	38,02
938,808	37,95
939,198	37,75
939,588	38
939,978	38,05
940,368	38,08
940,757	37,93
941,147	37,86
941,537	38,14
941,926	37,93
942,315	38,1
942,705	37,62
943,094	37,87
943,483	37,81
943,872	37,79
944,261	37,74
944,65	38,06
945,039	37,69
945,428	37,61
945,816	38,07
946,205	37,3
946,593	37,72
946,982	37,76
947,37	38,36
947,758	37,95
948,146	37,82
948,534	37,08
948,922	37,61
949,31	37,72
949,698	37,68
950,086	37,96
950,473	37,74
950,861	37,77
951,248	37,67
951,636	37,64
952,023	37,05
952,41	37,62
952,797	37,49
953,184	37,7
953,571	37,35
953,958	37,43
954,345	37,16
954,731	37,23
955,118	37,44
955,505	37,57
955,891	37,82
956,277	37,36
956,664	37,68
957,05	37,14
957,436	37,32
957,822	37,15
958,208	37,43
958,594	37,46
958,979	37,3
959,365	37,34
959,751	37,62
960,136	37,27
960,522	36,75
960,907	37
961,292	37,39
961,677	37,21
962,062	37,13
962,447	37,31
962,832	37,27
963,217	37,54
963,602	37,23
963,986	37
964,371	37,03
964,756	37,26
965,14	37,31
965,524	37,06
965,908	37,07
966,293	36,92
966,677	37,28
967,061	37,94
967,445	37,28
967,828	37,38
968,212	37,42
968,596	37,08
968,979	37,48
969,363	37,54
969,746	37,26
970,129	36,89
970,513	37,16
970,896	37,41
971,279	36,88
971,662	37,17
972,045	37,42
972,428	37,09
972,81	37,26
973,193	37,19
973,575	36,98
973,958	37,27
974,34	37,19
974,723	37,22
975,105	37,2
975,487	37,11
975,869	37,46
976,251	37,17
976,633	37,44
977,015	36,87
977,396	37,35
977,778	37,23
978,16	37,28
978,541	37,2
978,922	37,51
979,304	37,43
979,685	37,42
980,066	37,51
980,447	37,26
980,828	37,4
981,209	37,07
981,59	37,26
981,97	37,33
982,351	37,53
982,732	37,11
983,112	37,56
983,493	37,48
983,873	37,52
984,253	37,25
984,633	37,44
985,013	37,26
985,393	37,45
985,773	37,13
986,153	37,38
986,533	37,31
986,912	37,42
987,292	37,47
987,671	37,5
988,051	37,21
988,43	37,36
988,809	37,28
989,188	37,73
989,567	37,28
989,946	37,49
990,325	37,51
990,704	37,28
991,083	37,43
991,461	37,41
991,84	37,13
992,218	37,48
992,597	37,46
992,975	37,15
993,353	37,45
993,732	37,63
994,11	37,42
994,488	37,6
994,866	37,36
995,243	37,78
995,621	37,46
995,999	37,68
996,376	37,8
996,754	37,54
997,131	37,53
997,509	37,52
997,886	37,35
998,263	37,73
998,64	37,09
999,017	37,49
999,394	37,7
999,771	37,63
1000,148	37,52
1000,524	37,58
1000,901	37,68
1001,277	38,12
1001,654	37,4
1002,03	37,97
1002,406	37,66
1002,783	37,58
1003,159	37,39
1003,535	37,56
1003,911	37,53
1004,286	38,07
1004,662	37,53
1005,038	37,46
1005,414	37,41
1005,789	37,73
1006,164	37,58
1006,54	37,78
1006,915	37,54
1007,29	37,89
1007,665	37,68
1008,04	38,23
1008,415	37,55
1008,79	38,28
1009,165	37,56
1009,54	38,05
1009,914	38,3
1010,289	37,81
1010,663	38,15
1011,038	37,84
1011,412	37,85
1011,786	38,09
1012,16	37,49
1012,535	37,87
1012,909	38,17
1013,282	37,88
1013,656	38,05
1014,03	37,82
1014,404	38,2
1014,777	38,1
1015,151	38,19
1015,524	38,34
1015,897	38,47
1016,271	37,71
1016,644	38,16
1017,017	38,06
1017,39	38,27
1017,763	38,02
1018,136	38,2
1018,508	38,03
1018,881	38,37
1019,254	38,05
1019,626	38,06
1019,999	37,99
1020,371	37,68
1020,743	38,67
1021,116	37,8
1021,488	37,93
1021,86	38,11
1022,232	38,28
1022,604	37,79
1022,975	38,35
1023,347	38,17
1023,719	38,02
1024,09	38,55
1024,462	38,75
1024,833	38,53
1025,204	38,44
1025,576	38,4
1025,947	38,94
1026,318	38,48
1026,689	38,16
1027,06	38,23
1027,431	38,31
1027,801	38,74
1028,172	38,74
1028,543	38,34
1028,913	39,12
1029,284	38,8
1029,654	38,38
1030,024	38,15
1030,394	38,55
1030,764	38,17
1031,135	38,48
1031,504	38,18
1031,874	38,05
1032,244	38,69
1032,614	38,52
1032,983	38,17
1033,353	38,3
1033,722	38,62
1034,092	37,84
1034,461	38,73
1034,83	38,7
1035,2	38,94
1035,569	38,84
1035,938	38,54
1036,307	38,8
1036,675	38,34
1037,044	38,19
1037,413	38,61
1037,781	38,54
1038,15	39,3
1038,518	38,92
1038,887	39,02
1039,255	38,8
1039,623	38,43
1039,991	38,93
1040,359	38,97
1040,727	38,9
1041,095	38,63
1041,463	38,98
1041,831	38,99
1042,198	38,88
1042,566	38,76
1042,933	38,59
1043,301	39,01
1043,668	38,55
1044,035	38,54
1044,402	39,27
1044,77	39,69
1045,137	38,47
1045,503	39,25
1045,87	39,23
1046,237	38,42
1046,604	39,03
1046,97	39,01
1047,337	38,85
1047,703	38,91
1048,07	39,14
1048,436	39,37
1048,802	38,3
1049,168	39,61
1049,534	39,63
1049,9	38,95
1050,266	39,25
1050,632	39,19
1050,998	39,11
1051,364	39,71
1051,729	39,12
1052,095	38,53
1052,46	39,01
1052,825	39,79
1053,191	38,63
1053,556	39,01
1053,921	39,35
1054,286	39,28
1054,651	39,53
1055,016	38,99
1055,381	39,24
1055,745	39,8
1056,11	38,83
1056,475	39,38
1056,839	39,51
1057,203	40,18
1057,568	39,59
1057,932	39,74
1058,296	39,78
1058,66	39,62
1059,024	39,08
1059,388	40,45
1059,752	39,02
1060,116	39,74
1060,48	39,84
1060,843	39,85
1061,207	39,97
1061,57	40,48
1061,934	39,76
1062,297	39,49
1062,66	39,15
1063,023	39,93
1063,386	39,67
1063,749	39,65
1064,112	40,92
1064,475	39,96
1064,838	39,58
1065,201	39,93
1065,563	39,26
1065,926	40,97
1066,288	39,44
1066,651	39,44
1067,013	39,68
1067,375	39,65
1067,737	40,09
1068,099	39,17
1068,461	39,92
1068,823	40,19
1069,185	41,18
1069,547	39,88
1069,909	39,61
1070,27	39,47
1070,632	40,04
1070,993	40,32
1071,355	40,27
1071,716	40,19
1072,077	39,86
1072,438	40,67
1072,799	41,34
1073,16	40
1073,521	40,26
1073,882	39,79
1074,243	40,45
1074,603	40,87
1074,964	39,05
1075,325	40,22
1075,685	40,72
1076,045	40,51
1076,406	40,33
1076,766	39,31
1077,126	39,97
1077,486	39,98
1077,846	39,28
1078,206	39,89
1078,566	38,89
1078,925	40,98
1079,285	40,64
1079,645	39,58
1080,004	40,53
1080,364	41,17
1080,723	40,04
1081,082	40,67
1081,442	40,92
1081,801	41,25
1082,16	41,36
1082,519	40,31
1082,878	39,96
1083,237	40,08
1083,595	40,62
1083,954	40,62
1084,313	39,75
1084,671	41,49
1085,03	41,89
1085,388	39,77
1085,746	40,29
1086,104	40,23
1086,463	40,58
1086,821	41,01
1087,179	40,6
1087,537	40,82
1087,894	40,34
1088,252	43,03
1088,61	41,98
1088,967	40,84
1089,325	41,54
1089,682	40,37
1090,04	40,69
1090,397	40,3
1090,754	41,02
1091,111	41,53
1091,469	40,76
1091,826	39,96
1092,182	40,45
1092,539	41,85
1092,896	41,27
1093,253	41,76
1093,609	40,59
1093,966	41,95
1094,322	42,09
1094,679	39,95
1095,035	40,92
1095,391	40,87
1095,748	40,81
1096,104	40,07
1096,46	40,6
1096,816	41,56
1097,171	41,64
1097,527	42,8
1097,883	41,44
1098,239	42,64
1098,594	42,66
1098,95	42,22
1099,305	41,38
1099,66	41,4
1100,016	42,11
1100,371	40,94
1100,726	41,15
1101,081	42,21
1101,436	42,16
1101,791	42,79
1102,146	41,38
1102,5	40,9
1102,855	41,77
1103,21	42,65
1103,564	44,81
1103,918	41,55
1104,273	43,65
1104,627	40,39
1104,981	42,5
1105,335	42,99
1105,69	42,9
1106,043	41,99
1106,397	42,88
1106,751	42,84
1107,105	42,31
1107,459	41,16
1107,812	43,16
1108,166	43,49
1108,519	40,96
1108,873	41,7
1109,226	42,21
1109,579	43,98
1109,932	43,21
1110,285	44,32
1110,638	42,39
1110,991	42,25
1111,344	40,52
1111,697	43,23
1112,05	43,67
1112,402	44,25
1112,755	42,17
1113,107	42,44
1113,46	41,86
1113,812	43,51
1114,164	46,29
1114,517	43,56
1114,869	86,16
1115,221	76,34
1115,573	75,06
1115,924	74,83
