Data from E6__Relative__5__00090.txt Node

Date: Tue Jan 30 17:59:29 CET 2024
User: diatiterra
Spectrometer: HDX00911
Trigger mode: 0
Integration Time (sec): 6,000000E-3
Scans to average: 3
Nonlinearity correction enabled: true
Boxcar width: 0
Storing dark spectrum: false
XAxis mode: Wavelengths
Number of Pixels in Spectrum: 2068
>>>>>Begin Spectral Data<<<<<
194,468	106,55
195,025	92,39
195,581	96,23
196,138	82,2
196,694	83,59
197,251	72,48
197,807	65,13
198,363	66,04
198,919	71,53
199,474	71,32
200,03	64,78
200,586	65,25
201,141	71,65
201,696	60,69
202,251	63,94
202,806	66,39
203,361	69,34
203,916	66,46
204,471	65,36
205,025	63,96
205,58	70,1
206,134	73
206,688	67,66
207,242	62,85
207,796	69,3
208,35	64,52
208,904	64,15
209,457	64,5
210,011	69,83
210,564	57,81
211,117	65,98
211,67	77,64
212,223	72,15
212,776	62,6
213,329	69,32
213,881	67,5
214,434	62,94
214,986	70,02
215,538	68,69
216,09	58,61
216,642	67,89
217,194	64,39
217,746	66,11
218,297	65,73
218,849	69,31
219,4	72,94
219,951	66,53
220,502	65,57
221,053	61,69
221,604	66,26
222,155	67,96
222,705	68,4
223,256	62,92
223,806	65,79
224,356	69,87
224,906	60,29
225,456	66,06
226,006	64,9
226,556	66,78
227,106	72,01
227,655	61,32
228,204	67,29
228,754	69,24
229,303	68,54
229,852	69,79
230,401	72,92
230,949	69,21
231,498	65,12
232,047	67,2
232,595	66,6
233,143	62,92
233,691	64
234,239	63,89
234,787	65,02
235,335	66,52
235,883	65,49
236,43	66,25
236,978	70,12
237,525	69,61
238,072	66,52
238,619	71,74
239,166	65,14
239,713	63,07
240,26	67,45
240,806	65,3
241,353	64,05
241,899	66,2
242,445	67,65
242,991	61,39
243,537	70,19
244,083	67,13
244,629	69,69
245,174	65,19
245,72	60,55
246,265	67,46
246,81	66,67
247,355	62,63
247,9	72,12
248,445	67,05
248,99	71,96
249,534	65,4
250,079	70,05
250,623	66,32
251,168	63,22
251,712	60,29
252,256	62,18
252,8	68,09
253,343	66,74
253,887	58,89
254,43	64,6
254,974	68,59
255,517	66
256,06	68,94
256,603	66,74
257,146	66,02
257,689	68,43
258,232	63,42
258,774	66,95
259,317	67,64
259,859	64,69
260,401	70,7
260,943	60,59
261,485	66,3
262,027	69,78
262,569	63,74
263,11	64,27
263,652	70,45
264,193	64,39
264,734	61,62
265,275	66
265,816	71,05
266,357	59,99
266,898	63,42
267,438	67,49
267,979	72,8
268,519	67,19
269,059	68,93
269,6	68,67
270,14	67,21
270,68	55,46
271,219	66,53
271,759	68,2
272,298	61,77
272,838	67,98
273,377	64,96
273,916	63,02
274,455	61,04
274,994	64,91
275,533	65,11
276,072	65,58
276,61	65,55
277,149	65,18
277,687	62,67
278,225	63,12
278,763	64,72
279,301	61,59
279,839	64,78
280,377	63,78
280,914	60,81
281,452	67,82
281,989	68,8
282,526	61,09
283,064	68,82
283,601	59,83
284,137	63,34
284,674	60,76
285,211	69,69
285,747	62,1
286,284	68,73
286,82	59,33
287,356	64,09
287,892	68,26
288,428	58,15
288,964	65,77
289,5	61,26
290,035	69,29
290,571	61,28
291,106	69,71
291,641	72,86
292,176	63,41
292,711	59,18
293,246	61,7
293,781	57,72
294,315	59,49
294,85	67,99
295,384	67,15
295,918	61,17
296,453	63,02
296,987	68,52
297,52	62,7
298,054	63,16
298,588	68,56
299,121	64,49
299,655	61,8
300,188	58,95
300,721	61,23
301,254	64,78
301,787	61,44
302,32	68,02
302,853	61,88
303,385	63,78
303,918	59,34
304,45	61,12
304,982	63,65
305,514	67,87
306,046	62,1
306,578	62,5
307,11	60,05
307,641	64,27
308,173	60,62
308,704	66,07
309,236	71,47
309,767	61,49
310,298	55,1
310,829	63,91
311,359	64,11
311,89	63,38
312,421	66,6
312,951	64,76
313,481	68,82
314,012	61,27
314,542	60,84
315,072	67,17
315,601	59,14
316,131	64,14
316,661	60,4
317,19	62,21
317,72	62,78
318,249	62,9
318,778	62,5
319,307	61,66
319,836	63,09
320,365	63,56
320,893	63,52
321,422	60,87
321,95	62,21
322,479	64,9
323,007	60,68
323,535	57,6
324,063	63,18
324,591	58,19
325,118	67,07
325,646	60,83
326,173	61,63
326,701	65,8
327,228	64,67
327,755	68,38
328,282	59,61
328,809	60,31
329,336	61,55
329,862	62,61
330,389	58,3
330,915	62,09
331,441	64,69
331,968	61,83
332,494	59,39
333,02	64,74
333,545	64,58
334,071	66,23
334,597	58,66
335,122	61,05
335,648	63,33
336,173	61,87
336,698	58,92
337,223	60,04
337,748	59,52
338,272	56,8
338,797	57,94
339,322	68,64
339,846	65,91
340,37	62,56
340,894	65,6
341,419	59,7
341,942	56,43
342,466	57,9
342,99	63,99
343,514	60,52
344,037	60,58
344,56	64,35
345,084	54,87
345,607	55,75
346,13	60,5
346,653	55,9
347,175	60,62
347,698	63,93
348,221	56,53
348,743	53,96
349,265	62,41
349,787	56,48
350,309	56,05
350,831	64,84
351,353	55,33
351,875	55,13
352,397	53,06
352,918	54,58
353,439	56,37
353,961	51,59
354,482	51,44
355,003	54,25
355,524	52,46
356,044	52,84
356,565	55,01
357,086	54,66
357,606	54,04
358,126	57,45
358,646	52,63
359,167	55,7
359,687	52,06
360,206	52,57
360,726	55,74
361,246	56,82
361,765	52,7
362,285	54,59
362,804	53,45
363,323	54
363,842	57,84
364,361	53,73
364,88	54,7
365,398	52,02
365,917	56,56
366,435	52,54
366,954	51,83
367,472	52,68
367,99	53,45
368,508	50,62
369,026	54,77
369,544	51,72
370,061	52,37
370,579	52,24
371,096	53,66
371,613	53,02
372,131	53,75
372,648	50,32
373,165	48,31
373,681	49,61
374,198	51,85
374,715	45,39
375,231	51,07
375,747	51,44
376,264	47,44
376,78	52,65
377,296	48,48
377,812	48,86
378,327	48,6
378,843	47,15
379,359	48,13
379,874	49,97
380,389	48,67
380,905	49,13
381,42	46,78
381,935	46,92
382,449	44,23
382,964	44,23
383,479	44,17
383,993	43,99
384,508	41,91
385,022	40,24
385,536	43,08
386,05	40,64
386,564	40,95
387,078	41,49
387,592	41,83
388,105	37,23
388,619	37,71
389,132	36,97
389,645	39,36
390,158	37,9
390,671	36,73
391,184	35,86
391,697	36,55
392,21	35,5
392,722	37,76
393,235	36,5
393,747	35,3
394,259	36,5
394,771	35,57
395,283	34,51
395,795	34,32
396,307	33,46
396,818	34,13
397,33	32,55
397,841	31,75
398,353	32,58
398,864	31,94
399,375	32,16
399,886	29,74
400,397	29,97
400,907	28,4
401,418	29,3
401,928	30,05
402,439	27,74
402,949	26,93
403,459	27,56
403,969	26,47
404,479	24,03
404,989	24,38
405,498	23,91
406,008	23,15
406,517	22,43
407,027	21,96
407,536	21,26
408,045	20,89
408,554	20,36
409,063	18,38
409,572	18,71
410,08	18,76
410,589	17,55
411,097	17,66
411,606	17,22
412,114	15,73
412,622	15,48
413,13	15,91
413,638	15,21
414,145	14,69
414,653	13,82
415,16	13,8
415,668	13,83
416,175	13,11
416,682	12,76
417,189	12,97
417,696	12,99
418,203	12,16
418,71	12,34
419,216	12,16
419,723	11,23
420,229	11,32
420,735	11,19
421,242	11,34
421,748	10,6
422,254	10,83
422,759	10,68
423,265	10,64
423,771	10,49
424,276	10,57
424,781	10,33
425,287	10,37
425,792	10,36
426,297	10,04
426,802	9,8
427,306	9,67
427,811	9,93
428,316	9,89
428,82	9,96
429,324	9,65
429,829	9,58
430,333	9,43
430,837	9,92
431,34	9,38
431,844	9,71
432,348	9,17
432,851	9,26
433,355	9,51
433,858	9,37
434,361	9,17
434,864	9,3
435,367	9,14
435,87	8,97
436,373	9,4
436,876	8,75
437,378	9,1
437,88	8,93
438,383	8,99
438,885	8,98
439,387	9,33
439,889	8,77
440,391	8,9
440,892	8,53
441,394	8,71
441,896	8,76
442,397	9,2
442,898	9,01
443,399	8,72
443,9	8,87
444,401	8,98
444,902	8,66
445,403	8,7
445,903	8,96
446,404	9
446,904	9,15
447,405	9,19
447,905	9,18
448,405	9,47
448,905	9,49
449,404	9,51
449,904	9,33
450,404	9,67
450,903	9,64
451,403	9,37
451,902	9,38
452,401	9,55
452,9	9,43
453,399	9,92
453,898	9,78
454,396	9,79
454,895	9,93
455,393	9,78
455,892	10,07
456,39	10,06
456,888	9,87
457,386	9,93
457,884	9,94
458,382	9,95
458,879	9,93
459,377	10,1
459,874	9,95
460,372	10,21
460,869	9,98
461,366	10,09
461,863	10,13
462,36	10,2
462,857	10,28
463,353	9,74
463,85	10,27
464,346	9,93
464,843	9,79
465,339	10,2
465,835	10,17
466,331	10,19
466,827	9,72
467,323	9,93
467,818	10,17
468,314	10,06
468,809	9,67
469,305	9,92
469,8	10,32
470,295	9,82
470,79	10,01
471,285	9,86
471,78	10,05
472,274	10,23
472,769	10,05
473,263	10,02
473,758	10,17
474,252	10,13
474,746	9,96
475,24	9,99
475,734	10,14
476,228	9,94
476,721	10,09
477,215	10,1
477,708	10,24
478,202	10,08
478,695	10,4
479,188	10,21
479,681	10,33
480,174	10,27
480,667	10,25
481,159	10,32
481,652	10,23
482,144	10,28
482,637	10,36
483,129	10,44
483,621	10,45
484,113	10,48
484,605	10,39
485,097	10,63
485,588	10,67
486,08	10,6
486,571	10,78
487,063	10,75
487,554	10,48
488,045	10,64
488,536	10,9
489,027	10,9
489,518	10,86
490,008	10,91
490,499	10,85
490,989	11,32
491,48	11,13
491,97	11,44
492,46	11,43
492,95	11,52
493,44	11,62
493,93	11,67
494,419	11,74
494,909	11,87
495,398	11,92
495,888	12,29
496,377	12,19
496,866	12,26
497,355	12,35
497,844	12,76
498,333	12,62
498,821	12,86
499,31	12,96
499,798	13,33
500,287	13,44
500,775	13,46
501,263	14,04
501,751	14,24
502,239	14,09
502,727	14,64
503,215	14,68
503,702	14,81
504,19	14,99
504,677	15,45
505,164	15,89
505,651	15,59
506,139	15,94
506,625	16,32
507,112	16,92
507,599	16,93
508,086	17,31
508,572	17,5
509,058	17,88
509,545	18,07
510,031	18,44
510,517	18,54
511,003	18,86
511,489	19,23
511,974	19,84
512,46	19,88
512,946	20,6
513,431	20,78
513,916	20,89
514,401	21,53
514,887	21,89
515,371	22,19
515,856	22,49
516,341	23,12
516,826	23,56
517,31	23,38
517,795	24,12
518,279	24,64
518,763	24,75
519,247	25,42
519,731	25,61
520,215	25,95
520,699	26,58
521,182	26,99
521,666	27,39
522,149	27,87
522,633	28,43
523,116	28,08
523,599	28,62
524,082	29,16
524,565	29,98
525,048	29,91
525,53	30,51
526,013	30,75
526,495	31,28
526,978	31,09
527,46	31,46
527,942	31,78
528,424	32,32
528,906	32,15
529,388	32,49
529,87	32,71
530,351	32,64
530,833	33,11
531,314	33,32
531,795	33,56
532,277	33,89
532,758	34,35
533,238	34,28
533,719	33,94
534,2	34,15
534,681	34,54
535,161	34,67
535,642	34,58
536,122	35,1
536,602	34,82
537,082	34,75
537,562	35,35
538,042	35,22
538,522	34,93
539,001	35,35
539,481	35,52
539,96	35,6
540,44	35,48
540,919	35,24
541,398	35,71
541,877	35,89
542,356	35,51
542,835	35,73
543,313	36
543,792	36
544,27	35,75
544,749	35,82
545,227	35,98
545,705	36,45
546,183	36,1
546,661	36
547,139	36,16
547,616	36,14
548,094	36,17
548,571	36,16
549,049	35,79
549,526	36,43
550,003	36,34
550,48	36,34
550,957	36,51
551,434	36,46
551,911	36,71
552,387	36,71
552,864	36,24
553,34	36,48
553,817	36,86
554,293	36,62
554,769	36,91
555,245	36,72
555,721	36,6
556,197	36,42
556,672	36,46
557,148	36,74
557,623	36,49
558,099	36,62
558,574	36,34
559,049	36,33
559,524	36,27
559,999	36,25
560,474	36,1
560,948	36,18
561,423	36,08
561,897	36,1
562,372	35,73
562,846	35,91
563,32	35,73
563,794	35,66
564,268	35,63
564,742	35,4
565,216	34,92
565,69	35,26
566,163	35,04
566,636	34,52
567,11	34,49
567,583	34,41
568,056	34,54
568,529	33,93
569,002	33,59
569,475	33,76
569,947	33,67
570,42	33,61
570,892	32,99
571,365	32,7
571,837	32,39
572,309	32,26
572,781	32,19
573,253	32,02
573,725	31,75
574,197	31,7
574,668	31,78
575,14	31,51
575,611	30,98
576,082	31,02
576,554	31,1
577,025	30,6
577,496	30,32
577,967	30,45
578,437	29,88
578,908	29,93
579,379	29,79
579,849	29,46
580,319	29,65
580,79	29,35
581,26	29,05
581,73	28,99
582,2	28,97
582,669	28,8
583,139	28,63
583,609	28,32
584,078	28,33
584,548	28,11
585,017	28,14
585,486	27,98
585,955	27,79
586,424	27,83
586,893	27,8
587,362	27,47
587,83	27,21
588,299	27,01
588,767	27,11
589,236	26,84
589,704	26,99
590,172	27,12
590,64	26,73
591,108	26,92
591,576	26,63
592,043	26,69
592,511	26,45
592,978	26,42
593,446	26,38
593,913	26,12
594,38	26,23
594,847	26,22
595,314	26
595,781	25,94
596,248	26,15
596,715	25,78
597,181	25,9
597,647	25,71
598,114	25,59
598,58	25,93
599,046	25,58
599,512	25,75
599,978	25,46
600,444	25,55
600,91	25,38
601,375	25,28
601,841	25,49
602,306	25,36
602,771	25,45
603,236	25,21
603,702	25,02
604,167	25,12
604,631	24,93
605,096	24,95
605,561	24,94
606,025	24,56
606,49	24,62
606,954	24,67
607,418	24,43
607,882	24,26
608,347	24,31
608,81	24,21
609,274	24,18
609,738	23,8
610,202	23,81
610,665	23,7
611,128	23,81
611,592	23,49
612,055	23,28
612,518	23,33
612,981	23,17
613,444	22,81
613,907	23,04
614,369	22,76
614,832	22,78
615,294	22,64
615,757	22,32
616,219	22,22
616,681	22,26
617,143	22,1
617,605	22,04
618,067	21,84
618,529	21,6
618,99	21,63
619,452	21,5
619,913	21,57
620,375	21,33
620,836	21,24
621,297	21,22
621,758	21,03
622,219	21,15
622,68	21,06
623,14	20,88
623,601	20,94
624,061	21,02
624,522	20,89
624,982	20,82
625,442	20,84
625,902	20,58
626,362	20,67
626,822	20,52
627,282	20,68
627,742	20,41
628,201	20,54
628,661	20,54
629,12	20,44
629,579	20,41
630,038	20,48
630,497	20,31
630,956	20,53
631,415	20,16
631,874	20,34
632,332	20,12
632,791	19,97
633,249	20,13
633,708	20,04
634,166	20,01
634,624	19,8
635,082	19,67
635,54	19,71
635,998	19,49
636,455	19,42
636,913	19,25
637,37	19,09
637,828	18,94
638,285	18,85
638,742	18,76
639,199	18,61
639,656	18,49
640,113	18,25
640,57	18,05
641,027	17,93
641,483	17,77
641,94	17,4
642,396	17,29
642,852	17,04
643,309	17,08
643,765	16,84
644,221	16,59
644,676	16,54
645,132	16,27
645,588	16,17
646,043	15,91
646,499	15,7
646,954	15,65
647,409	15,41
647,864	15,25
648,319	15,17
648,774	14,89
649,229	14,78
649,684	14,72
650,139	14,53
650,593	14,55
651,047	14,51
651,502	14,38
651,956	14,37
652,41	14,16
652,864	14,15
653,318	13,98
653,772	13,94
654,225	13,98
654,679	13,87
655,133	13,78
655,586	13,67
656,039	13,64
656,492	13,37
656,946	13,36
657,399	13,31
657,851	13,19
658,304	13,12
658,757	12,88
659,209	12,82
659,662	12,61
660,114	12,56
660,567	12,39
661,019	12,3
661,471	12,17
661,923	12,02
662,375	11,91
662,826	11,89
663,278	11,55
663,73	11,57
664,181	11,42
664,632	11,38
665,084	11,17
665,535	11,09
665,986	11,02
666,437	10,97
666,888	10,93
667,338	10,83
667,789	10,76
668,24	10,67
668,69	10,58
669,14	10,58
669,591	10,58
670,041	10,61
670,491	10,53
670,941	10,53
671,391	10,52
671,84	10,71
672,29	10,66
672,74	10,77
673,189	10,75
673,638	10,81
674,088	10,91
674,537	10,97
674,986	10,99
675,435	11,05
675,883	11,14
676,332	11,32
676,781	11,33
677,229	11,36
677,678	11,57
678,126	11,8
678,574	11,84
679,022	11,99
679,47	11,98
679,918	12,25
680,366	12,37
680,814	12,65
681,261	12,59
681,709	12,83
682,156	13,18
682,604	13,35
683,051	13,45
683,498	13,66
683,945	13,97
684,392	14,04
684,839	14,38
685,286	14,59
685,732	14,91
686,179	15,19
686,625	15,36
687,071	15,8
687,518	16,14
687,964	16,39
688,41	16,87
688,856	17,38
689,301	17,82
689,747	18,17
690,193	18,8
690,638	19,2
691,084	19,79
691,529	20,56
691,974	21,06
692,419	21,44
692,864	22,29
693,309	22,9
693,754	23,56
694,199	24,14
694,643	24,74
695,088	25,59
695,532	26,2
695,977	26,8
696,421	27,48
696,865	27,99
697,309	28,81
697,753	29,39
698,197	29,87
698,64	30,47
699,084	31,01
699,527	31,81
699,971	32,43
700,414	32,87
700,857	33,52
701,3	34,03
701,743	34,44
702,186	35,14
702,629	35,69
703,072	36,08
703,515	36,63
703,957	36,81
704,399	37,32
704,842	37,98
705,284	38,31
705,726	38,61
706,168	39,2
706,61	39,65
707,052	39,85
707,494	40,15
707,935	40,54
708,377	41
708,818	41,19
709,26	41,66
709,701	41,98
710,142	42,19
710,583	42,53
711,024	42,89
711,465	43,2
711,905	43,43
712,346	43,59
712,787	43,99
713,227	44,23
713,667	44,66
714,108	44,96
714,548	45,09
714,988	45,29
715,428	45,61
715,868	45,99
716,307	45,8
716,747	46,64
717,186	46,76
717,626	46,79
718,065	47,31
718,504	47,02
718,944	47,82
719,383	47,56
719,822	48,1
720,261	47,97
720,699	48,35
721,138	48,34
721,576	48,51
722,015	48,78
722,453	49,08
722,892	49,11
723,33	49,35
723,768	49,42
724,206	49,54
724,644	49,83
725,081	49,84
725,519	49,97
725,957	50,22
726,394	50,19
726,832	50,11
727,269	50,58
727,706	50,43
728,143	50,58
728,58	50,83
729,017	50,61
729,454	51,2
729,89	50,91
730,327	50,92
730,764	51,17
731,2	51,25
731,636	51,32
732,072	51,46
732,509	51,51
732,945	51,37
733,38	51,38
733,816	51,53
734,252	51,67
734,688	51,32
735,123	51,45
735,559	51,73
735,994	51,54
736,429	51,57
736,864	51,7
737,299	51,69
737,734	51,61
738,169	51,76
738,604	51,73
739,038	51,76
739,473	51,79
739,907	51,98
740,342	51,82
740,776	51,73
741,21	51,73
741,644	51,84
742,078	51,99
742,512	51,86
742,946	51,91
743,379	51,9
743,813	51,79
744,246	51,83
744,68	51,93
745,113	51,62
745,546	51,45
745,979	51,67
746,412	51,84
746,845	51,53
747,278	51,65
747,711	51,7
748,143	51,44
748,576	51,38
749,008	51,6
749,441	51,24
749,873	51,4
750,305	51,25
750,737	51,32
751,169	51,31
751,601	51,23
752,032	51,33
752,464	51,25
752,896	51,15
753,327	51,15
753,758	51,1
754,19	51,12
754,621	50,95
755,052	51,1
755,483	50,87
755,914	51,01
756,344	50,66
756,775	50,9
757,206	50,95
757,636	50,84
758,066	50,78
758,497	50,63
758,927	50,6
759,357	50,72
759,787	50,61
760,217	50,51
760,647	50,41
761,076	50,5
761,506	50,24
761,935	50,23
762,365	50,35
762,794	50,19
763,223	50,42
763,653	50,48
764,082	50,12
764,51	50,48
764,939	50,16
765,368	50,19
765,797	50,17
766,225	49,98
766,654	49,96
767,082	49,73
767,51	49,96
767,938	49,83
768,367	49,93
768,795	49,96
769,222	50,06
769,65	49,94
770,078	50,07
770,505	49,81
770,933	49,76
771,36	49,83
771,788	49,77
772,215	49,65
772,642	49,57
773,069	49,62
773,496	49,41
773,923	49,6
774,349	49,34
774,776	49,68
775,203	49,58
775,629	49,34
776,055	49,46
776,482	49,42
776,908	49,31
777,334	49,35
777,76	49,2
778,186	49,45
778,611	49,48
779,037	49,42
779,463	49,2
779,888	49,17
780,314	49,2
780,739	49,42
781,164	49,24
781,589	49,29
782,014	49,05
782,439	48,98
782,864	49,07
783,289	49,15
783,713	49,01
784,138	48,92
784,562	48,98
784,987	48,8
785,411	48,9
785,835	49,02
786,259	49,03
786,683	49,21
787,107	49,02
787,531	49,04
787,954	48,88
788,378	49,24
788,802	49,12
789,225	48,97
789,648	48,96
790,071	48,91
790,495	48,77
790,918	48,99
791,34	49,09
791,763	48,91
792,186	48,78
792,609	49,08
793,031	48,88
793,454	48,85
793,876	48,87
794,298	49,06
794,721	48,81
795,143	49,12
795,565	48,76
795,986	49,02
796,408	48,83
796,83	48,82
797,252	48,84
797,673	48,99
798,094	48,62
798,516	48,56
798,937	48,83
799,358	48,56
799,779	48,68
800,2	48,73
800,621	48,75
801,042	48,71
801,462	48,56
801,883	48,88
802,303	48,78
802,724	48,6
803,144	48,91
803,564	48,46
803,984	48,44
804,404	48,83
804,824	48,91
805,244	48,47
805,664	48,6
806,084	48,61
806,503	48,77
806,923	48,71
807,342	48,68
807,761	48,63
808,18	48,69
808,599	48,57
809,018	48,39
809,437	48,59
809,856	48,35
810,275	48,32
810,693	48,46
811,112	48,31
811,53	48,47
811,949	48,69
812,367	48,41
812,785	48,6
813,203	48,55
813,621	48,55
814,039	48,68
814,457	48,35
814,874	48,63
815,292	48,57
815,709	48,28
816,127	48,37
816,544	48,55
816,961	48,48
817,378	48,69
817,795	48,5
818,212	48,38
818,629	48,41
819,046	48,25
819,462	48,4
819,879	48,48
820,295	48,29
820,712	48,22
821,128	48,26
821,544	48,22
821,96	48,57
822,376	48,38
822,792	48,37
823,208	48,52
823,624	48,55
824,039	48,25
824,455	48,48
824,87	48,37
825,286	48,31
825,701	48,44
826,116	48,11
826,531	48,43
826,946	48,24
827,361	48,43
827,776	48,28
828,19	48,11
828,605	48,31
829,02	48,68
829,434	48,07
829,848	48,51
830,263	48,26
830,677	48,25
831,091	48,38
831,505	48,53
831,919	48,3
832,332	48,08
832,746	48,18
833,16	48,18
833,573	48,13
833,987	48,29
834,4	48,25
834,813	48,03
835,226	48,27
835,639	48,12
836,052	48,2
836,465	48,2
836,878	48,43
837,29	48,11
837,703	48,14
838,116	48,16
838,528	48,08
838,94	48,05
839,352	48
839,765	48,23
840,177	48,24
840,589	48,15
841	48,24
841,412	48
841,824	47,9
842,235	48,07
842,647	48,16
843,058	48,31
843,47	48,17
843,881	48,22
844,292	47,96
844,703	48
845,114	48,22
845,525	48,25
845,935	48,16
846,346	48,17
846,757	48,16
847,167	48,17
847,577	48
847,988	47,93
848,398	48,06
848,808	47,73
849,218	47,81
849,628	47,88
850,038	47,93
850,448	48,02
850,857	47,91
851,267	48,1
851,676	48,08
852,086	48,03
852,495	47,66
852,904	47,98
853,313	47,84
853,722	47,81
854,131	47,85
854,54	48,02
854,949	47,85
855,357	47,85
855,766	47,91
856,174	47,58
856,583	47,8
856,991	47,67
857,399	48,01
857,807	48,11
858,215	47,84
858,623	48,11
859,031	47,89
859,439	48,27
859,846	47,97
860,254	48,25
860,661	47,87
861,069	47,94
861,476	48,06
861,883	47,63
862,29	48,16
862,697	47,81
863,104	47,63
863,511	47,83
863,918	47,7
864,325	47,75
864,731	47,57
865,138	47,9
865,544	47,79
865,95	47,74
866,357	47,91
866,763	48,09
867,169	47,94
867,575	47,81
867,98	48,09
868,386	47,81
868,792	47,7
869,197	47,65
869,603	47,59
870,008	47,99
870,414	47,73
870,819	47,86
871,224	47,61
871,629	47,48
872,034	47,61
872,439	47,86
872,844	47,6
873,248	47,67
873,653	47,59
874,057	47,5
874,462	47,72
874,866	47,67
875,27	47,71
875,674	47,81
876,078	47,75
876,482	47,65
876,886	47,53
877,29	47,49
877,694	47,4
878,097	47,47
878,501	47,42
878,904	47,69
879,308	47,66
879,711	47,67
880,114	47,69
880,517	47,52
880,92	47,64
881,323	48,01
881,726	47,54
882,128	47,5
882,531	47,64
882,934	47,8
883,336	47,31
883,738	47,73
884,141	47,8
884,543	47,71
884,945	47,39
885,347	47,54
885,749	47,53
886,151	47,58
886,552	47,71
886,954	47,73
887,355	47,5
887,757	47,33
888,158	47,68
888,56	47,76
888,961	47,72
889,362	47,89
889,763	47,59
890,164	47,96
890,565	47,8
890,965	47,66
891,366	47,62
891,767	47,91
892,167	47,82
892,567	47,52
892,968	47,52
893,368	47,58
893,768	47,55
894,168	47,41
894,568	47,37
894,968	47,74
895,368	47,68
895,767	47,56
896,167	47,64
896,566	47,34
896,966	47,42
897,365	47,78
897,764	47,73
898,164	47,65
898,563	47,83
898,962	47,95
899,361	47,61
899,759	47,45
900,158	47,41
900,557	47,67
900,955	47,84
901,354	47,57
901,752	47,31
902,15	47,69
902,548	47,4
902,947	47,48
903,345	47,63
903,742	47,73
904,14	47,57
904,538	47,67
904,936	47,78
905,333	47,34
905,731	47,29
906,128	47,37
906,525	47,47
906,923	47,64
907,32	47,56
907,717	47,59
908,114	47,59
908,511	47,51
908,907	47,64
909,304	47,85
909,701	47,5
910,097	47,22
910,494	47,76
910,89	47,44
911,286	47,65
911,682	47,54
912,078	47,48
912,474	47,79
912,87	47,59
913,266	47,5
913,662	47,56
914,058	47,68
914,453	47,58
914,849	47,49
915,244	47,57
915,639	47,67
916,034	47,71
916,43	47,52
916,825	47,59
917,22	47,39
917,614	47,51
918,009	47,4
918,404	47,51
918,798	47,54
919,193	47,32
919,587	47,04
919,982	47,19
920,376	47,74
920,77	47,39
921,164	47,62
921,558	47,87
921,952	47,4
922,346	47,35
922,74	47,54
923,133	47,59
923,527	47,41
923,92	47,21
924,314	47,6
924,707	47,23
925,1	47,45
925,493	47,46
925,886	47,29
926,279	47,36
926,672	47,08
927,065	47,63
927,457	47,13
927,85	47,18
928,243	47,39
928,635	47,06
929,027	47,08
929,42	47,31
929,812	47,31
930,204	47,11
930,596	46,97
930,988	47,64
931,379	47,26
931,771	47,11
932,163	47,87
932,554	47,35
932,946	47,19
933,337	47,39
933,729	46,97
934,12	46,76
934,511	47,41
934,902	47,49
935,293	47,19
935,684	47,11
936,075	46,97
936,465	47,21
936,856	46,95
937,246	47,19
937,637	47,01
938,027	47,36
938,417	46,73
938,808	46,7
939,198	46,83
939,588	46,96
939,978	46,64
940,368	46,89
940,757	47,27
941,147	47,05
941,537	47,27
941,926	46,58
942,315	46,42
942,705	47,03
943,094	46,51
943,483	46,98
943,872	46,97
944,261	47,09
944,65	46,64
945,039	46,99
945,428	47,09
945,816	47,07
946,205	46,69
946,593	47,26
946,982	47,3
947,37	47,04
947,758	47,32
948,146	47,1
948,534	46,86
948,922	46,43
949,31	46,49
949,698	46,89
950,086	46,4
950,473	46,93
950,861	46,63
951,248	46,39
951,636	46,74
952,023	46,23
952,41	47,2
952,797	46,78
953,184	47,03
953,571	46,56
953,958	46,2
954,345	46,42
954,731	46,66
955,118	46,65
955,505	46,65
955,891	46,35
956,277	46,39
956,664	46,64
957,05	46,19
957,436	46,44
957,822	46,42
958,208	46,1
958,594	46,17
958,979	46,27
959,365	46,42
959,751	46,02
960,136	45,92
960,522	46,41
960,907	46,28
961,292	46,21
961,677	46,84
962,062	46,01
962,447	46,45
962,832	46,73
963,217	46,08
963,602	46,26
963,986	45,93
964,371	46,04
964,756	46,12
965,14	46,33
965,524	46
965,908	46,35
966,293	45,94
966,677	46,16
967,061	47,05
967,445	46,4
967,828	46,49
968,212	46,22
968,596	46,36
968,979	46,65
969,363	46,44
969,746	46,28
970,129	45,93
970,513	46,22
970,896	46,13
971,279	45,85
971,662	46,63
972,045	45,88
972,428	46,5
972,81	46,14
973,193	45,97
973,575	46,29
973,958	46,82
974,34	46,13
974,723	46,81
975,105	46,38
975,487	46,21
975,869	46,34
976,251	46,5
976,633	46,54
977,015	45,75
977,396	46,25
977,778	46,26
978,16	46,32
978,541	46,3
978,922	46,07
979,304	46,2
979,685	46,06
980,066	46,4
980,447	46,32
980,828	46,18
981,209	46,42
981,59	46
981,97	46,29
982,351	46,47
982,732	46,25
983,112	46,53
983,493	46,43
983,873	46,46
984,253	46,45
984,633	46,24
985,013	46,29
985,393	46,38
985,773	45,92
986,153	46,55
986,533	46,15
986,912	46,55
987,292	46,55
987,671	46,3
988,051	46,85
988,43	46,46
988,809	46,63
989,188	46,58
989,567	46,56
989,946	46,62
990,325	45,81
990,704	46,52
991,083	46,47
991,461	46,42
991,84	46,35
992,218	46,62
992,597	46,42
992,975	46,67
993,353	46,69
993,732	46,77
994,11	46,2
994,488	46,51
994,866	46,44
995,243	46,21
995,621	46,51
995,999	46,57
996,376	46,91
996,754	46,46
997,131	46,41
997,509	46,51
997,886	46,21
998,263	46,51
998,64	46,3
999,017	46,73
999,394	46,52
999,771	46,44
1000,148	46,21
1000,524	46,8
1000,901	46,49
1001,277	46,94
1001,654	46,6
1002,03	46,93
1002,406	46,95
1002,783	46,36
1003,159	46,73
1003,535	46,85
1003,911	46,44
1004,286	47,28
1004,662	46,78
1005,038	46,62
1005,414	46,46
1005,789	46,88
1006,164	46,42
1006,54	46,62
1006,915	46,7
1007,29	46,54
1007,665	46,43
1008,04	46,97
1008,415	46,56
1008,79	46,95
1009,165	46,86
1009,54	46,87
1009,914	47,34
1010,289	46,71
1010,663	46,69
1011,038	47,44
1011,412	46,61
1011,786	46,7
1012,16	47,17
1012,535	46,98
1012,909	47,34
1013,282	46,76
1013,656	47,1
1014,03	46,83
1014,404	46,83
1014,777	47
1015,151	46,89
1015,524	47,27
1015,897	46,89
1016,271	46,84
1016,644	47,25
1017,017	47,13
1017,39	47,09
1017,763	46,75
1018,136	47,04
1018,508	47,09
1018,881	47,3
1019,254	46,83
1019,626	47,25
1019,999	46,93
1020,371	46,66
1020,743	47,02
1021,116	47,16
1021,488	46,68
1021,86	46,76
1022,232	48,02
1022,604	47,35
1022,975	47,11
1023,347	47,19
1023,719	47,28
1024,09	47,24
1024,462	47,83
1024,833	47,67
1025,204	47,04
1025,576	48,03
1025,947	46,8
1026,318	47,47
1026,689	47,06
1027,06	47,15
1027,431	47,58
1027,801	47,89
1028,172	47,39
1028,543	47,3
1028,913	47,79
1029,284	47,09
1029,654	47,37
1030,024	47,65
1030,394	46,87
1030,764	47,38
1031,135	47,89
1031,504	46,77
1031,874	47,73
1032,244	47,47
1032,614	47,78
1032,983	47,3
1033,353	47,2
1033,722	47,27
1034,092	47,08
1034,461	47,62
1034,83	47,47
1035,2	47,27
1035,569	47,49
1035,938	47,48
1036,307	47,95
1036,675	47,96
1037,044	47,47
1037,413	47,96
1037,781	47,64
1038,15	47,56
1038,518	47,62
1038,887	48,15
1039,255	47,76
1039,623	47,61
1039,991	48,23
1040,359	48,07
1040,727	48,37
1041,095	47,28
1041,463	48,19
1041,831	47,98
1042,198	48,36
1042,566	47,24
1042,933	47,82
1043,301	47,82
1043,668	47,96
1044,035	48,07
1044,402	47,77
1044,77	47,92
1045,137	47,79
1045,503	48,08
1045,87	47,48
1046,237	47,79
1046,604	48,31
1046,97	48,14
1047,337	48,05
1047,703	48,01
1048,07	47,96
1048,436	48,77
1048,802	47,84
1049,168	48,27
1049,534	48,77
1049,9	47,23
1050,266	47,8
1050,632	48,07
1050,998	48,27
1051,364	48,43
1051,729	48,09
1052,095	47,69
1052,46	48,59
1052,825	47,84
1053,191	48,04
1053,556	47,61
1053,921	48,17
1054,286	47,89
1054,651	48,17
1055,016	48,14
1055,381	48,36
1055,745	48,64
1056,11	49,2
1056,475	48,15
1056,839	48,73
1057,203	48,55
1057,568	48,57
1057,932	48,46
1058,296	48,59
1058,66	50
1059,024	48,43
1059,388	48,57
1059,752	48,74
1060,116	48,76
1060,48	49,24
1060,843	48,11
1061,207	47,81
1061,57	49,83
1061,934	48,38
1062,297	48,58
1062,66	48,15
1063,023	49,42
1063,386	48,98
1063,749	48,81
1064,112	48,83
1064,475	49,39
1064,838	48,59
1065,201	49,54
1065,563	48,86
1065,926	48,1
1066,288	48,6
1066,651	48,96
1067,013	47,98
1067,375	49,13
1067,737	48,64
1068,099	48,95
1068,461	48,86
1068,823	48,55
1069,185	49,37
1069,547	49,4
1069,909	48,55
1070,27	49,33
1070,632	49,18
1070,993	47,84
1071,355	49,29
1071,716	48,69
1072,077	48,9
1072,438	49,01
1072,799	48,91
1073,16	49,67
1073,521	49,94
1073,882	49,43
1074,243	50,65
1074,603	49,76
1074,964	50
1075,325	49,26
1075,685	50,19
1076,045	49,35
1076,406	48,82
1076,766	49,3
1077,126	49,55
1077,486	50,15
1077,846	49,08
1078,206	48,84
1078,566	48,38
1078,925	49,05
1079,285	49,56
1079,645	49,55
1080,004	49,03
1080,364	49,89
1080,723	51,15
1081,082	49,02
1081,442	49,96
1081,801	48,42
1082,16	50,02
1082,519	50,24
1082,878	49,82
1083,237	49,25
1083,595	49,52
1083,954	49,79
1084,313	48,82
1084,671	49,83
1085,03	50,46
1085,388	49,66
1085,746	49,44
1086,104	48,47
1086,463	48,9
1086,821	49,83
1087,179	49,44
1087,537	49,44
1087,894	48,87
1088,252	50,65
1088,61	49,48
1088,967	49,61
1089,325	50,07
1089,682	50,55
1090,04	48,86
1090,397	49,15
1090,754	50,17
1091,111	50,2
1091,469	50,07
1091,826	48,8
1092,182	49,2
1092,539	49,43
1092,896	50,08
1093,253	50,57
1093,609	49,67
1093,966	48,13
1094,322	50,24
1094,679	49,48
1095,035	49,59
1095,391	50,22
1095,748	50,17
1096,104	50,19
1096,46	49,83
1096,816	50,07
1097,171	50,56
1097,527	49,64
1097,883	50,54
1098,239	51,16
1098,594	50,84
1098,95	51,13
1099,305	51,35
1099,66	51,44
1100,016	51,19
1100,371	50,13
1100,726	50,33
1101,081	51,33
1101,436	49,69
1101,791	51,11
1102,146	50,18
1102,5	50,73
1102,855	51,14
1103,21	51,72
1103,564	52,34
1103,918	49,08
1104,273	51,77
1104,627	51,18
1104,981	51,13
1105,335	51,52
1105,69	50,17
1106,043	51,33
1106,397	50,62
1106,751	52,26
1107,105	51,04
1107,459	50,67
1107,812	52,19
1108,166	52,71
1108,519	49,84
1108,873	50,53
1109,226	53,2
1109,579	53,25
1109,932	52,32
1110,285	51,85
1110,638	52,59
1110,991	51,51
1111,344	50,54
1111,697	49,9
1112,05	50,36
1112,402	51,4
1112,755	51,12
1113,107	51,34
1113,46	50,66
1113,812	52
1114,164	53,23
1114,517	51,27
1114,869	95,68
1115,221	88,83
1115,573	78,28
1115,924	78,48
