Data from F1__Relative__10__00103.txt Node

Date: Tue Jan 30 18:00:54 CET 2024
User: diatiterra
Spectrometer: HDX00911
Trigger mode: 0
Integration Time (sec): 6,000000E-3
Scans to average: 3
Nonlinearity correction enabled: true
Boxcar width: 0
Storing dark spectrum: false
XAxis mode: Wavelengths
Number of Pixels in Spectrum: 2068
>>>>>Begin Spectral Data<<<<<
194,468	143,56
195,025	126,73
195,581	114,56
196,138	119,45
196,694	110,96
197,251	95,77
197,807	94,13
198,363	91,83
198,919	94,58
199,474	97,75
200,03	94,55
200,586	100
201,141	90,07
201,696	83,6
202,251	92,05
202,806	95,11
203,361	97,68
203,916	91,96
204,471	94,02
205,025	95,13
205,58	96,36
206,134	96,63
206,688	88,14
207,242	91,93
207,796	95,93
208,35	89,97
208,904	91,48
209,457	92,4
210,011	94,52
210,564	90,68
211,117	95,7
211,67	98,48
212,223	96,74
212,776	96,22
213,329	100,44
213,881	99,37
214,434	89,03
214,986	96,58
215,538	94,51
216,09	84,58
216,642	93,82
217,194	88,26
217,746	99,16
218,297	86,44
218,849	96,14
219,4	100
219,951	95,87
220,502	99,38
221,053	90,05
221,604	88,22
222,155	88,09
222,705	92,93
223,256	88,17
223,806	101,4
224,356	88,7
224,906	93,42
225,456	89,87
226,006	85,17
226,556	90,61
227,106	96,16
227,655	91,47
228,204	89,1
228,754	90,37
229,303	89,51
229,852	102,18
230,401	98,55
230,949	96,9
231,498	86,19
232,047	88,72
232,595	97,44
233,143	93,65
233,691	88,06
234,239	88,94
234,787	88,34
235,335	93,55
235,883	92,48
236,43	98,76
236,978	93,9
237,525	88,5
238,072	89,53
238,619	97,4
239,166	87,31
239,713	93,9
240,26	93,15
240,806	92,24
241,353	90,95
241,899	90,62
242,445	91,54
242,991	91,57
243,537	95,56
244,083	94,72
244,629	93,73
245,174	93,88
245,72	87,84
246,265	103,28
246,81	102,66
247,355	92
247,9	99,8
248,445	99,33
248,99	94,57
249,534	100,01
250,079	99,79
250,623	93,58
251,168	91,11
251,712	90,86
252,256	81,6
252,8	93,24
253,343	93,9
253,887	93,47
254,43	103,04
254,974	92,71
255,517	95,77
256,06	92,08
256,603	92,76
257,146	93,69
257,689	100,24
258,232	96,54
258,774	91,63
259,317	90,61
259,859	97,67
260,401	104,49
260,943	95,98
261,485	95,38
262,027	98,23
262,569	91,24
263,11	91,78
263,652	98,63
264,193	98,91
264,734	93,18
265,275	93,38
265,816	101,82
266,357	87,29
266,898	92,43
267,438	102,48
267,979	99,11
268,519	97,81
269,059	94,32
269,6	99,12
270,14	100,02
270,68	90,07
271,219	101,84
271,759	91,89
272,298	87,25
272,838	95,65
273,377	93,59
273,916	92,85
274,455	93,33
274,994	99,13
275,533	93,78
276,072	96,07
276,61	92,8
277,149	92,57
277,687	90,4
278,225	92,29
278,763	102,04
279,301	96,15
279,839	92,28
280,377	95,23
280,914	92,59
281,452	98,42
281,989	98,85
282,526	90,22
283,064	98,72
283,601	95,9
284,137	97,35
284,674	92,62
285,211	100,47
285,747	95,09
286,284	97,28
286,82	93,11
287,356	93,95
287,892	103,35
288,428	88,11
288,964	90,67
289,5	94,6
290,035	95,53
290,571	95,96
291,106	100,51
291,641	94,36
292,176	94,18
292,711	97,84
293,246	94,05
293,781	100,46
294,315	93,25
294,85	101,41
295,384	99,32
295,918	93,24
296,453	93,66
296,987	90,58
297,52	92,28
298,054	90,14
298,588	90,87
299,121	89,38
299,655	87,34
300,188	89,74
300,721	85,69
301,254	96,07
301,787	87,08
302,32	99,32
302,853	83,72
303,385	94,45
303,918	94,04
304,45	86,17
304,982	92,06
305,514	88,55
306,046	85,47
306,578	87,51
307,11	92,28
307,641	90,52
308,173	98,61
308,704	98,41
309,236	94,45
309,767	90,86
310,298	91,98
310,829	93,29
311,359	89,63
311,89	89,45
312,421	90,34
312,951	91,86
313,481	93,14
314,012	89,9
314,542	88,63
315,072	84,66
315,601	87,44
316,131	96,21
316,661	96,29
317,19	98,59
317,72	87,32
318,249	89,13
318,778	89,88
319,307	92,83
319,836	92,41
320,365	97,69
320,893	94,73
321,422	92,83
321,95	90,24
322,479	98,24
323,007	85,25
323,535	93,57
324,063	93,32
324,591	94,1
325,118	91,2
325,646	88,19
326,173	92,11
326,701	92,82
327,228	93,57
327,755	100,28
328,282	94,66
328,809	85,97
329,336	92,55
329,862	94,35
330,389	87,11
330,915	91,14
331,441	90,49
331,968	88,06
332,494	90,9
333,02	94,2
333,545	93,53
334,071	87,34
334,597	87,68
335,122	91,04
335,648	92,7
336,173	95,21
336,698	88,08
337,223	87,29
337,748	83,84
338,272	84,26
338,797	91,74
339,322	88,25
339,846	89,73
340,37	86,11
340,894	90,6
341,419	88,73
341,942	81,23
342,466	82,49
342,99	87,14
343,514	85,47
344,037	79,35
344,56	90,68
345,084	79,86
345,607	86,85
346,13	87,87
346,653	82,38
347,175	80,58
347,698	87,07
348,221	78,15
348,743	81,03
349,265	82,48
349,787	83,03
350,309	80,33
350,831	80,51
351,353	75,16
351,875	75,29
352,397	74,56
352,918	78,97
353,439	82,31
353,961	81,39
354,482	73,11
355,003	70
355,524	73,7
356,044	76,3
356,565	76,49
357,086	74,37
357,606	70,03
358,126	75,33
358,646	76,58
359,167	77,07
359,687	72,69
360,206	69,79
360,726	71,6
361,246	72,91
361,765	70,6
362,285	70,52
362,804	73,11
363,323	73,33
363,842	75,61
364,361	70,34
364,88	67,05
365,398	65,73
365,917	69,23
366,435	68,1
366,954	72,64
367,472	66,13
367,99	69,34
368,508	63,95
369,026	66,14
369,544	63,97
370,061	64,65
370,579	64,01
371,096	66,43
371,613	67,34
372,131	67,05
372,648	62,21
373,165	65,5
373,681	63,03
374,198	65,01
374,715	65,03
375,231	65,54
375,747	61,02
376,264	58,25
376,78	63,56
377,296	63,26
377,812	61,63
378,327	62,43
378,843	57,13
379,359	60,42
379,874	59,91
380,389	57,11
380,905	58,71
381,42	58,99
381,935	57,91
382,449	56,17
382,964	54,17
383,479	53,45
383,993	54,93
384,508	53,64
385,022	51,81
385,536	52,26
386,05	52,22
386,564	54,09
387,078	51,69
387,592	50,66
388,105	48,21
388,619	51,74
389,132	46,86
389,645	49,01
390,158	46,27
390,671	46,01
391,184	44,84
391,697	45,29
392,21	46,92
392,722	45,59
393,235	44,48
393,747	43,37
394,259	43,91
394,771	44,24
395,283	42,42
395,795	43,58
396,307	42,66
396,818	41,97
397,33	41,88
397,841	41,12
398,353	41,88
398,864	41,1
399,375	38,71
399,886	37,26
400,397	37,62
400,907	37,07
401,418	34,87
401,928	36,27
402,439	35,82
402,949	35,04
403,459	33,22
403,969	33,96
404,479	33,34
404,989	31,19
405,498	29,27
406,008	30,41
406,517	30,22
407,027	27,7
407,536	28,03
408,045	26,77
408,554	25,91
409,063	24,6
409,572	24,92
410,08	24,69
410,589	23,17
411,097	22,76
411,606	22,03
412,114	21,57
412,622	20,92
413,13	19,48
413,638	19,74
414,145	18,73
414,653	17,99
415,16	17,65
415,668	17,41
416,175	16,65
416,682	16,57
417,189	16,38
417,696	16,2
418,203	15,6
418,71	15,47
419,216	15,88
419,723	15,41
420,229	15,02
420,735	15,18
421,242	14,67
421,748	14,78
422,254	14,65
422,759	14,23
423,265	14,22
423,771	14,08
424,276	13,69
424,781	13,39
425,287	13,91
425,792	13,64
426,297	13,79
426,802	13,04
427,306	13,17
427,811	13,03
428,316	12,93
428,82	13,06
429,324	13,36
429,829	12,31
430,333	12,55
430,837	12,6
431,34	12,62
431,844	12,54
432,348	12,77
432,851	12,45
433,355	12,31
433,858	12,54
434,361	12,59
434,864	11,96
435,367	11,68
435,87	12,14
436,373	12,36
436,876	12,09
437,378	12,17
437,88	11,74
438,383	12,05
438,885	11,96
439,387	11,91
439,889	12,01
440,391	12,01
440,892	11,7
441,394	11,53
441,896	11,86
442,397	12,01
442,898	11,98
443,399	11,64
443,9	12,07
444,401	11,73
444,902	11,58
445,403	11,7
445,903	11,66
446,404	11,81
446,904	11,56
447,405	11,8
447,905	11,66
448,405	12,17
448,905	12,22
449,404	12,21
449,904	11,93
450,404	11,87
450,903	11,88
451,403	12,28
451,902	11,99
452,401	12,14
452,9	12,2
453,399	11,93
453,898	12,52
454,396	12,22
454,895	12,6
455,393	12,27
455,892	12,45
456,39	12,34
456,888	11,83
457,386	12,02
457,884	12,1
458,382	11,95
458,879	12,2
459,377	12,52
459,874	12,39
460,372	12,43
460,869	12,69
461,366	12,46
461,863	12,27
462,36	12,35
462,857	12,5
463,353	12,22
463,85	12,28
464,346	12,02
464,843	12,42
465,339	12,42
465,835	12,38
466,331	12,14
466,827	12,27
467,323	12,02
467,818	12,23
468,314	12,28
468,809	12,07
469,305	12,38
469,8	12,13
470,295	12,18
470,79	12,34
471,285	12,3
471,78	12,33
472,274	12,45
472,769	12,17
473,263	12,03
473,758	12,04
474,252	12,14
474,746	12,43
475,24	12,1
475,734	12,29
476,228	11,93
476,721	12,07
477,215	12,36
477,708	12,44
478,202	12,46
478,695	12,52
479,188	12,42
479,681	12,38
480,174	12,63
480,667	12,29
481,159	12,56
481,652	12,5
482,144	12,26
482,637	12,54
483,129	12,56
483,621	12,73
484,113	12,68
484,605	12,56
485,097	12,51
485,588	12,49
486,08	12,5
486,571	12,67
487,063	12,58
487,554	12,68
488,045	12,58
488,536	12,84
489,027	12,67
489,518	12,98
490,008	12,84
490,499	12,9
490,989	13,05
491,48	13,07
491,97	13,34
492,46	13,09
492,95	13,05
493,44	13,15
493,93	13,29
494,419	13,01
494,909	13,31
495,398	13,66
495,888	13,61
496,377	13,55
496,866	13,43
497,355	13,84
497,844	13,86
498,333	13,75
498,821	14,06
499,31	14,08
499,798	14,31
500,287	14,08
500,775	14,32
501,263	14,6
501,751	14,84
502,239	15
502,727	15,05
503,215	15,42
503,702	14,89
504,19	15,47
504,677	15,9
505,164	15,7
505,651	16,17
506,139	16,18
506,625	16,44
507,112	16,78
507,599	17,03
508,086	17,17
508,572	17,42
509,058	17,87
509,545	17,86
510,031	18,1
510,517	18,37
511,003	18,95
511,489	19,21
511,974	19,56
512,46	19,94
512,946	19,98
513,431	20,45
513,916	20,84
514,401	21,27
514,887	21,61
515,371	21,94
515,856	22,45
516,341	22,77
516,826	23,28
517,31	23,53
517,795	24,1
518,279	24,85
518,763	25,31
519,247	25,47
519,731	25,73
520,215	26,24
520,699	26,81
521,182	27,23
521,666	28,22
522,149	28,39
522,633	28,64
523,116	28,88
523,599	29,77
524,082	30,39
524,565	30,47
525,048	31,27
525,53	31,25
526,013	32,08
526,495	32,46
526,978	32,8
527,46	33,16
527,942	33,49
528,424	33,67
528,906	34,17
529,388	34,48
529,87	35,13
530,351	35,02
530,833	35,42
531,314	35,6
531,795	36,11
532,277	36,23
532,758	36,72
533,238	36,76
533,719	36,79
534,2	37,17
534,681	37,63
535,161	38,03
535,642	37,78
536,122	37,83
536,602	37,83
537,082	38,49
537,562	38,52
538,042	38,55
538,522	38,43
539,001	38,61
539,481	38,73
539,96	39,21
540,44	39,29
540,919	38,73
541,398	39,06
541,877	39,4
542,356	39,2
542,835	39,14
543,313	39,28
543,792	39,68
544,27	39,41
544,749	39,64
545,227	39,74
545,705	40,4
546,183	39,95
546,661	40
547,139	40,25
547,616	40,1
548,094	40,06
548,571	40,29
549,049	40,11
549,526	40,45
550,003	40,66
550,48	40,56
550,957	40,46
551,434	40,43
551,911	40,31
552,387	40,72
552,864	40,17
553,34	40,55
553,817	40,92
554,293	40,43
554,769	40,81
555,245	40,39
555,721	40,58
556,197	40,33
556,672	40,5
557,148	40,62
557,623	40,47
558,099	40,31
558,574	40,32
559,049	40,05
559,524	40,16
559,999	40,05
560,474	39,81
560,948	39,49
561,423	39,4
561,897	39,26
562,372	39,34
562,846	38,95
563,32	39
563,794	38,9
564,268	38,69
564,742	38,4
565,216	37,99
565,69	38,05
566,163	37,91
566,636	37,49
567,11	37,51
567,583	37,02
568,056	36,66
568,529	36,49
569,002	36,36
569,475	36,06
569,947	35,5
570,42	35,71
570,892	35,22
571,365	34,99
571,837	34,71
572,309	34,7
572,781	34,17
573,253	33,95
573,725	33,55
574,197	33,22
574,668	33,5
575,14	32,87
575,611	32,52
576,082	32,25
576,554	32,14
577,025	31,97
577,496	31,59
577,967	31,46
578,437	31,26
578,908	31,09
579,379	31,08
579,849	30,78
580,319	30,52
580,79	30,29
581,26	30,34
581,73	29,96
582,2	29,79
582,669	29,65
583,139	29,57
583,609	29,25
584,078	29,16
584,548	28,88
585,017	29,07
585,486	28,86
585,955	28,43
586,424	28,48
586,893	28,26
587,362	28,21
587,83	27,87
588,299	27,81
588,767	27,84
589,236	27,79
589,704	27,47
590,172	27,65
590,64	27,31
591,108	27,4
591,576	27,27
592,043	27,06
592,511	27,23
592,978	27,1
593,446	26,7
593,913	26,7
594,38	26,82
594,847	26,72
595,314	26,25
595,781	26,54
596,248	26,48
596,715	26,35
597,181	26,31
597,647	26,38
598,114	26,33
598,58	26,36
599,046	26,26
599,512	26,03
599,978	26,03
600,444	26,14
600,91	26,02
601,375	25,81
601,841	25,81
602,306	25,7
602,771	25,99
603,236	25,8
603,702	25,42
604,167	25,48
604,631	25,4
605,096	25,19
605,561	25,22
606,025	25,18
606,49	24,83
606,954	24,89
607,418	24,68
607,882	24,67
608,347	24,64
608,81	24,35
609,274	24,13
609,738	24,27
610,202	24,19
610,665	23,93
611,128	23,77
611,592	23,64
612,055	23,5
612,518	23,38
612,981	23,22
613,444	22,98
613,907	22,84
614,369	22,7
614,832	22,86
615,294	22,43
615,757	22,43
616,219	22,28
616,681	22,16
617,143	21,98
617,605	21,86
618,067	21,9
618,529	21,74
618,99	21,71
619,452	21,53
619,913	21,46
620,375	21,19
620,836	21,38
621,297	21,16
621,758	21,12
622,219	21,14
622,68	20,93
623,14	20,98
623,601	20,78
624,061	20,8
624,522	20,64
624,982	20,86
625,442	20,69
625,902	20,68
626,362	20,54
626,822	20,73
627,282	20,69
627,742	20,53
628,201	20,54
628,661	20,56
629,12	20,34
629,579	20,47
630,038	20,52
630,497	20,37
630,956	20,49
631,415	20,29
631,874	20,36
632,332	20,28
632,791	20,27
633,249	20,11
633,708	20,08
634,166	20,11
634,624	20,02
635,082	19,68
635,54	19,79
635,998	19,58
636,455	19,68
636,913	19,47
637,37	19,29
637,828	19,29
638,285	19,04
638,742	18,97
639,199	18,78
639,656	18,7
640,113	18,46
640,57	18,43
641,027	18,15
641,483	17,92
641,94	17,75
642,396	17,67
642,852	17,76
643,309	17,41
643,765	17,35
644,221	17,16
644,676	17,04
645,132	16,79
645,588	16,67
646,043	16,38
646,499	16,34
646,954	16,16
647,409	16,26
647,864	15,97
648,319	15,73
648,774	15,64
649,229	15,57
649,684	15,38
650,139	15,36
650,593	15,3
651,047	15,11
651,502	14,98
651,956	14,98
652,41	14,86
652,864	14,76
653,318	14,8
653,772	14,7
654,225	14,62
654,679	14,51
655,133	14,57
655,586	14,4
656,039	14,37
656,492	14,28
656,946	14,1
657,399	14,09
657,851	13,87
658,304	13,8
658,757	13,77
659,209	13,66
659,662	13,48
660,114	13,42
660,567	13,36
661,019	13,27
661,471	13,18
661,923	13,03
662,375	12,96
662,826	12,89
663,278	12,82
663,73	12,78
664,181	12,73
664,632	12,57
665,084	12,49
665,535	12,39
665,986	12,51
666,437	12,39
666,888	12,36
667,338	12,48
667,789	12,32
668,24	12,31
668,69	12,22
669,14	12,45
669,591	12,22
670,041	12,35
670,491	12,32
670,941	12,29
671,391	12,33
671,84	12,28
672,29	12,49
672,74	12,56
673,189	12,47
673,638	12,54
674,088	12,64
674,537	12,64
674,986	12,74
675,435	12,72
675,883	12,87
676,332	12,99
676,781	13,03
677,229	13,18
677,678	13,22
678,126	13,28
678,574	13,41
679,022	13,42
679,47	13,63
679,918	13,74
680,366	13,6
680,814	13,84
681,261	14,01
681,709	14,09
682,156	14,16
682,604	14,43
683,051	14,42
683,498	14,65
683,945	14,86
684,392	14,92
684,839	14,97
685,286	15,11
685,732	15,33
686,179	15,56
686,625	15,75
687,071	15,92
687,518	16,04
687,964	16,42
688,41	16,79
688,856	17,06
689,301	17,54
689,747	17,72
690,193	18,22
690,638	18,56
691,084	19,24
691,529	19,77
691,974	20,35
692,419	20,95
692,864	21,62
693,309	22,27
693,754	22,98
694,199	23,64
694,643	24,47
695,088	25,54
695,532	26,25
695,977	26,87
696,421	27,71
696,865	28,7
697,309	29,58
697,753	30,43
698,197	31,39
698,64	32,39
699,084	33,05
699,527	34,03
699,971	34,9
700,414	35,87
700,857	36,72
701,3	37,53
701,743	38,33
702,186	39,37
702,629	40,18
703,072	41,17
703,515	41,85
703,957	42,5
704,399	43,5
704,842	44,17
705,284	45,09
705,726	46,06
706,168	46,68
706,61	47,86
707,052	48,44
707,494	48,89
707,935	49,88
708,377	50,81
708,818	51,24
709,26	52,15
709,701	52,82
710,142	53,43
710,583	54,19
711,024	54,88
711,465	55,91
711,905	56,32
712,346	56,75
712,787	57,66
713,227	58,26
713,667	59,29
714,108	59,85
714,548	60,26
714,988	60,75
715,428	61,59
715,868	61,98
716,307	62,45
716,747	63,41
717,186	63,93
717,626	64,19
718,065	65,31
718,504	65,34
718,944	66,44
719,383	66,82
719,822	67,27
720,261	67,59
720,699	68,34
721,138	68,55
721,576	69,27
722,015	69,83
722,453	70,44
722,892	70,72
723,33	71,29
723,768	71,96
724,206	72,12
724,644	72,58
725,081	72,88
725,519	73,14
725,957	73,41
726,394	74,09
726,832	74,19
727,269	74,87
727,706	74,95
728,143	75,59
728,58	75,73
729,017	75,84
729,454	76,67
729,89	76,56
730,327	76,64
730,764	77,45
731,2	77,17
731,636	77,88
732,072	77,91
732,509	78,15
732,945	78,25
733,38	78,51
733,816	78,68
734,252	78,87
734,688	78,82
735,123	78,97
735,559	79,58
735,994	79,62
736,429	79,71
736,864	79,74
737,299	79,76
737,734	80,03
738,169	79,78
738,604	80,41
739,038	80,46
739,473	80,52
739,907	80,92
740,342	80,72
740,776	80,28
741,21	80,94
741,644	81,14
742,078	81,07
742,512	81,05
742,946	81,31
743,379	81,46
743,813	81,38
744,246	81,34
744,68	81,51
745,113	81,22
745,546	81,25
745,979	81,51
746,412	81,62
746,845	81,41
747,278	81,74
747,711	81,64
748,143	81,54
748,576	81,49
749,008	81,75
749,441	81,44
749,873	81,12
750,305	81,46
750,737	81,23
751,169	81,6
751,601	81,84
752,032	81,47
752,464	81,49
752,896	81,48
753,327	81,18
753,758	81,5
754,19	81,38
754,621	81,57
755,052	81,48
755,483	81,4
755,914	81,51
756,344	81,48
756,775	81,49
757,206	81,52
757,636	81,09
758,066	81,3
758,497	81,19
758,927	81
759,357	81,22
759,787	81,25
760,217	80,95
760,647	81,05
761,076	81,25
761,506	80,94
761,935	80,75
762,365	80,92
762,794	81,15
763,223	80,83
763,653	81,13
764,082	80,83
764,51	81,02
764,939	80,7
765,368	80,9
765,797	81,12
766,225	80,83
766,654	80,72
767,082	80,49
767,51	80,73
767,938	80,66
768,367	80,66
768,795	80,63
769,222	80,59
769,65	80,97
770,078	80,64
770,505	80,51
770,933	80,22
771,36	80,48
771,788	80,64
772,215	80,57
772,642	80,4
773,069	80,3
773,496	80,19
773,923	80,31
774,349	80,24
774,776	80,02
775,203	80,2
775,629	80,22
776,055	80,36
776,482	80,45
776,908	80,1
777,334	80,03
777,76	80,24
778,186	80,22
778,611	80,18
779,037	80,13
779,463	79,95
779,888	79,73
780,314	79,9
780,739	80,48
781,164	80,22
781,589	80,05
782,014	80,02
782,439	80,29
782,864	79,83
783,289	80,26
783,713	79,88
784,138	79,83
784,562	79,92
784,987	79,76
785,411	79,98
785,835	79,73
786,259	79,62
786,683	79,91
787,107	79,95
787,531	79,72
787,954	79,51
788,378	80,04
788,802	79,94
789,225	79,89
789,648	79,9
790,071	79,74
790,495	79,58
790,918	79,86
791,34	80,06
791,763	80,03
792,186	79,92
792,609	80,18
793,031	79,78
793,454	79,6
793,876	79,57
794,298	79,81
794,721	79,94
795,143	79,79
795,565	79,86
795,986	79,79
796,408	79,87
796,83	79,32
797,252	79,73
797,673	79,49
798,094	79,49
798,516	79,49
798,937	79,68
799,358	79,65
799,779	79,53
800,2	79,52
800,621	79,7
801,042	79,52
801,462	79,51
801,883	79,81
802,303	79,84
802,724	79,71
803,144	79,68
803,564	79,49
803,984	79,65
804,404	79,71
804,824	80,12
805,244	79,7
805,664	79,66
806,084	79,63
806,503	79,83
806,923	79,33
807,342	79,62
807,761	79,17
808,18	79,59
808,599	79,46
809,018	79,26
809,437	79,71
809,856	79,34
810,275	79,41
810,693	79,42
811,112	79,58
811,53	79,55
811,949	79,99
812,367	79,23
812,785	79,51
813,203	79,5
813,621	79,87
814,039	79,5
814,457	79,09
814,874	79,71
815,292	79,81
815,709	79,38
816,127	79,59
816,544	79,63
816,961	79,82
817,378	79,57
817,795	79,49
818,212	79,4
818,629	79,33
819,046	79,45
819,462	79,61
819,879	79,58
820,295	79,05
820,712	79,2
821,128	79,36
821,544	79,22
821,96	79,46
822,376	79,29
822,792	79,24
823,208	79,03
823,624	79,36
824,039	79,37
824,455	79,51
824,87	79,53
825,286	79,27
825,701	79,6
826,116	79,33
826,531	79,27
826,946	79,23
827,361	79,1
827,776	79,23
828,19	78,83
828,605	79,03
829,02	79,56
829,434	79,32
829,848	79,6
830,263	79,4
830,677	79,08
831,091	78,97
831,505	79,49
831,919	79,08
832,332	78,98
832,746	78,96
833,16	79,18
833,573	79,29
833,987	79,26
834,4	78,94
834,813	79,04
835,226	79,04
835,639	78,99
836,052	79,18
836,465	79,11
836,878	79,54
837,29	79,14
837,703	79,35
838,116	79,33
838,528	78,97
838,94	79,08
839,352	78,94
839,765	79,29
840,177	79,27
840,589	79,07
841	79,05
841,412	78,92
841,824	78,62
842,235	78,98
842,647	78,69
843,058	79,14
843,47	79,01
843,881	79
844,292	78,96
844,703	79,25
845,114	79,2
845,525	79,18
845,935	79,29
846,346	79,11
846,757	79,03
847,167	78,83
847,577	79,5
847,988	78,73
848,398	79,1
848,808	78,51
849,218	78,74
849,628	79,03
850,038	79,21
850,448	79
850,857	79,46
851,267	79,07
851,676	78,89
852,086	78,91
852,495	78,86
852,904	79,27
853,313	78,83
853,722	79,15
854,131	78,72
854,54	79,03
854,949	79,01
855,357	78,96
855,766	79,08
856,174	78,92
856,583	78,67
856,991	78,99
857,399	79,08
857,807	79,23
858,215	78,64
858,623	78,93
859,031	79,09
859,439	79,34
859,846	79,13
860,254	79,15
860,661	78,96
861,069	78,83
861,476	79,18
861,883	78,76
862,29	79,04
862,697	78,75
863,104	78,64
863,511	78,6
863,918	78,62
864,325	78,62
864,731	78,21
865,138	78,95
865,544	78,88
865,95	78,66
866,357	78,65
866,763	79,22
867,169	78,77
867,575	78,76
867,98	79,17
868,386	79,13
868,792	78,74
869,197	78,78
869,603	78,45
870,008	78,75
870,414	78,6
870,819	78,67
871,224	78,76
871,629	78,4
872,034	78,89
872,439	78,71
872,844	78,71
873,248	79,26
873,653	78,6
874,057	79,05
874,462	78,37
874,866	79,13
875,27	78,65
875,674	79,02
876,078	78,8
876,482	78,63
876,886	78,82
877,29	78,46
877,694	78,42
878,097	78,39
878,501	78,28
878,904	78,99
879,308	78,53
879,711	78,66
880,114	78,71
880,517	78,43
880,92	78,75
881,323	78,99
881,726	78,73
882,128	78,45
882,531	78,79
882,934	78,93
883,336	78,61
883,738	78,81
884,141	78,63
884,543	78,73
884,945	78,55
885,347	78,84
885,749	78,56
886,151	78,49
886,552	78,31
886,954	78,45
887,355	78,34
887,757	78,58
888,158	78,94
888,56	78,99
888,961	78,76
889,362	78,93
889,763	78,4
890,164	78,77
890,565	78,63
890,965	78,38
891,366	78,9
891,767	79,19
892,167	79,05
892,567	78,47
892,968	78,56
893,368	78,7
893,768	78,31
894,168	78,5
894,568	78,69
894,968	78,93
895,368	78,52
895,767	78,54
896,167	79,02
896,566	78,98
896,966	78,47
897,365	79,05
897,764	78,58
898,164	78,6
898,563	78,69
898,962	78,86
899,361	78,85
899,759	78,32
900,158	78,57
900,557	79,1
900,955	79,23
901,354	78,02
901,752	78,6
902,15	78,45
902,548	78,59
902,947	78,54
903,345	78,66
903,742	78,83
904,14	78,56
904,538	78,51
904,936	78,61
905,333	78,35
905,731	78,51
906,128	78,24
906,525	78,47
906,923	78,51
907,32	78,59
907,717	78,23
908,114	78,33
908,511	78,18
908,907	78,38
909,304	78,62
909,701	78,22
910,097	78,17
910,494	79,03
910,89	78,78
911,286	78,51
911,682	78,77
912,078	78,88
912,474	79,1
912,87	79,15
913,266	78,64
913,662	78,72
914,058	79,1
914,453	78,64
914,849	78,63
915,244	78,39
915,639	78,75
916,034	78,55
916,43	78,73
916,825	78,92
917,22	78,64
917,614	78,49
918,009	78,22
918,404	78,15
918,798	78,67
919,193	78,69
919,587	78,22
919,982	78,32
920,376	78,85
920,77	78,62
921,164	78,66
921,558	78,66
921,952	78,66
922,346	78,23
922,74	78,79
923,133	78,48
923,527	78,47
923,92	78,31
924,314	78,51
924,707	78,26
925,1	78,15
925,493	78,33
925,886	78,24
926,279	78,25
926,672	78,34
927,065	78,48
927,457	78,19
927,85	78,23
928,243	78,26
928,635	78,18
929,027	77,84
929,42	78,11
929,812	78,63
930,204	78,16
930,596	78,33
930,988	78,39
931,379	78,1
931,771	78,28
932,163	78,77
932,554	77,76
932,946	77,49
933,337	78,84
933,729	78,44
934,12	77,82
934,511	78,24
934,902	77,88
935,293	78,11
935,684	77,76
936,075	78,23
936,465	77,43
936,856	77,34
937,246	77,74
937,637	77,84
938,027	78,31
938,417	77,67
938,808	77,88
939,198	78,18
939,588	77,84
939,978	78,02
940,368	77,95
940,757	77,18
941,147	77,96
941,537	78,39
941,926	76,92
942,315	77,39
942,705	77,91
943,094	77,28
943,483	77,12
943,872	77,97
944,261	77,66
944,65	77,78
945,039	77,44
945,428	77,52
945,816	77,6
946,205	76,77
946,593	76,91
946,982	77,53
947,37	77,68
947,758	77,38
948,146	76,98
948,534	76,5
948,922	77,06
949,31	76,63
949,698	77,48
950,086	76,96
950,473	77,2
950,861	76,68
951,248	77,23
951,636	76,73
952,023	76,89
952,41	76,79
952,797	76,66
953,184	76,47
953,571	76,46
953,958	76,25
954,345	76,92
954,731	76,52
955,118	77,18
955,505	76,33
955,891	76,81
956,277	76,15
956,664	76,22
957,05	76,29
957,436	76,91
957,822	76,49
958,208	76,53
958,594	76,15
958,979	75,88
959,365	76
959,751	76,14
960,136	75,99
960,522	75,87
960,907	75,73
961,292	76,49
961,677	76,06
962,062	75,74
962,447	76,5
962,832	75,73
963,217	76,13
963,602	75,86
963,986	75,79
964,371	75,83
964,756	76,01
965,14	76,09
965,524	75,49
965,908	75,16
966,293	75,17
966,677	75,93
967,061	76,63
967,445	75,85
967,828	75,98
968,212	76,72
968,596	75,82
968,979	76,36
969,363	76
969,746	76,03
970,129	75,45
970,513	75,72
970,896	75,96
971,279	76,09
971,662	76,12
972,045	75,76
972,428	75,66
972,81	75,81
973,193	75,81
973,575	76,14
973,958	75,77
974,34	75,84
974,723	75,72
975,105	76,33
975,487	75,73
975,869	75,88
976,251	75,92
976,633	75,61
977,015	75,78
977,396	76,09
977,778	76,24
978,16	75,6
978,541	75,58
978,922	76,07
979,304	76,04
979,685	75,48
980,066	76,47
980,447	75,88
980,828	76
981,209	75,92
981,59	75,71
981,97	75,82
982,351	76,49
982,732	76,23
983,112	75,86
983,493	76,49
983,873	76,25
984,253	75,68
984,633	76,02
985,013	76,18
985,393	75,37
985,773	75,91
986,153	76,71
986,533	76,35
986,912	76,19
987,292	75,79
987,671	76,61
988,051	76,75
988,43	76,61
988,809	76
989,188	76,76
989,567	76,04
989,946	76,67
990,325	75,12
990,704	76
991,083	76,51
991,461	76,11
991,84	75,8
992,218	76,15
992,597	77,04
992,975	75,73
993,353	77,18
993,732	75,88
994,11	75,9
994,488	76,88
994,866	76,63
995,243	76,58
995,621	76,16
995,999	76,27
996,376	76,59
996,754	76,08
997,131	76,31
997,509	76,49
997,886	76,23
998,263	76,57
998,64	76,08
999,017	76,69
999,394	76,58
999,771	76,77
1000,148	76,28
1000,524	76,57
1000,901	76,55
1001,277	77,25
1001,654	76,88
1002,03	76,56
1002,406	76,64
1002,783	77,06
1003,159	76,59
1003,535	76,38
1003,911	77,41
1004,286	77,28
1004,662	76,65
1005,038	76,39
1005,414	76,42
1005,789	77,09
1006,164	76,6
1006,54	76,61
1006,915	76,58
1007,29	76,44
1007,665	76,52
1008,04	77,01
1008,415	76,27
1008,79	77,74
1009,165	76,65
1009,54	77,12
1009,914	78,21
1010,289	76,98
1010,663	77,5
1011,038	77,41
1011,412	76,83
1011,786	78,33
1012,16	77,07
1012,535	77,05
1012,909	77,29
1013,282	77,05
1013,656	77,59
1014,03	77,37
1014,404	77,32
1014,777	77,34
1015,151	78,17
1015,524	78,25
1015,897	77,93
1016,271	78,43
1016,644	77,99
1017,017	77,95
1017,39	77,6
1017,763	77,84
1018,136	77,15
1018,508	77,83
1018,881	78,54
1019,254	77,06
1019,626	77,98
1019,999	77,58
1020,371	77,54
1020,743	78,17
1021,116	77,98
1021,488	76,83
1021,86	77,72
1022,232	77,41
1022,604	77,9
1022,975	78,75
1023,347	77,77
1023,719	77,7
1024,09	78,1
1024,462	78,89
1024,833	77,87
1025,204	78,4
1025,576	77,99
1025,947	78,25
1026,318	78,85
1026,689	78,25
1027,06	78,61
1027,431	78,12
1027,801	78,7
1028,172	78,7
1028,543	78,05
1028,913	78,49
1029,284	78,57
1029,654	77,85
1030,024	78,48
1030,394	77,83
1030,764	77,43
1031,135	78,25
1031,504	78,29
1031,874	78,55
1032,244	78,76
1032,614	78,59
1032,983	78,41
1033,353	78,9
1033,722	78,74
1034,092	78,17
1034,461	78,62
1034,83	78,44
1035,2	78,94
1035,569	78,23
1035,938	78,46
1036,307	79,42
1036,675	79,02
1037,044	78,42
1037,413	79,75
1037,781	79,94
1038,15	79,68
1038,518	78,53
1038,887	78,81
1039,255	78,79
1039,623	78,4
1039,991	78,85
1040,359	79,8
1040,727	79,66
1041,095	79,46
1041,463	78,93
1041,831	79,17
1042,198	79,54
1042,566	78,69
1042,933	78,41
1043,301	79,54
1043,668	78,48
1044,035	79
1044,402	79,74
1044,77	79,7
1045,137	79,04
1045,503	79,18
1045,87	78,72
1046,237	79,7
1046,604	79,9
1046,97	80,36
1047,337	80,61
1047,703	80,26
1048,07	79,7
1048,436	80,04
1048,802	79,12
1049,168	80,55
1049,534	79,8
1049,9	80,46
1050,266	80,33
1050,632	80,16
1050,998	79,57
1051,364	79,54
1051,729	80,23
1052,095	79,54
1052,46	80,09
1052,825	79,28
1053,191	79,25
1053,556	80,29
1053,921	79,43
1054,286	80,48
1054,651	79,81
1055,016	79,75
1055,381	80,86
1055,745	80,27
1056,11	79,96
1056,475	81,35
1056,839	80,69
1057,203	80,11
1057,568	80,98
1057,932	79,62
1058,296	79,75
1058,66	81,6
1059,024	80,33
1059,388	82
1059,752	79,34
1060,116	80,84
1060,48	82,16
1060,843	81,11
1061,207	80,08
1061,57	82,29
1061,934	81,67
1062,297	80,14
1062,66	80,25
1063,023	81,59
1063,386	80,57
1063,749	81,28
1064,112	81,17
1064,475	81,45
1064,838	80,14
1065,201	81,41
1065,563	80,71
1065,926	80,11
1066,288	81,21
1066,651	82,48
1067,013	80,59
1067,375	80,76
1067,737	80,52
1068,099	80,26
1068,461	80,67
1068,823	80,66
1069,185	81,93
1069,547	82,28
1069,909	81,26
1070,27	81,08
1070,632	79,93
1070,993	80,37
1071,355	79,83
1071,716	79,87
1072,077	81,06
1072,438	81,34
1072,799	79,89
1073,16	82,88
1073,521	82,15
1073,882	81,15
1074,243	82,01
1074,603	83
1074,964	80,01
1075,325	80,74
1075,685	81,24
1076,045	81,76
1076,406	80,38
1076,766	80,09
1077,126	80,94
1077,486	82,04
1077,846	82,66
1078,206	80,34
1078,566	79,16
1078,925	81,48
1079,285	82,11
1079,645	81,05
1080,004	81,18
1080,364	81,1
1080,723	83,37
1081,082	79,77
1081,442	81,43
1081,801	81,51
1082,16	81,62
1082,519	80,71
1082,878	80,75
1083,237	81,5
1083,595	83,32
1083,954	80,28
1084,313	81,43
1084,671	82,85
1085,03	81,39
1085,388	81,4
1085,746	80,41
1086,104	79,01
1086,463	81,03
1086,821	82,67
1087,179	81,5
1087,537	81,22
1087,894	79,5
1088,252	83,93
1088,61	82,82
1088,967	80,92
1089,325	83,23
1089,682	81,13
1090,04	79,67
1090,397	81,36
1090,754	81,95
1091,111	81,68
1091,469	82,06
1091,826	80,35
1092,182	81,87
1092,539	82,9
1092,896	81,72
1093,253	81,62
1093,609	82,91
1093,966	82,93
1094,322	82,65
1094,679	81
1095,035	81,74
1095,391	81,56
1095,748	82,08
1096,104	83,65
1096,46	83,89
1096,816	83,11
1097,171	80,54
1097,527	84,98
1097,883	83,43
1098,239	83,86
1098,594	81,58
1098,95	83,28
1099,305	81,67
1099,66	83,4
1100,016	83,35
1100,371	81,49
1100,726	83,09
1101,081	80,48
1101,436	82,3
1101,791	81,66
1102,146	81,41
1102,5	80,75
1102,855	83,85
1103,21	83,58
1103,564	86,12
1103,918	83,84
1104,273	83,7
1104,627	82,86
1104,981	83,18
1105,335	84,04
1105,69	83,73
1106,043	83,35
1106,397	83,66
1106,751	84,45
1107,105	83,63
1107,459	83,85
1107,812	84,62
1108,166	82,54
1108,519	82,96
1108,873	86,09
1109,226	83,85
1109,579	86,84
1109,932	83,12
1110,285	84,75
1110,638	86,32
1110,991	84
1111,344	84,55
1111,697	81,6
1112,05	85,08
1112,402	85,77
1112,755	85
1113,107	83,95
1113,46	84,52
1113,812	86,81
1114,164	83,55
1114,517	82,66
1114,869	126,15
1115,221	120,29
1115,573	119,27
1115,924	112,7
