Data from G2__Relative__10__00123.txt Node

Date: Tue Jan 30 18:04:23 CET 2024
User: diatiterra
Spectrometer: HDX00911
Trigger mode: 0
Integration Time (sec): 6,000000E-3
Scans to average: 3
Nonlinearity correction enabled: true
Boxcar width: 0
Storing dark spectrum: false
XAxis mode: Wavelengths
Number of Pixels in Spectrum: 2068
>>>>>Begin Spectral Data<<<<<
194,468	131,52
195,025	109,32
195,581	112,27
196,138	98,55
196,694	96,22
197,251	83,17
197,807	81,52
198,363	76,31
198,919	77,62
199,474	87,72
200,03	75,47
200,586	75,15
201,141	72,87
201,696	72,98
202,251	79,22
202,806	78
203,361	79,07
203,916	74,69
204,471	80,82
205,025	76,1
205,58	79,59
206,134	76,16
206,688	76,49
207,242	74,05
207,796	77,64
208,35	73,94
208,904	71,48
209,457	75,89
210,011	82,07
210,564	76,03
211,117	86,88
211,67	87,29
212,223	83,94
212,776	80,88
213,329	79,19
213,881	80,5
214,434	76,28
214,986	83,94
215,538	84,55
216,09	79,91
216,642	78,18
217,194	77,97
217,746	76,57
218,297	77,08
218,849	78,54
219,4	80,97
219,951	80,99
220,502	78,97
221,053	74,73
221,604	75,28
222,155	77
222,705	78,38
223,256	79,01
223,806	75,2
224,356	79,71
224,906	74,73
225,456	79,95
226,006	77,38
226,556	77,33
227,106	83,76
227,655	79,83
228,204	82,18
228,754	79,29
229,303	74,39
229,852	81,09
230,401	80,63
230,949	81,61
231,498	73,55
232,047	79,7
232,595	75,81
233,143	79,88
233,691	74,94
234,239	74,94
234,787	77,5
235,335	80,24
235,883	78,1
236,43	80,33
236,978	76,62
237,525	77,61
238,072	77,19
238,619	78,92
239,166	74,84
239,713	77,47
240,26	82,66
240,806	76,11
241,353	77,7
241,899	74,02
242,445	82,03
242,991	77,2
243,537	82,03
244,083	75,65
244,629	75,15
245,174	76,79
245,72	76,54
246,265	86,3
246,81	83,45
247,355	83,36
247,9	84,28
248,445	83,99
248,99	79,35
249,534	81,7
250,079	83,93
250,623	76,54
251,168	77,68
251,712	73,88
252,256	75,81
252,8	80,36
253,343	81,26
253,887	75,68
254,43	83,12
254,974	82,31
255,517	78,54
256,06	86,41
256,603	81,88
257,146	80,62
257,689	80,33
258,232	79,66
258,774	74,25
259,317	79,54
259,859	77,59
260,401	82,34
260,943	80,09
261,485	81,5
262,027	87,57
262,569	80,65
263,11	74,33
263,652	86,16
264,193	75,45
264,734	77,83
265,275	75,72
265,816	81
266,357	79,37
266,898	74,25
267,438	83,19
267,979	81,87
268,519	83,71
269,059	76,59
269,6	76,23
270,14	86,57
270,68	75,5
271,219	81,11
271,759	80,49
272,298	74,94
272,838	76,26
273,377	74,57
273,916	79,62
274,455	68,96
274,994	81,91
275,533	78,45
276,072	82,69
276,61	83,79
277,149	76,86
277,687	83,41
278,225	72,08
278,763	77,31
279,301	75,11
279,839	77,28
280,377	74,41
280,914	70,34
281,452	77,64
281,989	86,41
282,526	72,09
283,064	78,72
283,601	74,73
284,137	75,56
284,674	79,96
285,211	82,37
285,747	80,31
286,284	84,03
286,82	74,22
287,356	78,5
287,892	84,14
288,428	86,35
288,964	72,41
289,5	76,41
290,035	77,81
290,571	79,79
291,106	85,23
291,641	74,67
292,176	77,55
292,711	78,62
293,246	77,02
293,781	76,74
294,315	74,05
294,85	83,43
295,384	85,23
295,918	72,35
296,453	72,65
296,987	76,45
297,52	79,48
298,054	78,29
298,588	78,66
299,121	77,39
299,655	76,4
300,188	82,32
300,721	77,75
301,254	79,22
301,787	76,48
302,32	84,97
302,853	78,8
303,385	80,67
303,918	76,33
304,45	79,91
304,982	86,15
305,514	75,29
306,046	74,1
306,578	75,87
307,11	78,37
307,641	88,48
308,173	79,26
308,704	81,54
309,236	84,01
309,767	77,02
310,298	74,84
310,829	76,69
311,359	72,82
311,89	74,61
312,421	76,68
312,951	77,54
313,481	81,21
314,012	75,79
314,542	75,28
315,072	77,41
315,601	73,19
316,131	80,96
316,661	79,66
317,19	82,08
317,72	75,67
318,249	75,91
318,778	78,88
319,307	72,65
319,836	80,55
320,365	79,92
320,893	76,27
321,422	75
321,95	72,82
322,479	78,68
323,007	75,85
323,535	73,87
324,063	79,25
324,591	81,83
325,118	82,38
325,646	75,49
326,173	80,6
326,701	78,44
327,228	78,67
327,755	89,4
328,282	75
328,809	71,49
329,336	75,12
329,862	78,92
330,389	76,05
330,915	77,39
331,441	76,75
331,968	73,98
332,494	75,35
333,02	76,78
333,545	78,19
334,071	76,23
334,597	76,2
335,122	77,25
335,648	70,2
336,173	79,16
336,698	73,91
337,223	73,56
337,748	71,58
338,272	70,82
338,797	71,42
339,322	73,43
339,846	71,25
340,37	78,71
340,894	80,56
341,419	77,03
341,942	70,88
342,466	65,19
342,99	72,75
343,514	73,41
344,037	68,94
344,56	75,83
345,084	69,55
345,607	71,3
346,13	66,83
346,653	70,9
347,175	69,37
347,698	76,07
348,221	65,03
348,743	68,82
349,265	68,67
349,787	68,78
350,309	68,54
350,831	72,94
351,353	64,25
351,875	65,96
352,397	65,74
352,918	69,42
353,439	68,48
353,961	69,98
354,482	60,95
355,003	59,55
355,524	65,11
356,044	65,96
356,565	62,5
357,086	65,13
357,606	62,35
358,126	65,55
358,646	65,6
359,167	61,89
359,687	62,58
360,206	63,02
360,726	64,93
361,246	64,79
361,765	63,71
362,285	65,45
362,804	63,95
363,323	64,52
363,842	66,94
364,361	64,53
364,88	62,03
365,398	60,17
365,917	71,14
366,435	63,85
366,954	64,45
367,472	61,9
367,99	67,05
368,508	60,37
369,026	63,08
369,544	61,03
370,061	60,25
370,579	58,59
371,096	60,78
371,613	62,96
372,131	60,57
372,648	59,68
373,165	58,79
373,681	58,85
374,198	59,74
374,715	60,17
375,231	62,21
375,747	59,61
376,264	56,14
376,78	59,24
377,296	57,36
377,812	56,41
378,327	57,79
378,843	55,56
379,359	55,93
379,874	58,62
380,389	57,74
380,905	57,22
381,42	55
381,935	57,41
382,449	52,64
382,964	51,7
383,479	54,39
383,993	53,56
384,508	52,26
385,022	50,74
385,536	52,62
386,05	52,22
386,564	50,37
387,078	51,08
387,592	49,61
388,105	48,34
388,619	47,3
389,132	44,93
389,645	47,83
390,158	46,38
390,671	45,32
391,184	43,82
391,697	42,16
392,21	43,17
392,722	44,57
393,235	44,75
393,747	43,74
394,259	43,49
394,771	42,85
395,283	43,94
395,795	42,2
396,307	43,46
396,818	43
397,33	40,71
397,841	40,09
398,353	40,46
398,864	40,09
399,375	37,98
399,886	37,18
400,397	37,06
400,907	35,93
401,418	34,76
401,928	37,07
402,439	33,21
402,949	32,96
403,459	32,64
403,969	32,98
404,479	32,36
404,989	31,71
405,498	29,59
406,008	29,02
406,517	29,42
407,027	27,58
407,536	26,4
408,045	25,31
408,554	24,81
409,063	23,77
409,572	23,56
410,08	23,33
410,589	22,55
411,097	21,7
411,606	21,55
412,114	20,93
412,622	19,61
413,13	19,24
413,638	19,05
414,145	18,44
414,653	17,37
415,16	17,08
415,668	17,05
416,175	16,93
416,682	16,22
417,189	16,04
417,696	15,83
418,203	15
418,71	15,03
419,216	15,16
419,723	14,58
420,229	14,58
420,735	14,74
421,242	14,45
421,748	13,78
422,254	14,04
422,759	13,67
423,265	13,7
423,771	13,02
424,276	13,18
424,781	12,91
425,287	13,29
425,792	13
426,297	13,38
426,802	13,14
427,306	12,86
427,811	13,19
428,316	13,03
428,82	12,42
429,324	12,92
429,829	12,07
430,333	12,23
430,837	12,57
431,34	12,06
431,844	12,31
432,348	12,27
432,851	11,85
433,355	11,75
433,858	12,4
434,361	12,03
434,864	12,07
435,367	11,62
435,87	11,97
436,373	11,73
436,876	11,53
437,378	11,39
437,88	11,64
438,383	11,66
438,885	11,38
439,387	11,56
439,889	11,5
440,391	11,32
440,892	11,51
441,394	11,48
441,896	11,3
442,397	11,55
442,898	11,31
443,399	11,38
443,9	11,44
444,401	11,65
444,902	11,39
445,403	11,56
445,903	11,85
446,404	11,54
446,904	11,41
447,405	11,7
447,905	11,66
448,405	12,11
448,905	12,08
449,404	11,8
449,904	11,63
450,404	11,81
450,903	12,21
451,403	11,84
451,902	12,14
452,401	11,95
452,9	11,96
453,399	12,02
453,898	12,17
454,396	12,01
454,895	12,03
455,393	12,06
455,892	12,17
456,39	12,19
456,888	12,41
457,386	12,16
457,884	12,1
458,382	12,25
458,879	12,24
459,377	12,38
459,874	12,31
460,372	12,43
460,869	12,38
461,366	12,55
461,863	12,52
462,36	12,36
462,857	12,37
463,353	12,22
463,85	12,32
464,346	12,13
464,843	12,33
465,339	12,51
465,835	12,37
466,331	12,42
466,827	12,5
467,323	12,84
467,818	12,32
468,314	12,23
468,809	12,36
469,305	12,36
469,8	12,44
470,295	12,62
470,79	12,45
471,285	12,49
471,78	12,31
472,274	12,38
472,769	12,27
473,263	12,54
473,758	12,39
474,252	12,27
474,746	12,42
475,24	12,41
475,734	12,55
476,228	12,13
476,721	12,44
477,215	12,71
477,708	12,37
478,202	12,37
478,695	12,23
479,188	12,42
479,681	12,18
480,174	12,62
480,667	12,68
481,159	12,73
481,652	12,84
482,144	12,61
482,637	12,61
483,129	12,52
483,621	12,65
484,113	13,06
484,605	12,7
485,097	12,81
485,588	12,65
486,08	12,96
486,571	13,07
487,063	13,01
487,554	12,83
488,045	12,82
488,536	13,04
489,027	12,92
489,518	13,19
490,008	13,48
490,499	13,24
490,989	13,17
491,48	13,55
491,97	13,56
492,46	13,64
492,95	13,73
493,44	13,66
493,93	13,94
494,419	13,74
494,909	14,13
495,398	14,01
495,888	14,36
496,377	14,44
496,866	14,64
497,355	14,7
497,844	14,53
498,333	14,73
498,821	15,17
499,31	15,28
499,798	15,11
500,287	15,49
500,775	15,7
501,263	16,21
501,751	16
502,239	16,47
502,727	16,68
503,215	16,57
503,702	16,85
504,19	17,14
504,677	17,29
505,164	17,73
505,651	17,92
506,139	18,06
506,625	18,3
507,112	18,68
507,599	19,21
508,086	19,25
508,572	19,88
509,058	19,65
509,545	19,82
510,031	20,38
510,517	20,42
511,003	21,13
511,489	21,64
511,974	21,9
512,46	22,28
512,946	22,63
513,431	23,02
513,916	22,93
514,401	23,63
514,887	24,29
515,371	24,64
515,856	24,91
516,341	25,19
516,826	25,71
517,31	25,98
517,795	26,62
518,279	26,99
518,763	27,08
519,247	27,77
519,731	28,1
520,215	28,68
520,699	28,67
521,182	29,53
521,666	30,52
522,149	30,51
522,633	30,97
523,116	30,73
523,599	31,59
524,082	31,99
524,565	32,54
525,048	32,63
525,53	33,13
526,013	33,49
526,495	33,78
526,978	34,21
527,46	34,28
527,942	34,55
528,424	34,73
528,906	34,81
529,388	35,19
529,87	35,79
530,351	35,82
530,833	36,25
531,314	36,12
531,795	36,23
532,277	36,49
532,758	37,36
533,238	37
533,719	37,16
534,2	37,21
534,681	37,61
535,161	37,59
535,642	37,9
536,122	37,37
536,602	37,89
537,082	38,42
537,562	38,11
538,042	37,94
538,522	38,01
539,001	38,19
539,481	38,6
539,96	38,56
540,44	38,64
540,919	38,45
541,398	38,84
541,877	38,98
542,356	38,89
542,835	39,27
543,313	38,71
543,792	38,91
544,27	38,99
544,749	39,06
545,227	38,99
545,705	39,27
546,183	39,41
546,661	39,11
547,139	39,61
547,616	39,47
548,094	39,41
548,571	39,07
549,049	39,29
549,526	39,69
550,003	39,65
550,48	39,54
550,957	39,91
551,434	39,62
551,911	39,37
552,387	39,51
552,864	39,54
553,34	39,81
553,817	39,71
554,293	39,65
554,769	40,2
555,245	39,42
555,721	39,61
556,197	39,5
556,672	39,63
557,148	39,96
557,623	39,67
558,099	39,76
558,574	39,39
559,049	39,53
559,524	39,6
559,999	39,5
560,474	39,57
560,948	39,13
561,423	39,19
561,897	38,64
562,372	38,94
562,846	38,98
563,32	39,02
563,794	38,81
564,268	38,79
564,742	38,27
565,216	38,41
565,69	38,39
566,163	37,95
566,636	37,79
567,11	37,75
567,583	37,45
568,056	37,44
568,529	36,71
569,002	36,87
569,475	36,87
569,947	36,32
570,42	36,2
570,892	35,95
571,365	35,82
571,837	35,83
572,309	35,48
572,781	35,24
573,253	34,94
573,725	34,79
574,197	34,58
574,668	34,81
575,14	34,05
575,611	33,78
576,082	33,72
576,554	33,89
577,025	33,53
577,496	33,23
577,967	33,11
578,437	33
578,908	32,52
579,379	32,64
579,849	32,44
580,319	32,17
580,79	32,01
581,26	31,76
581,73	31,41
582,2	31,63
582,669	31,24
583,139	31,08
583,609	30,79
584,078	30,77
584,548	30,89
585,017	30,5
585,486	30,56
585,955	30,2
586,424	30,06
586,893	30,07
587,362	30,19
587,83	29,94
588,299	29,74
588,767	29,83
589,236	29,51
589,704	29,46
590,172	29,59
590,64	29,18
591,108	29,41
591,576	29,22
592,043	29,12
592,511	28,94
592,978	28,86
593,446	28,82
593,913	28,59
594,38	28,66
594,847	28,42
595,314	28,15
595,781	28,66
596,248	28,61
596,715	28,41
597,181	28,45
597,647	28,5
598,114	28,18
598,58	28,19
599,046	28,07
599,512	28,25
599,978	28,05
600,444	27,98
600,91	27,95
601,375	27,84
601,841	27,86
602,306	27,69
602,771	27,79
603,236	27,8
603,702	27,45
604,167	27,5
604,631	27,4
605,096	27,49
605,561	27,13
606,025	27,15
606,49	27,03
606,954	26,91
607,418	26,75
607,882	26,66
608,347	26,55
608,81	26,72
609,274	26,21
609,738	26,15
610,202	26,16
610,665	25,72
611,128	25,96
611,592	25,76
612,055	25,58
612,518	25,35
612,981	25,53
613,444	25,13
613,907	25,12
614,369	24,97
614,832	25,15
615,294	24,71
615,757	24,51
616,219	24,42
616,681	24,44
617,143	24,09
617,605	24,08
618,067	23,77
618,529	23,72
618,99	23,71
619,452	23,88
619,913	23,61
620,375	23,54
620,836	23,24
621,297	23,34
621,758	23,27
622,219	23,16
622,68	23,05
623,14	23,15
623,601	22,99
624,061	22,85
624,522	22,75
624,982	22,83
625,442	22,87
625,902	23,02
626,362	22,83
626,822	22,98
627,282	22,76
627,742	22,38
628,201	22,47
628,661	22,69
629,12	22,38
629,579	22,46
630,038	22,51
630,497	22,42
630,956	22,38
631,415	22,51
631,874	22,27
632,332	22,22
632,791	22,27
633,249	22,16
633,708	22,09
634,166	22,14
634,624	21,83
635,082	21,58
635,54	21,8
635,998	21,56
636,455	21,39
636,913	21,34
637,37	21,1
637,828	21,11
638,285	20,98
638,742	20,85
639,199	20,55
639,656	20,43
640,113	20,47
640,57	20,23
641,027	20,11
641,483	19,78
641,94	19,67
642,396	19,6
642,852	19,41
643,309	19,05
643,765	18,94
644,221	18,8
644,676	18,66
645,132	18,46
645,588	18,25
646,043	18,03
646,499	17,9
646,954	17,78
647,409	17,72
647,864	17,37
648,319	17,36
648,774	17,15
649,229	16,86
649,684	16,88
650,139	16,69
650,593	16,71
651,047	16,7
651,502	16,55
651,956	16,34
652,41	16,16
652,864	16,23
653,318	16,17
653,772	15,97
654,225	16,02
654,679	15,72
655,133	15,85
655,586	15,73
656,039	15,69
656,492	15,5
656,946	15,31
657,399	15,32
657,851	15,08
658,304	14,95
658,757	14,95
659,209	14,64
659,662	14,52
660,114	14,37
660,567	14,36
661,019	14,01
661,471	14,17
661,923	13,78
662,375	13,85
662,826	13,7
663,278	13,56
663,73	13,31
664,181	13,35
664,632	13,08
665,084	12,94
665,535	13,12
665,986	12,95
666,437	12,82
666,888	12,75
667,338	12,77
667,789	12,64
668,24	12,64
668,69	12,63
669,14	12,66
669,591	12,44
670,041	12,63
670,491	12,5
670,941	12,56
671,391	12,56
671,84	12,69
672,29	12,65
672,74	12,67
673,189	12,7
673,638	12,77
674,088	12,74
674,537	12,86
674,986	12,87
675,435	12,99
675,883	13,04
676,332	13,29
676,781	13,34
677,229	13,46
677,678	13,56
678,126	13,66
678,574	13,8
679,022	13,9
679,47	14
679,918	14,11
680,366	14,32
680,814	14,34
681,261	14,53
681,709	14,77
682,156	14,96
682,604	15,23
683,051	15,34
683,498	15,48
683,945	15,67
684,392	15,89
684,839	16,18
685,286	16,42
685,732	16,58
686,179	16,75
686,625	17,21
687,071	17,48
687,518	17,82
687,964	18,04
688,41	18,59
688,856	19,03
689,301	19,47
689,747	19,93
690,193	20,44
690,638	21,11
691,084	21,53
691,529	22,04
691,974	22,95
692,419	23,49
692,864	24,11
693,309	24,74
693,754	25,48
694,199	26,13
694,643	26,73
695,088	27,4
695,532	28,25
695,977	28,91
696,421	29,76
696,865	30,46
697,309	31,21
697,753	31,74
698,197	32,39
698,64	33,2
699,084	33,64
699,527	34,53
699,971	35,14
700,414	35,64
700,857	36,34
701,3	37,14
701,743	37,45
702,186	38,23
702,629	38,7
703,072	39,14
703,515	39,78
703,957	40,24
704,399	40,76
704,842	41,21
705,284	41,59
705,726	42,12
706,168	42,52
706,61	43,24
707,052	43,4
707,494	43,87
707,935	44,32
708,377	45,05
708,818	45,01
709,26	45,65
709,701	45,85
710,142	46,14
710,583	46,77
711,024	47,05
711,465	47,54
711,905	47,72
712,346	47,69
712,787	48,23
713,227	48,72
713,667	49,18
714,108	49,37
714,548	49,66
714,988	49,45
715,428	49,98
715,868	50,2
716,307	50,27
716,747	50,91
717,186	51,25
717,626	51,33
718,065	51,87
718,504	51,8
718,944	52,47
719,383	52,37
719,822	52,68
720,261	52,96
720,699	53,11
721,138	53,02
721,576	53,59
722,015	53,55
722,453	53,96
722,892	53,92
723,33	54,21
723,768	54,58
724,206	54,71
724,644	54,64
725,081	55,07
725,519	54,87
725,957	54,94
726,394	55,33
726,832	55,34
727,269	55,54
727,706	55,58
728,143	55,77
728,58	55,97
729,017	56,06
729,454	56,17
729,89	56,31
730,327	56,4
730,764	56,46
731,2	56,42
731,636	56,77
732,072	56,86
732,509	56,98
732,945	56,58
733,38	56,91
733,816	56,66
734,252	56,88
734,688	56,74
735,123	56,94
735,559	57,23
735,994	57,3
736,429	57,05
736,864	57,29
737,299	57,05
737,734	57,21
738,169	57,15
738,604	57,35
739,038	57,34
739,473	57,11
739,907	57,25
740,342	57,24
740,776	57,09
741,21	57,6
741,644	57,31
742,078	57,27
742,512	57,34
742,946	57,5
743,379	57,2
743,813	57,2
744,246	57,22
744,68	57,28
745,113	57,11
745,546	56,98
745,979	57,15
746,412	57,07
746,845	56,79
747,278	57,22
747,711	57,04
748,143	57,19
748,576	56,87
749,008	56,66
749,441	56,72
749,873	56,78
750,305	57,1
750,737	56,92
751,169	56,65
751,601	56,84
752,032	56,81
752,464	56,5
752,896	56,56
753,327	56,44
753,758	56,56
754,19	56,6
754,621	56,75
755,052	56,56
755,483	56,35
755,914	56,33
756,344	56,2
756,775	56,41
757,206	56,45
757,636	56,27
758,066	56,19
758,497	56,01
758,927	55,97
759,357	56,23
759,787	56,03
760,217	55,86
760,647	55,92
761,076	55,96
761,506	55,73
761,935	55,8
762,365	55,89
762,794	56,02
763,223	55,89
763,653	55,95
764,082	55,88
764,51	55,96
764,939	55,43
765,368	55,79
765,797	55,8
766,225	55,74
766,654	55,56
767,082	55,46
767,51	55,34
767,938	55,47
768,367	55,36
768,795	55,14
769,222	55,27
769,65	55,38
770,078	55,63
770,505	55,22
770,933	55,26
771,36	55,36
771,788	55,14
772,215	55
772,642	54,84
773,069	55,08
773,496	54,98
773,923	54,81
774,349	54,99
774,776	55,11
775,203	55,02
775,629	54,99
776,055	54,87
776,482	54,96
776,908	54,89
777,334	54,65
777,76	54,86
778,186	54,97
778,611	54,89
779,037	55,03
779,463	54,62
779,888	54,59
780,314	54,53
780,739	54,83
781,164	54,82
781,589	54,54
782,014	54,62
782,439	54,73
782,864	54,71
783,289	54,48
783,713	54,44
784,138	54,48
784,562	54,53
784,987	54,34
785,411	54,52
785,835	54,31
786,259	54,46
786,683	54,48
787,107	54,67
787,531	54,42
787,954	54,31
788,378	54,6
788,802	54,63
789,225	54,46
789,648	54,47
790,071	54,57
790,495	54,08
790,918	54,25
791,34	54,4
791,763	54,29
792,186	54,37
792,609	54,29
793,031	54,14
793,454	54,28
793,876	54,24
794,298	54,17
794,721	54,26
795,143	54,54
795,565	54,22
795,986	54,28
796,408	54,3
796,83	54,02
797,252	54,15
797,673	54,42
798,094	54,21
798,516	54
798,937	54,3
799,358	54,22
799,779	54,06
800,2	54,38
800,621	54,17
801,042	54
801,462	54,17
801,883	54,34
802,303	53,99
802,724	53,87
803,144	54,25
803,564	53,83
803,984	54,19
804,404	54,11
804,824	54,33
805,244	54,14
805,664	54,27
806,084	53,92
806,503	53,98
806,923	54,08
807,342	53,89
807,761	54,06
808,18	54,18
808,599	53,89
809,018	54,02
809,437	54,12
809,856	53,83
810,275	54,01
810,693	54,16
811,112	53,9
811,53	53,94
811,949	54,4
812,367	53,88
812,785	54,04
813,203	54,07
813,621	54,23
814,039	53,98
814,457	53,71
814,874	54,12
815,292	53,88
815,709	54,06
816,127	53,9
816,544	54,11
816,961	54,14
817,378	54,23
817,795	53,99
818,212	53,98
818,629	54,07
819,046	53,71
819,462	53,81
819,879	54,01
820,295	53,71
820,712	53,51
821,128	53,71
821,544	53,95
821,96	53,87
822,376	53,86
822,792	54,08
823,208	53,9
823,624	53,99
824,039	53,88
824,455	53,9
824,87	53,88
825,286	54
825,701	53,81
826,116	53,63
826,531	53,58
826,946	53,79
827,361	53,63
827,776	53,48
828,19	53,49
828,605	53,79
829,02	53,81
829,434	53,57
829,848	54,15
830,263	53,73
830,677	53,84
831,091	53,75
831,505	54,04
831,919	53,8
832,332	53,39
832,746	53,67
833,16	53,54
833,573	53,63
833,987	53,71
834,4	53,75
834,813	53,61
835,226	53,65
835,639	53,36
836,052	53,55
836,465	53,6
836,878	53,94
837,29	53,72
837,703	53,26
838,116	53,7
838,528	53,62
838,94	53,56
839,352	53,66
839,765	53,81
840,177	53,33
840,589	53,95
841	53,65
841,412	53,76
841,824	53,38
842,235	53,32
842,647	53,67
843,058	53,51
843,47	53,63
843,881	53,37
844,292	53,37
844,703	53,82
845,114	53,76
845,525	53,6
845,935	53,65
846,346	53,56
846,757	53,34
847,167	53,37
847,577	53,59
847,988	52,97
848,398	53,24
848,808	53,06
849,218	53,45
849,628	53,34
850,038	53,62
850,448	53,32
850,857	53,63
851,267	53,55
851,676	53,43
852,086	53,61
852,495	53,41
852,904	53,44
853,313	53,17
853,722	53,64
854,131	53,28
854,54	53,36
854,949	53,29
855,357	53,34
855,766	53,51
856,174	53,28
856,583	53,21
856,991	53,57
857,399	53,33
857,807	53,65
858,215	53,38
858,623	53,61
859,031	53,44
859,439	53,22
859,846	53,35
860,254	53,64
860,661	53,17
861,069	53,28
861,476	53,57
861,883	52,97
862,29	53,4
862,697	53,25
863,104	53,32
863,511	53,35
863,918	53,11
864,325	53,12
864,731	52,65
865,138	53,16
865,544	53,27
865,95	53,17
866,357	53,25
866,763	53,61
867,169	53,14
867,575	53,13
867,98	53,34
868,386	53,54
868,792	53
869,197	53,23
869,603	53,29
870,008	53,38
870,414	53,17
870,819	52,95
871,224	52,98
871,629	52,97
872,034	53,13
872,439	53,22
872,844	53,11
873,248	53,2
873,653	53,07
874,057	53,31
874,462	53,2
874,866	53,25
875,27	53,33
875,674	53,13
876,078	53,22
876,482	53,15
876,886	53,05
877,29	52,88
877,694	53,06
878,097	52,98
878,501	52,62
878,904	52,98
879,308	52,92
879,711	52,91
880,114	53,31
880,517	52,97
880,92	53,43
881,323	53,39
881,726	53,24
882,128	52,95
882,531	53,35
882,934	53,01
883,336	52,92
883,738	53,19
884,141	53,38
884,543	53,26
884,945	52,98
885,347	53,05
885,749	52,88
886,151	53,06
886,552	52,83
886,954	52,82
887,355	52,85
887,757	52,69
888,158	53,15
888,56	53,28
888,961	53,12
889,362	53,22
889,763	52,82
890,164	53,17
890,565	53,21
890,965	53,24
891,366	53,29
891,767	53,43
892,167	52,92
892,567	53,06
892,968	53,12
893,368	53,03
893,768	52,73
894,168	53,11
894,568	53,12
894,968	53,03
895,368	52,97
895,767	53
896,167	53,09
896,566	53,03
896,966	53,07
897,365	53,29
897,764	53,09
898,164	53,2
898,563	53,28
898,962	53,37
899,361	53,47
899,759	53,2
900,158	52,78
900,557	53,2
900,955	52,96
901,354	52,76
901,752	53,02
902,15	52,82
902,548	53,1
902,947	53,01
903,345	53,09
903,742	53,24
904,14	53,32
904,538	52,97
904,936	53,09
905,333	52,99
905,731	53,08
906,128	52,84
906,525	52,87
906,923	53,16
907,32	53,06
907,717	53
908,114	53,14
908,511	52,77
908,907	52,92
909,304	52,95
909,701	53,03
910,097	52,93
910,494	53,27
910,89	52,87
911,286	53,13
911,682	53,2
912,078	53,5
912,474	53,2
912,87	53,13
913,266	52,92
913,662	53
914,058	53,02
914,453	53,36
914,849	52,83
915,244	52,96
915,639	53,13
916,034	53,19
916,43	53,1
916,825	53,43
917,22	53,24
917,614	53,03
918,009	52,82
918,404	52,68
918,798	52,95
919,193	52,81
919,587	53,01
919,982	52,82
920,376	52,87
920,77	53,17
921,164	53,11
921,558	53,12
921,952	52,68
922,346	52,59
922,74	53,36
923,133	52,82
923,527	52,85
923,92	52,84
924,314	52,58
924,707	52,98
925,1	52,89
925,493	52,79
925,886	52,7
926,279	52,58
926,672	52,67
927,065	52,62
927,457	52,92
927,85	52,55
928,243	52,91
928,635	52,94
929,027	52,7
929,42	52,93
929,812	52,88
930,204	52,82
930,596	52,91
930,988	52,91
931,379	52,82
931,771	52,41
932,163	52,98
932,554	52,77
932,946	52,54
933,337	52,85
933,729	52,95
934,12	52,65
934,511	52,37
934,902	52,35
935,293	52,52
935,684	52,32
936,075	53,08
936,465	52,29
936,856	52,35
937,246	52,61
937,637	52,15
938,027	53,25
938,417	52,37
938,808	52,65
939,198	52,26
939,588	52,69
939,978	52,81
940,368	52,36
940,757	52,22
941,147	52,64
941,537	53,17
941,926	52,19
942,315	52,12
942,705	52,12
943,094	52,14
943,483	53,04
943,872	52,4
944,261	52,91
944,65	52,79
945,039	52,61
945,428	52,21
945,816	52,93
946,205	52,54
946,593	52,27
946,982	52,88
947,37	52,72
947,758	52,12
948,146	52,25
948,534	51,71
948,922	52,29
949,31	51,35
949,698	51,83
950,086	52,12
950,473	52,37
950,861	52,02
951,248	52,1
951,636	52,48
952,023	52,08
952,41	51,67
952,797	51,91
953,184	51,64
953,571	52
953,958	51,53
954,345	51,79
954,731	51,96
955,118	51,86
955,505	51,96
955,891	52,3
956,277	51,65
956,664	51,88
957,05	51,08
957,436	51,99
957,822	51,73
958,208	51,6
958,594	51,73
958,979	51,47
959,365	51,33
959,751	51,35
960,136	51,47
960,522	51,9
960,907	51,58
961,292	52,2
961,677	51,74
962,062	51,43
962,447	51,85
962,832	51,25
963,217	51,26
963,602	51,39
963,986	51,23
964,371	51,33
964,756	51,46
965,14	51,66
965,524	51,06
965,908	50,74
966,293	51,43
966,677	51,5
967,061	51,62
967,445	51,44
967,828	51,58
968,212	52,11
968,596	51,75
968,979	51,67
969,363	51,54
969,746	51,53
970,129	51,11
970,513	51,28
970,896	51,66
971,279	51,34
971,662	51,78
972,045	51,44
972,428	51,39
972,81	51,53
973,193	51,65
973,575	51,68
973,958	51,39
974,34	51,74
974,723	51,31
975,105	51,83
975,487	51,95
975,869	51,81
976,251	51,69
976,633	51,72
977,015	51,68
977,396	51,53
977,778	51,61
978,16	51,45
978,541	51,38
978,922	51,62
979,304	51,7
979,685	51,34
980,066	51,99
980,447	51,41
980,828	51,63
981,209	51,79
981,59	51,86
981,97	51,39
982,351	51,96
982,732	51,63
983,112	52
983,493	51,96
983,873	51,88
984,253	51,84
984,633	51,89
985,013	51,35
985,393	51,67
985,773	51,95
986,153	51,44
986,533	51,89
986,912	51,46
987,292	51,84
987,671	51,7
988,051	52,2
988,43	51,7
988,809	51,83
989,188	52,16
989,567	51,31
989,946	52,22
990,325	51,69
990,704	51,91
991,083	52,53
991,461	51,8
991,84	51,47
992,218	52,1
992,597	52,5
992,975	51,73
993,353	52,45
993,732	51,94
994,11	51,61
994,488	52,1
994,866	51,79
995,243	52,01
995,621	52,26
995,999	51,95
996,376	52,49
996,754	51,55
997,131	51,98
997,509	51,76
997,886	51,75
998,263	51,9
998,64	51,62
999,017	52,74
999,394	52
999,771	52,22
1000,148	51,69
1000,524	52,17
1000,901	51,99
1001,277	52,23
1001,654	52,46
1002,03	52,23
1002,406	52,11
1002,783	52,28
1003,159	51,64
1003,535	51,99
1003,911	52,41
1004,286	53,21
1004,662	52,21
1005,038	52,41
1005,414	51,92
1005,789	52,46
1006,164	51,88
1006,54	52,59
1006,915	52,36
1007,29	52,11
1007,665	52,08
1008,04	52,38
1008,415	52,45
1008,79	53,05
1009,165	52,53
1009,54	52,84
1009,914	53,23
1010,289	52,82
1010,663	52,47
1011,038	52,89
1011,412	52,47
1011,786	52,68
1012,16	52,75
1012,535	52,14
1012,909	52,91
1013,282	52,37
1013,656	52,48
1014,03	52,61
1014,404	52,94
1014,777	52,61
1015,151	53,04
1015,524	52,8
1015,897	53,16
1016,271	52,98
1016,644	53,14
1017,017	53,45
1017,39	53,1
1017,763	53,2
1018,136	52,99
1018,508	52,47
1018,881	53,19
1019,254	52,62
1019,626	52,82
1019,999	52,83
1020,371	52,6
1020,743	52,62
1021,116	52,75
1021,488	53,06
1021,86	52,57
1022,232	53,16
1022,604	52,62
1022,975	53,01
1023,347	53,05
1023,719	53,06
1024,09	53,19
1024,462	53,36
1024,833	53,11
1025,204	53,72
1025,576	53,42
1025,947	52,95
1026,318	53,54
1026,689	53,38
1027,06	53,57
1027,431	53,65
1027,801	53,62
1028,172	52,95
1028,543	53,58
1028,913	53,9
1029,284	53,25
1029,654	53,26
1030,024	53,88
1030,394	53,35
1030,764	52,7
1031,135	53,38
1031,504	53,02
1031,874	53,41
1032,244	53,25
1032,614	53,37
1032,983	53,17
1033,353	53,41
1033,722	53,11
1034,092	53,48
1034,461	54,07
1034,83	53,61
1035,2	54,1
1035,569	54,31
1035,938	53,47
1036,307	54,53
1036,675	54,15
1037,044	53,44
1037,413	53,79
1037,781	54,18
1038,15	53,66
1038,518	53,33
1038,887	54,76
1039,255	54,16
1039,623	54,21
1039,991	54,07
1040,359	53,95
1040,727	53,68
1041,095	54,15
1041,463	54,16
1041,831	54,36
1042,198	54
1042,566	53,21
1042,933	53,79
1043,301	54,45
1043,668	53,36
1044,035	54,06
1044,402	54,35
1044,77	53,93
1045,137	54,31
1045,503	54,22
1045,87	53,27
1046,237	54,7
1046,604	54,3
1046,97	54,77
1047,337	54,78
1047,703	54,63
1048,07	54,77
1048,436	54,82
1048,802	54,39
1049,168	54,43
1049,534	55,56
1049,9	54,2
1050,266	53,97
1050,632	54,77
1050,998	54,12
1051,364	55,64
1051,729	54,71
1052,095	53,63
1052,46	54,71
1052,825	54,36
1053,191	54,14
1053,556	55,52
1053,921	54,07
1054,286	54,43
1054,651	54,43
1055,016	54,18
1055,381	55,17
1055,745	54,68
1056,11	54,56
1056,475	55,74
1056,839	55,74
1057,203	54,72
1057,568	55,41
1057,932	55,14
1058,296	54,89
1058,66	55,99
1059,024	55,12
1059,388	55,26
1059,752	55,09
1060,116	54,94
1060,48	55,95
1060,843	56,04
1061,207	55,23
1061,57	57,11
1061,934	55,99
1062,297	55,08
1062,66	55,47
1063,023	55,54
1063,386	55,35
1063,749	55,65
1064,112	54,92
1064,475	56,21
1064,838	55,28
1065,201	55,88
1065,563	54,92
1065,926	54,73
1066,288	54,54
1066,651	56,02
1067,013	55,58
1067,375	56,29
1067,737	55,2
1068,099	55,97
1068,461	56,15
1068,823	55,01
1069,185	55,27
1069,547	55,67
1069,909	55,95
1070,27	55,28
1070,632	55,05
1070,993	55,19
1071,355	55,59
1071,716	54,21
1072,077	55,27
1072,438	56,17
1072,799	56,07
1073,16	57,17
1073,521	56,92
1073,882	55,11
1074,243	56,53
1074,603	56,41
1074,964	54,61
1075,325	56,13
1075,685	55,41
1076,045	56,21
1076,406	56,01
1076,766	55,4
1077,126	56,65
1077,486	56,16
1077,846	56,02
1078,206	56,09
1078,566	55,43
1078,925	55,98
1079,285	57,26
1079,645	55,61
1080,004	56,24
1080,364	57,47
1080,723	57,58
1081,082	56,37
1081,442	56,7
1081,801	56,19
1082,16	56,13
1082,519	55,69
1082,878	56,36
1083,237	55,33
1083,595	57,19
1083,954	57,58
1084,313	54,76
1084,671	56,87
1085,03	55,82
1085,388	56,67
1085,746	55,96
1086,104	55
1086,463	56,42
1086,821	57,23
1087,179	56,45
1087,537	57,12
1087,894	55,8
1088,252	57,37
1088,61	58,49
1088,967	57,02
1089,325	57,83
1089,682	56,09
1090,04	55,51
1090,397	56,08
1090,754	56,93
1091,111	57,46
1091,469	57,05
1091,826	56,58
1092,182	56,09
1092,539	57,44
1092,896	56,82
1093,253	55,56
1093,609	56,46
1093,966	57,35
1094,322	58,24
1094,679	57,33
1095,035	58,8
1095,391	58,17
1095,748	57,5
1096,104	58,26
1096,46	57,26
1096,816	56,61
1097,171	57,08
1097,527	57,96
1097,883	57,77
1098,239	58,05
1098,594	57,67
1098,95	58,26
1099,305	57,6
1099,66	58,17
1100,016	58,56
1100,371	57,34
1100,726	57,95
1101,081	56,95
1101,436	58,31
1101,791	57,58
1102,146	57,24
1102,5	57,2
1102,855	57,81
1103,21	59,37
1103,564	59,01
1103,918	57,89
1104,273	60,28
1104,627	56,64
1104,981	57,02
1105,335	59,7
1105,69	57,69
1106,043	59,13
1106,397	60,03
1106,751	59,29
1107,105	58,14
1107,459	56,58
1107,812	59,48
1108,166	60,43
1108,519	57,91
1108,873	58,96
1109,226	58,02
1109,579	60,15
1109,932	60,53
1110,285	58,27
1110,638	60,1
1110,991	59,6
1111,344	57,47
1111,697	59,99
1112,05	61,12
1112,402	58,74
1112,755	59,4
1113,107	56,52
1113,46	60,62
1113,812	60,09
1114,164	60,33
1114,517	60,45
1114,869	109,96
1115,221	105,02
1115,573	98,55
1115,924	98,56
