Data from G4__Relative__1__00125.txt Node

Date: Tue Jan 30 18:06:05 CET 2024
User: diatiterra
Spectrometer: HDX00911
Trigger mode: 0
Integration Time (sec): 6,000000E-3
Scans to average: 3
Nonlinearity correction enabled: true
Boxcar width: 0
Storing dark spectrum: false
XAxis mode: Wavelengths
Number of Pixels in Spectrum: 2068
>>>>>Begin Spectral Data<<<<<
194,468	142,66
195,025	112,22
195,581	121,44
196,138	111,27
196,694	107,35
197,251	86,74
197,807	88,03
198,363	81,56
198,919	85,01
199,474	91,83
200,03	82,18
200,586	78,38
201,141	81,57
201,696	76,15
202,251	78,81
202,806	83,09
203,361	80,55
203,916	76,09
204,471	84,74
205,025	79,95
205,58	81,41
206,134	81,44
206,688	75,69
207,242	83,09
207,796	84,55
208,35	77,14
208,904	78,6
209,457	78,92
210,011	85,23
210,564	82,36
211,117	82,99
211,67	91,9
212,223	84,75
212,776	86,13
213,329	88,85
213,881	86,16
214,434	82,46
214,986	84,15
215,538	84,75
216,09	84,78
216,642	83,12
217,194	86,2
217,746	81,59
218,297	79,87
218,849	87,56
219,4	84,99
219,951	82,44
220,502	83,71
221,053	77,01
221,604	76,65
222,155	85,83
222,705	80,25
223,256	79,01
223,806	81,2
224,356	82,64
224,906	81,53
225,456	85,9
226,006	84,59
226,556	76,35
227,106	85,69
227,655	80,66
228,204	81,55
228,754	86,82
229,303	84,27
229,852	81,53
230,401	87,09
230,949	84,3
231,498	79,49
232,047	79,7
232,595	88,87
233,143	79,66
233,691	79,71
234,239	79,08
234,787	80,77
235,335	80,24
235,883	84,74
236,43	85,5
236,978	83,13
237,525	81,31
238,072	78,03
238,619	85,44
239,166	76,82
239,713	81,53
240,26	82,87
240,806	80,6
241,353	80,51
241,899	81,83
242,445	86,89
242,991	80,69
243,537	87,53
244,083	79,1
244,629	84,84
245,174	82,7
245,72	82,72
246,265	86,3
246,81	86,76
247,355	85,31
247,9	85,75
248,445	88,8
248,99	85,22
249,534	90,85
250,079	90,54
250,623	82,96
251,168	79,54
251,712	78,55
252,256	76,85
252,8	84,25
253,343	84,84
253,887	77,07
254,43	85,67
254,974	80,1
255,517	85,7
256,06	81,42
256,603	84,65
257,146	86,72
257,689	89,71
258,232	82,69
258,774	86,48
259,317	81,42
259,859	79,91
260,401	87,49
260,943	86,02
261,485	83,48
262,027	82,68
262,569	81,46
263,11	82,34
263,652	83,62
264,193	79,43
264,734	88,28
265,275	83,89
265,816	85,75
266,357	81,25
266,898	85,07
267,438	80,27
267,979	85,73
268,519	88,78
269,059	86,22
269,6	83,56
270,14	82,93
270,68	77,93
271,219	81,11
271,759	81,14
272,298	79,69
272,838	86,72
273,377	78,85
273,916	76,47
274,455	76,87
274,994	81,69
275,533	79,78
276,072	82,47
276,61	87,17
277,149	76,22
277,687	79,48
278,225	79,16
278,763	90,12
279,301	78,98
279,839	85,92
280,377	79,18
280,914	77,33
281,452	87,46
281,989	83,12
282,526	79,43
283,064	84,95
283,601	75,59
284,137	86,23
284,674	80,38
285,211	89,38
285,747	81,81
286,284	85,4
286,82	77,55
287,356	80,8
287,892	85,8
288,428	77,97
288,964	76,35
289,5	83,77
290,035	85,66
290,571	81,07
291,106	86,18
291,641	79,88
292,176	82,75
292,711	76,89
293,246	82,13
293,781	83,68
294,315	76,16
294,85	88,04
295,384	83,12
295,918	82,48
296,453	77,68
296,987	79,02
297,52	77,05
298,054	80,92
298,588	82,65
299,121	79,42
299,655	76,4
300,188	77,51
300,721	74,23
301,254	82,5
301,787	78,18
302,32	87,32
302,853	75,16
303,385	82,23
303,918	81,6
304,45	72,13
304,982	79,33
305,514	76,41
306,046	75,79
306,578	76,51
307,11	79,26
307,641	80,11
308,173	80,91
308,704	85,7
309,236	80,99
309,767	80,22
310,298	70,72
310,829	75,12
311,359	71,99
311,89	75,51
312,421	77,31
312,951	83,7
313,481	80,06
314,012	73,48
314,542	72
315,072	76,55
315,601	77,87
316,131	82,3
316,661	79,66
317,19	78,01
317,72	70,89
318,249	77,4
318,778	76,94
319,307	74,44
319,836	76,52
320,365	78,99
320,893	79,12
321,422	79,78
321,95	74,31
322,479	81,79
323,007	72,43
323,535	72,37
324,063	81,04
324,591	79,55
325,118	77,97
325,646	78,12
326,173	76,53
326,701	81,93
327,228	80,45
327,755	80,94
328,282	75
328,809	79,83
329,336	76,25
329,862	68,26
330,389	76,28
330,915	76,73
331,441	72,09
331,968	75,05
332,494	72,72
333,02	75,49
333,545	76,46
334,071	75,56
334,597	74,94
335,122	75,72
335,648	74,78
336,173	78,12
336,698	72,07
337,223	77,25
337,748	74,89
338,272	68,73
338,797	74,24
339,322	75,83
339,846	75,36
340,37	74,22
340,894	76,5
341,419	70,77
341,942	68,73
342,466	66,46
342,99	72,16
343,514	70,14
344,037	70,61
344,56	69,1
345,084	64,66
345,607	70,69
346,13	70,93
346,653	65,34
347,175	67,47
347,698	72,65
348,221	64,66
348,743	61,74
349,265	65,54
349,787	67
350,309	68,72
350,831	65,38
351,353	60,12
351,875	65,79
352,397	57,08
352,918	60,38
353,439	61,21
353,961	58,91
354,482	58,61
355,003	58,77
355,524	58,86
356,044	59,73
356,565	60,38
357,086	60,05
357,606	55
358,126	59,74
358,646	53,55
359,167	55,7
359,687	56,55
360,206	54,72
360,726	55,44
361,246	55,34
361,765	52,84
362,285	55,31
362,804	54,39
363,323	53,58
363,842	52,01
364,361	53,86
364,88	53,48
365,398	49,69
365,917	49,33
366,435	51,21
366,954	48,87
367,472	49,07
367,99	53,31
368,508	48,77
369,026	46,09
369,544	50,49
370,061	49,01
370,579	47,63
371,096	48,35
371,613	50,77
372,131	50,86
372,648	47,56
373,165	44,74
373,681	47,35
374,198	45,71
374,715	43,59
375,231	46,19
375,747	45,39
376,264	40,93
376,78	42,57
377,296	41,81
377,812	40,83
378,327	43,1
378,843	38,73
379,359	40,8
379,874	42,79
380,389	39,44
380,905	40,51
381,42	37,54
381,935	40,18
382,449	37,57
382,964	37,3
383,479	35,21
383,993	36,39
384,508	36,55
385,022	34,35
385,536	35,49
386,05	33,47
386,564	34,91
387,078	33,31
387,592	32,16
388,105	29,82
388,619	32,56
389,132	30,75
389,645	32,94
390,158	31,1
390,671	30,48
391,184	30,01
391,697	27,82
392,21	28,26
392,722	29,46
393,235	28,9
393,747	27,97
394,259	26,96
394,771	27,54
395,283	26,66
395,795	26,85
396,307	27,62
396,818	26,69
397,33	26,87
397,841	24,96
398,353	24,85
398,864	24,89
399,375	24,98
399,886	23,87
400,397	21,84
400,907	22,03
401,418	21,71
401,928	22,04
402,439	21,14
402,949	20,28
403,459	20,55
403,969	19,81
404,479	19,89
404,989	18,17
405,498	18,55
406,008	17,49
406,517	16,86
407,027	17,28
407,536	16,29
408,045	15,22
408,554	14,71
409,063	14,14
409,572	13,67
410,08	14,11
410,589	12,95
411,097	13,17
411,606	11,97
412,114	12,19
412,622	11,68
413,13	11,81
413,638	11,33
414,145	10,61
414,653	10,15
415,16	9,93
415,668	9,89
416,175	9,15
416,682	9,37
417,189	8,87
417,696	9,32
418,203	8,86
418,71	9,2
419,216	8,32
419,723	8,67
420,229	8,36
420,735	8,03
421,242	7,99
421,748	7,72
422,254	7,86
422,759	7,53
423,265	7,45
423,771	7,3
424,276	6,96
424,781	7,25
425,287	7,13
425,792	7,08
426,297	7,27
426,802	6,87
427,306	6,95
427,811	7,02
428,316	7,09
428,82	6,77
429,324	6,66
429,829	6,59
430,333	6,77
430,837	6,6
431,34	6,47
431,844	6,45
432,348	6,7
432,851	6,21
433,355	6,37
433,858	6,26
434,361	6,41
434,864	6,12
435,367	6,03
435,87	6,46
436,373	6,2
436,876	5,88
437,378	5,84
437,88	6,07
438,383	6,16
438,885	6,06
439,387	6,11
439,889	5,9
440,391	5,89
440,892	5,94
441,394	5,81
441,896	5,75
442,397	5,69
442,898	5,67
443,399	5,7
443,9	6,01
444,401	5,61
444,902	5,47
445,403	5,6
445,903	5,68
446,404	5,58
446,904	5,66
447,405	5,78
447,905	5,6
448,405	6,08
448,905	6,11
449,404	5,88
449,904	5,94
450,404	6,11
450,903	5,89
451,403	5,68
451,902	5,88
452,401	5,88
452,9	5,8
453,399	5,87
453,898	6
454,396	6,01
454,895	6,12
455,393	5,98
455,892	5,96
456,39	6,11
456,888	5,87
457,386	6,02
457,884	5,99
458,382	5,92
458,879	5,89
459,377	6,18
459,874	5,94
460,372	6
460,869	6,01
461,366	5,92
461,863	5,93
462,36	6,01
462,857	5,95
463,353	5,98
463,85	5,95
464,346	5,98
464,843	5,92
465,339	6,3
465,835	5,97
466,331	6
466,827	5,93
467,323	5,73
467,818	5,99
468,314	5,91
468,809	5,87
469,305	5,92
469,8	5,75
470,295	5,83
470,79	5,79
471,285	5,81
471,78	5,82
472,274	5,93
472,769	5,98
473,263	5,93
473,758	5,94
474,252	6,05
474,746	5,96
475,24	5,89
475,734	5,94
476,228	5,83
476,721	5,91
477,215	5,96
477,708	5,93
478,202	5,87
478,695	5,81
479,188	5,98
479,681	5,91
480,174	5,87
480,667	5,98
481,159	5,97
481,652	5,98
482,144	5,88
482,637	5,94
483,129	6,1
483,621	5,94
484,113	6,02
484,605	6,19
485,097	5,85
485,588	6,2
486,08	6,06
486,571	6,06
487,063	6,13
487,554	6,14
488,045	6,15
488,536	6,16
489,027	6,22
489,518	6,19
490,008	6,24
490,499	6,31
490,989	6,25
491,48	6,4
491,97	6,46
492,46	6,41
492,95	6,56
493,44	6,47
493,93	6,67
494,419	6,67
494,909	6,76
495,398	7,02
495,888	6,83
496,377	6,91
496,866	7,04
497,355	7,16
497,844	7,32
498,333	7,29
498,821	7,23
499,31	7,55
499,798	7,3
500,287	7,75
500,775	7,82
501,263	7,94
501,751	8,23
502,239	8,17
502,727	8,24
503,215	8,49
503,702	8,72
504,19	8,57
504,677	8,89
505,164	9,15
505,651	9,25
506,139	9,63
506,625	9,66
507,112	9,76
507,599	10,36
508,086	10,44
508,572	10,59
509,058	10,88
509,545	10,8
510,031	11,1
510,517	11,44
511,003	11,76
511,489	12,26
511,974	12,37
512,46	12,4
512,946	13,1
513,431	13,22
513,916	13,23
514,401	14,01
514,887	14,25
515,371	14,42
515,856	14,52
516,341	15,45
516,826	15,54
517,31	15,71
517,795	15,99
518,279	16,51
518,763	16,7
519,247	17,37
519,731	17,55
520,215	17,98
520,699	18,42
521,182	18,79
521,666	19,23
522,149	19,3
522,633	19,96
523,116	20,21
523,599	20,53
524,082	21,14
524,565	21,18
525,048	21,55
525,53	21,91
526,013	22,15
526,495	22,6
526,978	22,66
527,46	23,11
527,942	23,44
528,424	24,01
528,906	23,9
529,388	24,34
529,87	24,52
530,351	24,61
530,833	24,67
531,314	24,88
531,795	25,38
532,277	25,39
532,758	25,93
533,238	25,97
533,719	25,96
534,2	25,87
534,681	26,02
535,161	26,72
535,642	26,35
536,122	26,33
536,602	26,75
537,082	26,92
537,562	27,15
538,042	27,05
538,522	27,09
539,001	27,11
539,481	27,37
539,96	27,27
540,44	27,34
540,919	27,15
541,398	27,44
541,877	27,79
542,356	27,53
542,835	27,4
543,313	27,65
543,792	27,81
544,27	27,65
544,749	27,99
545,227	28,16
545,705	27,78
546,183	28,42
546,661	28,03
547,139	28,25
547,616	28,04
548,094	28,32
548,571	28,36
549,049	28,28
549,526	28,39
550,003	28,43
550,48	28,49
550,957	28,79
551,434	28,23
551,911	28,64
552,387	28,36
552,864	28,24
553,34	28,57
553,817	28,74
554,293	28,48
554,769	28,64
555,245	28,43
555,721	28,56
556,197	28,55
556,672	28,21
557,148	28,45
557,623	28,28
558,099	28,43
558,574	28,26
559,049	28,12
559,524	28,09
559,999	28,08
560,474	28,13
560,948	27,71
561,423	28,03
561,897	27,54
562,372	27,55
562,846	27,62
563,32	27,27
563,794	27,27
564,268	27,22
564,742	26,97
565,216	26,89
565,69	26,96
566,163	26,58
566,636	26,18
567,11	26,09
567,583	25,78
568,056	25,83
568,529	25,54
569,002	25,38
569,475	25,05
569,947	24,67
570,42	24,65
570,892	24,65
571,365	24,34
571,837	24,38
572,309	23,93
572,781	23,73
573,253	23,68
573,725	23,22
574,197	23,06
574,668	23,17
575,14	22,88
575,611	22,66
576,082	22,37
576,554	22,48
577,025	22,05
577,496	21,84
577,967	21,75
578,437	21,57
578,908	21,52
579,379	21,2
579,849	21,11
580,319	21,04
580,79	20,87
581,26	20,92
581,73	20,6
582,2	20,49
582,669	20,32
583,139	20,23
583,609	19,96
584,078	20,02
584,548	19,74
585,017	19,95
585,486	19,75
585,955	19,34
586,424	19,18
586,893	19,37
587,362	19,09
587,83	18,95
588,299	19,04
588,767	18,88
589,236	18,8
589,704	18,69
590,172	18,62
590,64	18,72
591,108	18,79
591,576	18,37
592,043	18,45
592,511	18,38
592,978	18,22
593,446	18,19
593,913	18,08
594,38	18,03
594,847	18,06
595,314	17,9
595,781	17,82
596,248	17,9
596,715	17,61
597,181	17,89
597,647	17,68
598,114	17,78
598,58	17,67
599,046	17,62
599,512	17,63
599,978	17,71
600,444	17,51
600,91	17,37
601,375	17,23
601,841	17,45
602,306	17,31
602,771	17,23
603,236	17,17
603,702	17,03
604,167	17,06
604,631	16,87
605,096	16,86
605,561	16,78
606,025	16,73
606,49	16,71
606,954	16,46
607,418	16,5
607,882	16,39
608,347	16,19
608,81	16,22
609,274	15,92
609,738	15,92
610,202	16,09
610,665	15,76
611,128	15,75
611,592	15,49
612,055	15,36
612,518	15,36
612,981	15,21
613,444	15,21
613,907	15,01
614,369	14,99
614,832	14,86
615,294	14,67
615,757	14,7
616,219	14,59
616,681	14,63
617,143	14,29
617,605	14,06
618,067	14,28
618,529	14,05
618,99	14,09
619,452	14,01
619,913	13,89
620,375	13,78
620,836	13,61
621,297	13,48
621,758	13,53
622,219	13,46
622,68	13,5
623,14	13,45
623,601	13,37
624,061	13,33
624,522	13,28
624,982	13,18
625,442	13,2
625,902	13,08
626,362	13,21
626,822	13,14
627,282	13,11
627,742	13,02
628,201	13,04
628,661	13,06
629,12	13,16
629,579	12,91
630,038	13,09
630,497	12,95
630,956	12,93
631,415	12,92
631,874	12,89
632,332	12,91
632,791	12,91
633,249	12,69
633,708	12,77
634,166	12,79
634,624	12,56
635,082	12,49
635,54	12,49
635,998	12,37
636,455	12,29
636,913	12,24
637,37	12,13
637,828	12,03
638,285	11,97
638,742	11,77
639,199	11,68
639,656	11,48
640,113	11,42
640,57	11,31
641,027	11,04
641,483	11,01
641,94	10,89
642,396	10,66
642,852	10,53
643,309	10,4
643,765	10,42
644,221	10,12
644,676	10,03
645,132	9,94
645,588	9,76
646,043	9,64
646,499	9,5
646,954	9,43
647,409	9,33
647,864	9,15
648,319	8,9
648,774	8,8
649,229	8,74
649,684	8,68
650,139	8,66
650,593	8,62
651,047	8,46
651,502	8,38
651,956	8,34
652,41	8,32
652,864	8,2
653,318	8,23
653,772	8,17
654,225	8,22
654,679	7,99
655,133	7,96
655,586	7,87
656,039	7,84
656,492	7,74
656,946	7,64
657,399	7,71
657,851	7,52
658,304	7,41
658,757	7,38
659,209	7,19
659,662	7,17
660,114	7,09
660,567	6,96
661,019	6,88
661,471	6,72
661,923	6,74
662,375	6,59
662,826	6,6
663,278	6,47
663,73	6,29
664,181	6,32
664,632	6,17
665,084	6,12
665,535	6,05
665,986	6,03
666,437	6,02
666,888	5,94
667,338	6,03
667,789	5,82
668,24	5,84
668,69	5,91
669,14	5,86
669,591	5,82
670,041	5,83
670,491	5,8
670,941	5,87
671,391	5,81
671,84	5,96
672,29	5,92
672,74	5,91
673,189	5,96
673,638	6,03
674,088	6,06
674,537	6,06
674,986	6,13
675,435	6,19
675,883	6,26
676,332	6,29
676,781	6,35
677,229	6,43
677,678	6,59
678,126	6,57
678,574	6,69
679,022	6,79
679,47	6,93
679,918	7,02
680,366	7,02
680,814	7,21
681,261	7,25
681,709	7,36
682,156	7,51
682,604	7,57
683,051	7,68
683,498	7,83
683,945	7,96
684,392	8,07
684,839	8,29
685,286	8,43
685,732	8,63
686,179	8,71
686,625	9
687,071	9,12
687,518	9,38
687,964	9,67
688,41	9,94
688,856	10,34
689,301	10,68
689,747	10,93
690,193	11,41
690,638	11,74
691,084	12,26
691,529	12,62
691,974	13,3
692,419	13,78
692,864	14,44
693,309	14,96
693,754	15,62
694,199	16,18
694,643	16,7
695,088	17,33
695,532	18,19
695,977	18,86
696,421	19,54
696,865	20,22
697,309	20,91
697,753	21,46
698,197	22,42
698,64	22,91
699,084	23,63
699,527	24,38
699,971	25,03
700,414	25,61
700,857	26,36
701,3	26,88
701,743	27,74
702,186	28,22
702,629	28,86
703,072	29,55
703,515	30,32
703,957	30,69
704,399	31,42
704,842	31,99
705,284	32,33
705,726	33,04
706,168	33,63
706,61	34,37
707,052	34,86
707,494	35,1
707,935	35,54
708,377	36,25
708,818	36,74
709,26	37,3
709,701	37,96
710,142	38,14
710,583	38,75
711,024	39,07
711,465	39,82
711,905	40
712,346	40,42
712,787	40,82
713,227	41,37
713,667	41,93
714,108	42,2
714,548	42,61
714,988	42,87
715,428	43,48
715,868	43,83
716,307	44,29
716,747	44,56
717,186	44,94
717,626	45,25
718,065	45,83
718,504	46,15
718,944	46,77
719,383	46,8
719,822	47,02
720,261	47,16
720,699	47,93
721,138	48,1
721,576	48,48
722,015	48,65
722,453	48,99
722,892	49,48
723,33	49,6
723,768	49,91
724,206	50,12
724,644	50,37
725,081	50,67
725,519	50,62
725,957	51,09
726,394	51,07
726,832	51,21
727,269	51,85
727,706	52,16
728,143	52,15
728,58	52,43
729,017	52,51
729,454	52,83
729,89	52,83
730,327	52,81
730,764	53,22
731,2	53,27
731,636	53,47
732,072	53,82
732,509	53,79
732,945	53,68
733,38	53,88
733,816	53,9
734,252	54,19
734,688	53,95
735,123	54,36
735,559	54,69
735,994	54,68
736,429	54,78
736,864	54,95
737,299	54,64
737,734	55,12
738,169	55,27
738,604	55,23
739,038	55,17
739,473	55,14
739,907	55,38
740,342	55,46
740,776	55,18
741,21	55,33
741,644	55,48
742,078	55,67
742,512	55,71
742,946	55,85
743,379	55,72
743,813	55,72
744,246	55,54
744,68	55,55
745,113	55,66
745,546	55,79
745,979	55,78
746,412	56,05
746,845	55,73
747,278	55,71
747,711	56,03
748,143	56,07
748,576	55,77
749,008	55,73
749,441	55,55
749,873	55,84
750,305	55,95
750,737	55,82
751,169	55,67
751,601	55,9
752,032	55,58
752,464	55,73
752,896	55,79
753,327	55,59
753,758	55,65
754,19	55,8
754,621	55,89
755,052	55,62
755,483	55,64
755,914	55,6
756,344	55,8
756,775	55,72
757,206	55,85
757,636	55,51
758,066	55,69
758,497	55,71
758,927	55,47
759,357	55,54
759,787	55,58
760,217	55,54
760,647	55,24
761,076	55,77
761,506	55,42
761,935	55,51
762,365	55,14
762,794	55,38
763,223	55,59
763,653	55,44
764,082	55,44
764,51	55,39
764,939	55,25
765,368	55,39
765,797	55,5
766,225	55,26
766,654	55,16
767,082	55,03
767,51	55,18
767,938	55,11
768,367	55,11
768,795	55,06
769,222	55,14
769,65	55,08
770,078	55,07
770,505	55,16
770,933	54,94
771,36	55,22
771,788	54,98
772,215	55,11
772,642	54,87
773,069	54,87
773,496	54,93
773,923	54,94
774,349	54,85
774,776	54,93
775,203	54,92
775,629	54,87
776,055	55,07
776,482	55,21
776,908	54,9
777,334	54,77
777,76	54,78
778,186	54,86
778,611	54,91
779,037	54,87
779,463	54,8
779,888	54,78
780,314	54,72
780,739	54,87
781,164	54,66
781,589	54,58
782,014	54,83
782,439	54,71
782,864	54,84
783,289	55,05
783,713	54,37
784,138	54,75
784,562	54,6
784,987	54,66
785,411	54,85
785,835	54,66
786,259	54,6
786,683	54,92
787,107	54,91
787,531	54,9
787,954	54,3
788,378	54,7
788,802	54,67
789,225	54,73
789,648	54,85
790,071	54,86
790,495	54,49
790,918	54,74
791,34	54,76
791,763	54,52
792,186	54,84
792,609	54,92
793,031	54,52
793,454	54,53
793,876	54,76
794,298	54,65
794,721	54,56
795,143	54,64
795,565	54,48
795,986	54,72
796,408	54,46
796,83	54,54
797,252	54,74
797,673	54,69
798,094	54,81
798,516	54,51
798,937	54,59
799,358	54,63
799,779	54,37
800,2	54,67
800,621	54,57
801,042	54,71
801,462	54,35
801,883	54,43
802,303	54,56
802,724	54,36
803,144	54,69
803,564	54,27
803,984	54,45
804,404	54,3
804,824	54,73
805,244	54,53
805,664	54,74
806,084	54,47
806,503	54,69
806,923	54,62
807,342	54,54
807,761	54,34
808,18	54,45
808,599	54,43
809,018	54,47
809,437	54,6
809,856	54,09
810,275	54,25
810,693	54,58
811,112	54,6
811,53	54,44
811,949	54,68
812,367	54,18
812,785	54,65
813,203	54,48
813,621	54,69
814,039	54,56
814,457	54,3
814,874	54,27
815,292	54,66
815,709	54,33
816,127	54,5
816,544	54,59
816,961	54,56
817,378	54,65
817,795	54,38
818,212	54,41
818,629	54,55
819,046	54,26
819,462	54,5
819,879	54,52
820,295	54,38
820,712	54,18
821,128	54,43
821,544	54,38
821,96	54,48
822,376	54,28
822,792	54,34
823,208	54,21
823,624	54,54
824,039	54,31
824,455	54,45
824,87	54,64
825,286	54,36
825,701	54,55
826,116	54,3
826,531	54,26
826,946	54,32
827,361	54,19
827,776	54,26
828,19	54,03
828,605	54,14
829,02	54,37
829,434	53,95
829,848	54,4
830,263	54,35
830,677	54,23
831,091	54,19
831,505	54,13
831,919	54,36
832,332	54,03
832,746	54,31
833,16	54,23
833,573	54,15
833,987	54,34
834,4	54,41
834,813	54,16
835,226	54,13
835,639	54,09
836,052	54,05
836,465	54,43
836,878	54,67
837,29	54,29
837,703	54,33
838,116	54,37
838,528	53,87
838,94	54,15
839,352	54,02
839,765	54,22
840,177	54,17
840,589	54,51
841	54,19
841,412	54,13
841,824	54,26
842,235	53,96
842,647	54,12
843,058	54,17
843,47	54,37
843,881	54,2
844,292	54,23
844,703	54,3
845,114	54,37
845,525	54,22
845,935	54,3
846,346	54,04
846,757	54,2
847,167	54,53
847,577	54,36
847,988	54,03
848,398	53,84
848,808	53,96
849,218	53,99
849,628	54,08
850,038	54,08
850,448	54,03
850,857	54,26
851,267	54,08
851,676	54,03
852,086	54,02
852,495	54,09
852,904	54,27
853,313	53,97
853,722	54,01
854,131	54,08
854,54	54,3
854,949	54,18
855,357	54,1
855,766	53,97
856,174	53,88
856,583	53,88
856,991	53,83
857,399	54,27
857,807	54,08
858,215	53,87
858,623	54,2
859,031	54,46
859,439	54,4
859,846	54,16
860,254	54,36
860,661	54,02
861,069	53,77
861,476	54,19
861,883	53,92
862,29	53,99
862,697	54,36
863,104	53,78
863,511	53,99
863,918	53,78
864,325	54,13
864,731	53,64
865,138	53,84
865,544	54,01
865,95	54,15
866,357	54,02
866,763	54,1
867,169	54,24
867,575	54,04
867,98	54,19
868,386	54,29
868,792	54,02
869,197	54,21
869,603	53,66
870,008	53,94
870,414	53,99
870,819	53,77
871,224	53,96
871,629	53,61
872,034	54,02
872,439	53,63
872,844	54,23
873,248	54,04
873,653	53,84
874,057	54,03
874,462	53,78
874,866	54,22
875,27	54
875,674	54,31
876,078	54,04
876,482	54,23
876,886	54,09
877,29	53,73
877,694	53,85
878,097	53,75
878,501	53,66
878,904	53,8
879,308	53,52
879,711	53,66
880,114	54,17
880,517	53,92
880,92	53,79
881,323	54,28
881,726	53,9
882,128	54,07
882,531	54,08
882,934	54
883,336	53,81
883,738	54,36
884,141	54,08
884,543	54,19
884,945	54,04
885,347	54,07
885,749	53,91
886,151	54
886,552	53,93
886,954	54,13
887,355	53,72
887,757	53,87
888,158	54,1
888,56	54,28
888,961	53,79
889,362	54,3
889,763	53,86
890,164	54,06
890,565	53,87
890,965	54,05
891,366	54,28
891,767	54,41
892,167	54,15
892,567	53,69
892,968	53,78
893,368	53,81
893,768	53,89
894,168	54,37
894,568	53,81
894,968	54,05
895,368	53,78
895,767	53,96
896,167	54,23
896,566	54,1
896,966	53,96
897,365	54,13
897,764	54,05
898,164	53,9
898,563	54,18
898,962	54,23
899,361	54,41
899,759	53,89
900,158	53,84
900,557	54,07
900,955	54,17
901,354	53,82
901,752	53,65
902,15	53,65
902,548	53,67
902,947	53,67
903,345	54,11
903,742	54,04
904,14	53,92
904,538	54,03
904,936	53,97
905,333	53,92
905,731	53,63
906,128	53,82
906,525	54,03
906,923	53,84
907,32	53,88
907,717	53,74
908,114	54,14
908,511	53,6
908,907	53,81
909,304	53,65
909,701	53,94
910,097	53,9
910,494	53,92
910,89	53,96
911,286	54,03
911,682	54
912,078	54,03
912,474	54,37
912,87	53,96
913,266	53,95
913,662	54,03
914,058	53,96
914,453	54,28
914,849	53,93
915,244	53,83
915,639	54,11
916,034	53,9
916,43	53,87
916,825	54,29
917,22	53,77
917,614	53,78
918,009	53,85
918,404	53,67
918,798	53,79
919,193	53,55
919,587	53,52
919,982	53,69
920,376	53,84
920,77	54,06
921,164	53,74
921,558	54,01
921,952	53,91
922,346	53,71
922,74	53,87
923,133	54,08
923,527	53,87
923,92	53,56
924,314	53,96
924,707	53,59
925,1	53,63
925,493	53,93
925,886	54,01
926,279	53,48
926,672	53,64
927,065	53,76
927,457	53,43
927,85	53
928,243	53,78
928,635	53,73
929,027	53,53
929,42	53,66
929,812	53,74
930,204	53,48
930,596	53,57
930,988	53,84
931,379	53,95
931,771	53,53
932,163	53,87
932,554	53,48
932,946	53,07
933,337	53,64
933,729	53,7
934,12	53,35
934,511	53,71
934,902	53,13
935,293	53,57
935,684	53,32
936,075	53,21
936,465	53,34
936,856	52,81
937,246	53,7
937,637	53,19
938,027	53,43
938,417	53,37
938,808	53
939,198	53,4
939,588	53,27
939,978	53,35
940,368	53,36
940,757	53,59
941,147	52,85
941,537	53,76
941,926	53,21
942,315	52,88
942,705	53,37
943,094	53,2
943,483	53,13
943,872	53,25
944,261	53,17
944,65	53,3
945,039	53,24
945,428	53,19
945,816	53,12
946,205	52,8
946,593	53,05
946,982	53,37
947,37	53,6
947,758	53,28
948,146	52,38
948,534	52,46
948,922	52,58
949,31	52,68
949,698	52,14
950,086	52,51
950,473	52,92
950,861	52,76
951,248	52,97
951,636	52,51
952,023	52,26
952,41	52,32
952,797	52,52
953,184	52,13
953,571	52,48
953,958	52,25
954,345	52,46
954,731	52,33
955,118	52,29
955,505	52,64
955,891	52,95
956,277	52,19
956,664	52,31
957,05	52
957,436	52,53
957,822	52,47
958,208	52,02
958,594	52,26
958,979	51,84
959,365	51,83
959,751	52,21
960,136	52,34
960,522	52,18
960,907	51,73
961,292	52,19
961,677	51,93
962,062	51,8
962,447	52,11
962,832	51,94
963,217	51,98
963,602	52,02
963,986	51,66
964,371	51,58
964,756	52,04
965,14	51,85
965,524	51,75
965,908	52,02
966,293	51,28
966,677	51,77
967,061	52,26
967,445	51,87
967,828	52,45
968,212	52,32
968,596	51,95
968,979	52,22
969,363	52,3
969,746	51,93
970,129	51,43
970,513	51,53
970,896	51,81
971,279	51,79
971,662	51,97
972,045	51,65
972,428	51,68
972,81	51,86
973,193	51,63
973,575	52,04
973,958	51,88
974,34	51,41
974,723	51,5
975,105	52,3
975,487	51,74
975,869	51,95
976,251	52,2
976,633	52,03
977,015	52,33
977,396	52,13
977,778	51,71
978,16	51,94
978,541	51,86
978,922	51,51
979,304	52,17
979,685	51,85
980,066	52,11
980,447	52,09
980,828	52,38
981,209	52,05
981,59	51,65
981,97	52,05
982,351	52,29
982,732	52,09
983,112	52,01
983,493	52,48
983,873	51,99
984,253	52,32
984,633	52,35
985,013	51,78
985,393	52,33
985,773	51,95
986,153	52,62
986,533	51,62
986,912	51,93
987,292	51,8
987,671	52,49
988,051	52,41
988,43	52,07
988,809	51,79
989,188	52,57
989,567	52,11
989,946	52,34
990,325	51,8
990,704	52,33
991,083	51,88
991,461	51,99
991,84	52,1
992,218	52,12
992,597	52,79
992,975	52,64
993,353	52,56
993,732	52,31
994,11	52,18
994,488	52,46
994,866	52,3
995,243	52,41
995,621	52,45
995,999	52,41
996,376	52,67
996,754	51,76
997,131	52,03
997,509	52,46
997,886	52,21
998,263	52,71
998,64	52,36
999,017	52,18
999,394	52,59
999,771	52,73
1000,148	52,46
1000,524	52,8
1000,901	52,67
1001,277	53,3
1001,654	52,34
1002,03	52,79
1002,406	52,79
1002,783	53,02
1003,159	52,44
1003,535	52,34
1003,911	52,48
1004,286	53,38
1004,662	52,22
1005,038	52,88
1005,414	52,64
1005,789	52,72
1006,164	52,37
1006,54	52,66
1006,915	52,8
1007,29	52,75
1007,665	52,78
1008,04	53,34
1008,415	52,71
1008,79	53,51
1009,165	52,73
1009,54	53,36
1009,914	53,32
1010,289	53,08
1010,663	53,37
1011,038	53,32
1011,412	53,35
1011,786	53,47
1012,16	52,8
1012,535	52,94
1012,909	53,49
1013,282	52,72
1013,656	53,01
1014,03	53,23
1014,404	53,17
1014,777	53,11
1015,151	53,68
1015,524	53,47
1015,897	53,49
1016,271	53,82
1016,644	53,91
1017,017	53,54
1017,39	53,9
1017,763	53,62
1018,136	54
1018,508	53,33
1018,881	53,97
1019,254	53,54
1019,626	53,49
1019,999	53,13
1020,371	53,03
1020,743	53,3
1021,116	53,58
1021,488	53,24
1021,86	53,82
1022,232	53,88
1022,604	53,88
1022,975	53,44
1023,347	54,15
1023,719	53,63
1024,09	53,91
1024,462	54,32
1024,833	53,76
1025,204	53,94
1025,576	54,09
1025,947	53,77
1026,318	54,01
1026,689	54,66
1027,06	53,8
1027,431	54,28
1027,801	53,84
1028,172	53,85
1028,543	54,38
1028,913	54,62
1029,284	54,66
1029,654	54,49
1030,024	54,03
1030,394	54,16
1030,764	53,58
1031,135	54,37
1031,504	54,53
1031,874	54,58
1032,244	54,36
1032,614	54,21
1032,983	54,83
1033,353	54,19
1033,722	54,18
1034,092	53,75
1034,461	54,99
1034,83	54,56
1035,2	54,18
1035,569	54,81
1035,938	54,27
1036,307	55,2
1036,675	54,68
1037,044	54,08
1037,413	54,93
1037,781	54,95
1038,15	55,23
1038,518	54,77
1038,887	55,69
1039,255	55
1039,623	54,99
1039,991	54,59
1040,359	54,91
1040,727	54,93
1041,095	54,95
1041,463	55,35
1041,831	54,32
1042,198	55,04
1042,566	54,65
1042,933	54,97
1043,301	54,97
1043,668	54,97
1044,035	55,03
1044,402	55,66
1044,77	55,42
1045,137	54,75
1045,503	54,8
1045,87	54,83
1046,237	55,42
1046,604	55,96
1046,97	55,47
1047,337	55,62
1047,703	54,98
1048,07	55,74
1048,436	55,83
1048,802	54,86
1049,168	55,73
1049,534	56,31
1049,9	55,27
1050,266	55,26
1050,632	55,36
1050,998	55,18
1051,364	55,37
1051,729	55,61
1052,095	55,05
1052,46	55,28
1052,825	56,12
1053,191	54,99
1053,556	56,1
1053,921	56,34
1054,286	55,68
1054,651	56,1
1055,016	56
1055,381	56,18
1055,745	55,7
1056,11	56,15
1056,475	55,53
1056,839	56,36
1057,203	56,06
1057,568	56,98
1057,932	55,61
1058,296	56,18
1058,66	56,6
1059,024	56,21
1059,388	56,04
1059,752	56,06
1060,116	55,73
1060,48	57,89
1060,843	56,47
1061,207	57,41
1061,57	56,71
1061,934	56,68
1062,297	56,37
1062,66	56,24
1063,023	56,14
1063,386	58,48
1063,749	56,94
1064,112	57,02
1064,475	57,1
1064,838	55,9
1065,201	57,19
1065,563	55,65
1065,926	56,73
1066,288	55,79
1066,651	57,35
1067,013	56,87
1067,375	57,7
1067,737	57,4
1068,099	57,09
1068,461	55,93
1068,823	57,11
1069,185	57,28
1069,547	56,4
1069,909	56,78
1070,27	56,69
1070,632	56,62
1070,993	56,83
1071,355	56,96
1071,716	56,13
1072,077	56,86
1072,438	56,64
1072,799	56,92
1073,16	56,58
1073,521	57,48
1073,882	57,01
1074,243	57,38
1074,603	57,15
1074,964	56,76
1075,325	57,52
1075,685	57,31
1076,045	57,44
1076,406	57,19
1076,766	57,09
1077,126	57,46
1077,486	56,86
1077,846	57,17
1078,206	58,28
1078,566	56,65
1078,925	57,85
1079,285	57,76
1079,645	57,16
1080,004	58,76
1080,364	57,88
1080,723	60,28
1081,082	57,39
1081,442	58,32
1081,801	56,82
1082,16	57,22
1082,519	57,34
1082,878	57,3
1083,237	57,32
1083,595	57,75
1083,954	57,53
1084,313	57,39
1084,671	58,34
1085,03	59,36
1085,388	56,98
1085,746	57,85
1086,104	57,33
1086,463	57,38
1086,821	59,13
1087,179	57,83
1087,537	57,64
1087,894	58,33
1088,252	58,92
1088,61	59,26
1088,967	57,88
1089,325	58,67
1089,682	58,95
1090,04	57,93
1090,397	56,9
1090,754	58,24
1091,111	58,43
1091,469	58,55
1091,826	57,65
1092,182	57,96
1092,539	59,65
1092,896	58,12
1093,253	57,88
1093,609	57,44
1093,966	57,37
1094,322	59,69
1094,679	57,96
1095,035	59
1095,391	60,11
1095,748	56,78
1096,104	60,57
1096,46	59,92
1096,816	60,15
1097,171	58,01
1097,527	60,49
1097,883	59,71
1098,239	60,36
1098,594	59,81
1098,95	60,44
1099,305	59,05
1099,66	59,6
1100,016	60,02
1100,371	58,83
1100,726	58,9
1101,081	58,83
1101,436	58,96
1101,791	59,86
1102,146	59,38
1102,5	58,95
1102,855	60,51
1103,21	60,61
1103,564	61,03
1103,918	59,61
1104,273	61,74
1104,627	58,71
1104,981	59,79
1105,335	60,28
1105,69	61,45
1106,043	59,55
1106,397	59,89
1106,751	59,82
1107,105	62,02
1107,459	61,58
1107,812	59,89
1108,166	62,34
1108,519	60,53
1108,873	60,23
1109,226	59,96
1109,579	62,76
1109,932	63,22
1110,285	61,47
1110,638	61,88
1110,991	61,77
1111,344	60,83
1111,697	60,92
1112,05	59,88
1112,402	63,46
1112,755	60,78
1113,107	61,3
1113,46	64,29
1113,812	62,81
1114,164	63,83
1114,517	62,07
1114,869	122,82
1115,221	106,87
1115,573	104,53
1115,924	104,95
