Data from I4__Relative__3__00165.txt Node

Date: Tue Jan 30 18:10:44 CET 2024
User: diatiterra
Spectrometer: HDX00911
Trigger mode: 0
Integration Time (sec): 6,000000E-3
Scans to average: 3
Nonlinearity correction enabled: true
Boxcar width: 0
Storing dark spectrum: false
XAxis mode: Wavelengths
Number of Pixels in Spectrum: 2068
>>>>>Begin Spectral Data<<<<<
194,468	145,79
195,025	106,9
195,581	106,77
196,138	104,91
196,694	94,12
197,251	81,27
197,807	75,22
198,363	76,73
198,919	75,01
199,474	79,52
200,03	77,57
200,586	73,13
201,141	71,85
201,696	65,72
202,251	72,3
202,806	72,91
203,361	79,28
203,916	71,27
204,471	73,81
205,025	73,47
205,58	72,93
206,134	68,57
206,688	73,88
207,242	71,89
207,796	78,04
208,35	71,73
208,904	73,06
209,457	73,8
210,011	76,37
210,564	70,88
211,117	72,33
211,67	83,78
212,223	80,28
212,776	80,25
213,329	81,55
213,881	73,79
214,434	71,5
214,986	78,59
215,538	79,87
216,09	73,42
216,642	80,86
217,194	71,6
217,746	76,36
218,297	73,1
218,849	80,05
219,4	82,24
219,951	73,34
220,502	78,76
221,053	74,11
221,604	78,22
222,155	73,51
222,705	74,01
223,256	74,94
223,806	77,6
224,356	76,15
224,906	75,79
225,456	70,03
226,006	76,01
226,556	72,45
227,106	74,58
227,655	72,97
228,204	75,68
228,754	79,49
229,303	74,19
229,852	78,27
230,401	79,38
230,949	75,82
231,498	73,36
232,047	76,22
232,595	79,02
233,143	75,64
233,691	70,56
234,239	74,15
234,787	73,61
235,335	78,58
235,883	73,01
236,43	75,98
236,978	75,81
237,525	81,1
238,072	71,96
238,619	76,09
239,166	68,7
239,713	69,76
240,26	73,88
240,806	79,38
241,353	76,5
241,899	73,23
242,445	82,24
242,991	72,48
243,537	77,38
244,083	68,96
244,629	75,15
245,174	72,78
245,72	73,13
246,265	80,72
246,81	74,62
247,355	75,8
247,9	74,22
248,445	75,98
248,99	79,79
249,534	74,33
250,079	81,73
250,623	73,74
251,168	73,96
251,712	76
252,256	74,16
252,8	79,13
253,343	74,95
253,887	70,55
254,43	84,28
254,974	77,88
255,517	76,97
256,06	77,11
256,603	80,39
257,146	76,04
257,689	82,16
258,232	76,63
258,774	80,26
259,317	73,69
259,859	74,42
260,401	82,34
260,943	77,12
261,485	79,96
262,027	76,45
262,569	77,8
263,11	79,46
263,652	84,31
264,193	71,02
264,734	82,73
265,275	75,5
265,816	83,26
266,357	75,62
266,898	74,03
267,438	78,03
267,979	86,64
268,519	77,98
269,059	78,34
269,6	84,23
270,14	84,29
270,68	70,44
271,219	83,84
271,759	76,54
272,298	71,27
272,838	76,69
273,377	73,72
273,916	73,32
274,455	75,41
274,994	81,03
275,533	74
276,072	80,71
276,61	76,13
277,149	70,91
277,687	74,24
278,225	72,71
278,763	73,27
279,301	78,33
279,839	74,32
280,377	76,57
280,914	70,98
281,452	79,69
281,989	76,55
282,526	71,69
283,064	74,41
283,601	79,27
284,137	73,34
284,674	75,95
285,211	84,18
285,747	72,81
286,284	81,98
286,82	73,11
287,356	73,49
287,892	85,33
288,428	73,79
288,964	70,95
289,5	76,2
290,035	76,92
290,571	76,39
291,106	82,12
291,641	80,33
292,176	77,76
292,711	73,44
293,246	71,28
293,781	76,29
294,315	75,74
294,85	84,59
295,384	81,48
295,918	71,72
296,453	70,68
296,987	78,59
297,52	73,74
298,054	79,39
298,588	81,94
299,121	72,63
299,655	78,33
300,188	70,74
300,721	70,48
301,254	80,32
301,787	72,88
302,32	82,61
302,853	72,59
303,385	79,34
303,918	72,5
304,45	70,19
304,982	78,88
305,514	76,41
306,046	73,05
306,578	72,2
307,11	70,87
307,641	78,75
308,173	77,37
308,704	75,77
309,236	76,35
309,767	73,62
310,298	70,5
310,829	76,47
311,359	71,99
311,89	74,84
312,421	76,26
312,951	77,32
313,481	76,39
314,012	74,74
314,542	74,19
315,072	70,8
315,601	70,63
316,131	77,14
316,661	74,4
317,19	75,14
317,72	71,1
318,249	75,27
318,778	71,56
319,307	76,46
319,836	76,97
320,365	74,78
320,893	71,87
321,422	64,78
321,95	74,95
322,479	79,12
323,007	72,43
323,535	70,87
324,063	75,01
324,591	74,1
325,118	78,44
325,646	70,9
326,173	79,02
326,701	73,43
327,228	75,12
327,755	80,46
328,282	72,65
328,809	71,06
329,336	81,01
329,862	72,61
330,389	74,44
330,915	70,29
331,441	74,42
331,968	71,21
332,494	71,51
333,02	75,27
333,545	72,79
334,071	72
334,597	74,73
335,122	72,22
335,648	72,91
336,173	71,66
336,698	73,5
337,223	69,87
337,748	67,5
338,272	68,16
338,797	70,21
339,322	75,18
339,846	73,51
340,37	73,55
340,894	75,86
341,419	74,32
341,942	66,19
342,466	67,55
342,99	71,77
343,514	74,84
344,037	66,71
344,56	69,49
345,084	59,76
345,607	72,11
346,13	63,29
346,653	62,57
347,175	68,99
347,698	68,48
348,221	65,03
348,743	62,09
349,265	64,8
349,787	62,54
350,309	64,26
350,831	65,74
351,353	59,46
351,875	61,63
352,397	56,62
352,918	62,76
353,439	61,56
353,961	59,25
354,482	56,59
355,003	52,22
355,524	57,61
356,044	59,56
356,565	59,57
357,086	57,43
357,606	56,12
358,126	58,36
358,646	53,7
359,167	58,21
359,687	55,85
360,206	53,34
360,726	53,22
361,246	51,06
361,765	53,25
362,285	52,85
362,804	51,97
363,323	51,73
363,842	55,57
364,361	55,76
364,88	53,61
365,398	49,04
365,917	51,38
366,435	53,47
366,954	51,56
367,472	46,45
367,99	51,83
368,508	49,88
369,026	49,39
369,544	51,96
370,061	47,97
370,579	46,94
371,096	48,35
371,613	49,82
372,131	46,12
372,648	45,69
373,165	42,9
373,681	44,24
374,198	45,49
374,715	44,86
375,231	47,75
375,747	44,08
376,264	41,12
376,78	43,81
377,296	44,13
377,812	43,83
378,327	42,34
378,843	39,84
379,359	40,25
379,874	43,98
380,389	42,46
380,905	41,22
381,42	38,39
381,935	39,52
382,449	36,93
382,964	36,99
383,479	36
383,993	37,76
384,508	35,83
385,022	35,14
385,536	38,09
386,05	36,1
386,564	36,6
387,078	33,72
387,592	33,14
388,105	33,14
388,619	33,14
389,132	30,03
389,645	32,26
390,158	29,82
390,671	28,89
391,184	29,49
391,697	29,44
392,21	29,49
392,722	29,41
393,235	29,42
393,747	27,71
394,259	28,12
394,771	30,3
395,283	27,27
395,795	28,39
396,307	28,37
396,818	26,5
397,33	26,18
397,841	24,63
398,353	25,61
398,864	24,93
399,375	24,84
399,886	24,84
400,397	22,67
400,907	22,3
401,418	22,27
401,928	22,72
402,439	22,38
402,949	21,37
403,459	20,73
403,969	21,26
404,479	18,65
404,989	19,09
405,498	19,22
406,008	18,14
406,517	18,65
407,027	17,51
407,536	17,05
408,045	15,52
408,554	15,5
409,063	14,73
409,572	14,37
410,08	14,36
410,589	13,95
411,097	13,67
411,606	12,78
412,114	12,71
412,622	12,23
413,13	11,83
413,638	11,9
414,145	10,94
414,653	10,97
415,16	10,42
415,668	10,3
416,175	10,42
416,682	9,45
417,189	9,52
417,696	9,65
418,203	9,25
418,71	9,22
419,216	8,87
419,723	8,67
420,229	8,87
420,735	8,55
421,242	8,64
421,748	8
422,254	8,29
422,759	8,22
423,265	7,79
423,771	7,91
424,276	7,91
424,781	7,97
425,287	7,8
425,792	7,48
426,297	7,59
426,802	7,66
427,306	7,41
427,811	7,52
428,316	7,34
428,82	7,31
429,324	7,29
429,829	6,85
430,333	7,27
430,837	7,05
431,34	7,12
431,844	7,32
432,348	7,16
432,851	6,61
433,355	6,83
433,858	6,57
434,361	6,98
434,864	6,58
435,367	6,58
435,87	6,77
436,373	6,53
436,876	6,41
437,378	6,62
437,88	6,57
438,383	6,44
438,885	6,59
439,387	6,62
439,889	6,31
440,391	6,39
440,892	6,05
441,394	6,35
441,896	6,36
442,397	6,23
442,898	6,23
443,399	6,09
443,9	6,29
444,401	6,38
444,902	6,01
445,403	6,03
445,903	6,2
446,404	6,29
446,904	6,35
447,405	6,2
447,905	6,19
448,405	6,55
448,905	6,17
449,404	6,53
449,904	6,4
450,404	6,26
450,903	6,22
451,403	6,24
451,902	6,45
452,401	6,4
452,9	6,37
453,399	5,94
453,898	6,37
454,396	6,58
454,895	6,43
455,393	6,22
455,892	6,38
456,39	6,64
456,888	6,17
457,386	6,31
457,884	6,16
458,382	6,35
458,879	6,19
459,377	6,32
459,874	6,37
460,372	6,36
460,869	6,41
461,366	6,28
461,863	6,14
462,36	6,45
462,857	6,29
463,353	6,15
463,85	6,19
464,346	5,96
464,843	6,07
465,339	6,32
465,835	6,2
466,331	6,17
466,827	6,19
467,323	6,25
467,818	6,27
468,314	6,04
468,809	6,1
469,305	6,21
469,8	6,24
470,295	6,38
470,79	6,02
471,285	6,13
471,78	6,12
472,274	6,14
472,769	5,92
473,263	6,06
473,758	6,06
474,252	6,17
474,746	6,18
475,24	6,2
475,734	5,93
476,228	6,22
476,721	6,05
477,215	6,28
477,708	6,39
478,202	6,25
478,695	6,14
479,188	6,02
479,681	6,01
480,174	6,07
480,667	6,47
481,159	6,12
481,652	6,18
482,144	6,19
482,637	6,29
483,129	6,06
483,621	6,19
484,113	6,21
484,605	6,19
485,097	6,19
485,588	6,24
486,08	6,14
486,571	6,37
487,063	6,17
487,554	6,4
488,045	6,34
488,536	6,31
489,027	6,29
489,518	6,22
490,008	6,28
490,499	6,45
490,989	6,65
491,48	6,41
491,97	6,68
492,46	6,29
492,95	6,5
493,44	6,49
493,93	6,68
494,419	6,62
494,909	6,69
495,398	6,74
495,888	6,83
496,377	6,77
496,866	6,9
497,355	7,03
497,844	6,89
498,333	7,19
498,821	7,09
499,31	7,21
499,798	7,37
500,287	7,27
500,775	7,39
501,263	7,51
501,751	7,78
502,239	7,89
502,727	7,95
503,215	8,05
503,702	8,11
504,19	8,23
504,677	8,29
505,164	8,38
505,651	8,51
506,139	8,76
506,625	8,9
507,112	9,17
507,599	9,12
508,086	9,36
508,572	9,84
509,058	9,75
509,545	9,76
510,031	9,82
510,517	10,17
511,003	10,62
511,489	10,68
511,974	11,07
512,46	11,08
512,946	11,35
513,431	11,81
513,916	11,76
514,401	12,19
514,887	12,51
515,371	12,43
515,856	12,84
516,341	13,33
516,826	13,37
517,31	13,73
517,795	14,1
518,279	14,4
518,763	14,45
519,247	15,02
519,731	15,27
520,215	15,6
520,699	15,93
521,182	16,03
521,666	16,43
522,149	16,93
522,633	17,21
523,116	17,35
523,599	17,66
524,082	18,3
524,565	18,38
525,048	18,74
525,53	19,05
526,013	19,48
526,495	19,73
526,978	19,69
527,46	19,93
527,942	20,42
528,424	20,6
528,906	20,68
529,388	20,95
529,87	21,13
530,351	21,33
530,833	21,47
531,314	21,71
531,795	21,73
532,277	21,88
532,758	22,23
533,238	22,07
533,719	22,39
534,2	22,53
534,681	22,46
535,161	22,91
535,642	22,91
536,122	22,79
536,602	22,97
537,082	23,26
537,562	23,26
538,042	23,45
538,522	23,33
539,001	23,17
539,481	23,36
539,96	23,71
540,44	23,71
540,919	23,6
541,398	23,47
541,877	23,86
542,356	23,76
542,835	23,93
543,313	24
543,792	23,95
544,27	23,85
544,749	24,08
545,227	24,16
545,705	24,2
546,183	24,36
546,661	24,18
547,139	24,41
547,616	24,23
548,094	24,11
548,571	24,31
549,049	24,35
549,526	24,49
550,003	24,58
550,48	24,4
550,957	24,6
551,434	24,48
551,911	24,45
552,387	24,46
552,864	24,57
553,34	24,59
553,817	24,56
554,293	24,73
554,769	24,86
555,245	24,68
555,721	24,54
556,197	24,28
556,672	24,66
557,148	24,79
557,623	24,34
558,099	24,49
558,574	24,23
559,049	24,41
559,524	24,3
559,999	23,99
560,474	23,99
560,948	23,86
561,423	23,87
561,897	23,6
562,372	23,72
562,846	23,61
563,32	23,54
563,794	23,67
564,268	23,41
564,742	23,23
565,216	22,92
565,69	22,78
566,163	23,09
566,636	22,38
567,11	22,6
567,583	22,28
568,056	22,17
568,529	22,1
569,002	21,88
569,475	21,81
569,947	21,51
570,42	21,35
570,892	21,09
571,365	20,92
571,837	20,8
572,309	20,6
572,781	20,39
573,253	20,06
573,725	20,12
574,197	19,92
574,668	19,87
575,14	19,61
575,611	19,3
576,082	19,14
576,554	19,19
577,025	18,78
577,496	18,88
577,967	18,82
578,437	18,71
578,908	18,35
579,379	18,2
579,849	18,18
580,319	17,84
580,79	17,83
581,26	17,57
581,73	17,55
582,2	17,59
582,669	17,55
583,139	17,37
583,609	17,35
584,078	16,95
584,548	17,05
585,017	17,13
585,486	16,77
585,955	16,55
586,424	16,64
586,893	16,42
587,362	16,57
587,83	16,17
588,299	16,11
588,767	16,2
589,236	16,24
589,704	16,17
590,172	15,97
590,64	15,84
591,108	15,89
591,576	15,9
592,043	15,77
592,511	15,63
592,978	15,49
593,446	15,53
593,913	15,35
594,38	15,38
594,847	15,22
595,314	15,32
595,781	15,23
596,248	15,39
596,715	15,21
597,181	15,24
597,647	15,02
598,114	15,18
598,58	15,07
599,046	15
599,512	14,97
599,978	14,94
600,444	14,89
600,91	14,91
601,375	14,6
601,841	14,69
602,306	14,68
602,771	14,75
603,236	14,67
603,702	14,67
604,167	14,52
604,631	14,39
605,096	14,35
605,561	14,46
606,025	14,2
606,49	14,29
606,954	14,11
607,418	14,01
607,882	13,96
608,347	13,88
608,81	14
609,274	13,66
609,738	13,72
610,202	13,56
610,665	13,45
611,128	13,47
611,592	13,34
612,055	13,14
612,518	13,01
612,981	12,93
613,444	12,95
613,907	12,94
614,369	12,82
614,832	12,69
615,294	12,64
615,757	12,5
616,219	12,46
616,681	12,38
617,143	12,42
617,605	12,09
618,067	12,17
618,529	11,85
618,99	12,01
619,452	11,92
619,913	11,93
620,375	11,71
620,836	11,64
621,297	11,67
621,758	11,7
622,219	11,54
622,68	11,57
623,14	11,59
623,601	11,45
624,061	11,38
624,522	11,43
624,982	11,32
625,442	11,4
625,902	11,39
626,362	11,26
626,822	11,26
627,282	11,22
627,742	11,22
628,201	11,18
628,661	11,13
629,12	11,12
629,579	11,02
630,038	11,24
630,497	11,1
630,956	11,01
631,415	11,17
631,874	10,98
632,332	10,96
632,791	11,06
633,249	10,82
633,708	10,88
634,166	10,91
634,624	10,69
635,082	10,71
635,54	10,66
635,998	10,61
636,455	10,51
636,913	10,46
637,37	10,36
637,828	10,25
638,285	10,3
638,742	10,03
639,199	9,92
639,656	9,86
640,113	9,65
640,57	9,69
641,027	9,56
641,483	9,58
641,94	9,43
642,396	9,3
642,852	9,14
643,309	9,05
643,765	8,9
644,221	8,94
644,676	8,77
645,132	8,69
645,588	8,55
646,043	8,44
646,499	8,26
646,954	8,23
647,409	8,22
647,864	7,97
648,319	8
648,774	7,9
649,229	7,84
649,684	7,75
650,139	7,72
650,593	7,66
651,047	7,63
651,502	7,61
651,956	7,45
652,41	7,47
652,864	7,47
653,318	7,35
653,772	7,34
654,225	7,29
654,679	7,29
655,133	7,22
655,586	7,11
656,039	7,15
656,492	7,15
656,946	6,96
657,399	6,93
657,851	6,97
658,304	6,88
658,757	6,88
659,209	6,81
659,662	6,73
660,114	6,57
660,567	6,52
661,019	6,52
661,471	6,46
661,923	6,42
662,375	6,28
662,826	6,31
663,278	6,24
663,73	6,27
664,181	6,15
664,632	6,1
665,084	6,09
665,535	6,03
665,986	6,04
666,437	5,99
666,888	5,98
667,338	6,07
667,789	6
668,24	6,03
668,69	5,98
669,14	6,02
669,591	6,06
670,041	6,09
670,491	6,1
670,941	6,02
671,391	6,11
671,84	6,19
672,29	6,28
672,74	6,31
673,189	6,42
673,638	6,28
674,088	6,46
674,537	6,5
674,986	6,52
675,435	6,66
675,883	6,72
676,332	6,83
676,781	6,95
677,229	7,03
677,678	7,13
678,126	7,16
678,574	7,33
679,022	7,36
679,47	7,48
679,918	7,61
680,366	7,53
680,814	7,76
681,261	7,8
681,709	7,94
682,156	8,11
682,604	8,16
683,051	8,29
683,498	8,34
683,945	8,4
684,392	8,56
684,839	8,69
685,286	8,77
685,732	8,89
686,179	9,11
686,625	9,1
687,071	9,29
687,518	9,43
687,964	9,65
688,41	9,87
688,856	9,96
689,301	10,28
689,747	10,48
690,193	10,81
690,638	11,05
691,084	11,34
691,529	11,79
691,974	12,15
692,419	12,54
692,864	12,9
693,309	13,34
693,754	13,93
694,199	14,26
694,643	14,79
695,088	15,21
695,532	15,83
695,977	16,34
696,421	16,89
696,865	17,45
697,309	18,09
697,753	18,5
698,197	19,28
698,64	19,79
699,084	20,27
699,527	20,78
699,971	21,37
700,414	21,82
700,857	22,34
701,3	23
701,743	23,4
702,186	23,93
702,629	24,51
703,072	24,92
703,515	25,57
703,957	26,08
704,399	26,64
704,842	26,84
705,284	27,44
705,726	27,92
706,168	28,41
706,61	28,67
707,052	29,34
707,494	29,55
707,935	30,29
708,377	30,52
708,818	30,88
709,26	31,4
709,701	31,78
710,142	32,12
710,583	32,63
711,024	33,06
711,465	33,37
711,905	33,57
712,346	33,92
712,787	34,43
713,227	34,59
713,667	35,39
714,108	35,51
714,548	35,81
714,988	36,26
715,428	36,45
715,868	36,79
716,307	36,91
716,747	37,43
717,186	37,74
717,626	38,22
718,065	38,52
718,504	38,49
718,944	38,96
719,383	39,09
719,822	39,57
720,261	39,65
720,699	40
721,138	40,24
721,576	40,57
722,015	40,75
722,453	41,04
722,892	41,32
723,33	41,58
723,768	41,85
724,206	42,08
724,644	42,15
725,081	42,29
725,519	42,41
725,957	42,43
726,394	42,84
726,832	43,01
727,269	43,3
727,706	43,28
728,143	43,52
728,58	43,89
729,017	43,82
729,454	44,22
729,89	44,16
730,327	44,22
730,764	44,48
731,2	44,71
731,636	44,71
732,072	44,93
732,509	44,93
732,945	45,05
733,38	45,03
733,816	45,09
734,252	45,19
734,688	45,23
735,123	45,38
735,559	45,62
735,994	45,56
736,429	45,47
736,864	45,59
737,299	45,56
737,734	45,88
738,169	45,59
738,604	45,85
739,038	45,9
739,473	45,87
739,907	45,88
740,342	46,03
740,776	46,01
741,21	46,2
741,644	46,04
742,078	46,09
742,512	46,43
742,946	46,32
743,379	46,05
743,813	46,13
744,246	46,22
744,68	46,1
745,113	46,13
745,546	46,14
745,979	46,16
746,412	46,37
746,845	46,14
747,278	46,36
747,711	46,32
748,143	46,02
748,576	46,18
749,008	46,11
749,441	45,87
749,873	46,12
750,305	45,99
750,737	46
751,169	45,87
751,601	45,98
752,032	45,98
752,464	46,12
752,896	46,03
753,327	45,82
753,758	45,92
754,19	45,65
754,621	45,89
755,052	45,95
755,483	45,52
755,914	45,44
756,344	45,75
756,775	45,78
757,206	45,84
757,636	45,75
758,066	45,67
758,497	45,49
758,927	45,56
759,357	45,48
759,787	45,56
760,217	45,56
760,647	45,56
761,076	45,33
761,506	45,36
761,935	45,27
762,365	45,28
762,794	45,27
763,223	45,34
763,653	45,42
764,082	45,06
764,51	45,35
764,939	45,07
765,368	45,25
765,797	45,39
766,225	45,27
766,654	44,79
767,082	44,98
767,51	45,04
767,938	45,05
768,367	44,89
768,795	44,98
769,222	45,31
769,65	44,97
770,078	45,06
770,505	44,83
770,933	44,77
771,36	44,63
771,788	44,79
772,215	45,04
772,642	44,64
773,069	44,7
773,496	44,67
773,923	44,55
774,349	44,84
774,776	44,63
775,203	44,64
775,629	44,78
776,055	44,72
776,482	44,8
776,908	44,57
777,334	44,62
777,76	44,64
778,186	44,55
778,611	44,54
779,037	44,5
779,463	44,35
779,888	44,45
780,314	44,49
780,739	44,59
781,164	44,46
781,589	44,43
782,014	44,3
782,439	44,55
782,864	44,56
783,289	44,35
783,713	44,29
784,138	44,3
784,562	44,45
784,987	44,02
785,411	44,42
785,835	44,22
786,259	44,29
786,683	44,44
787,107	44,25
787,531	44,31
787,954	44,35
788,378	44,2
788,802	44,43
789,225	44,18
789,648	44,33
790,071	44,31
790,495	44,21
790,918	44,39
791,34	44,17
791,763	44,16
792,186	44,02
792,609	44,51
793,031	44,41
793,454	44,12
793,876	44,26
794,298	44,07
794,721	44,15
795,143	44,3
795,565	44,13
795,986	44,28
796,408	44,14
796,83	44,18
797,252	44,19
797,673	44,22
798,094	44,11
798,516	43,97
798,937	44,08
799,358	44,23
799,779	44,14
800,2	44,13
800,621	44,21
801,042	44,08
801,462	44,07
801,883	44,07
802,303	43,96
802,724	44,01
803,144	44,27
803,564	44,1
803,984	44,17
804,404	44,1
804,824	44,08
805,244	44,12
805,664	44,13
806,084	44,13
806,503	44,16
806,923	44,18
807,342	43,98
807,761	43,88
808,18	44,16
808,599	43,88
809,018	43,89
809,437	43,92
809,856	43,61
810,275	43,82
810,693	44,01
811,112	44,06
811,53	43,99
811,949	44,15
812,367	43,92
812,785	44,03
813,203	43,87
813,621	44,17
814,039	43,88
814,457	43,74
814,874	43,96
815,292	44,11
815,709	43,98
816,127	44,03
816,544	44,2
816,961	44,04
817,378	44,1
817,795	43,93
818,212	44,17
818,629	43,9
819,046	43,78
819,462	43,76
819,879	43,94
820,295	43,74
820,712	43,61
821,128	43,88
821,544	43,81
821,96	43,73
822,376	43,83
822,792	43,74
823,208	43,82
823,624	44,15
824,039	43,82
824,455	43,99
824,87	43,77
825,286	43,83
825,701	43,94
826,116	43,66
826,531	43,64
826,946	43,83
827,361	43,81
827,776	43,7
828,19	43,71
828,605	43,92
829,02	44,01
829,434	43,91
829,848	44,14
830,263	43,85
830,677	43,71
831,091	44
831,505	43,82
831,919	43,69
832,332	43,49
832,746	43,79
833,16	43,85
833,573	43,77
833,987	43,51
834,4	43,59
834,813	43,78
835,226	43,58
835,639	43,65
836,052	43,87
836,465	43,67
836,878	43,63
837,29	43,63
837,703	43,73
838,116	43,8
838,528	43,65
838,94	43,61
839,352	43,75
839,765	43,75
840,177	43,82
840,589	43,68
841	43,59
841,412	43,47
841,824	43,54
842,235	43,63
842,647	43,55
843,058	43,72
843,47	43,71
843,881	43,62
844,292	43,64
844,703	43,66
845,114	43,83
845,525	43,63
845,935	43,79
846,346	43,64
846,757	43,65
847,167	43,69
847,577	43,96
847,988	43,42
848,398	43,51
848,808	43,31
849,218	43,41
849,628	43,76
850,038	43,55
850,448	43,57
850,857	43,64
851,267	43,56
851,676	43,56
852,086	43,57
852,495	43,68
852,904	43,62
853,313	43,49
853,722	43,69
854,131	43,26
854,54	43,52
854,949	43,56
855,357	43,4
855,766	43,5
856,174	43,35
856,583	43,37
856,991	43,31
857,399	43,61
857,807	43,52
858,215	43,22
858,623	43,5
859,031	43,55
859,439	43,58
859,846	43,89
860,254	43,59
860,661	43,61
861,069	43,54
861,476	43,57
861,883	43,5
862,29	43,35
862,697	43,48
863,104	43,37
863,511	43,15
863,918	43,36
864,325	43,31
864,731	42,97
865,138	43,21
865,544	43,42
865,95	43,5
866,357	43,38
866,763	43,54
867,169	43,46
867,575	43,54
867,98	43,68
868,386	43,4
868,792	43,5
869,197	43,43
869,603	43,25
870,008	43,4
870,414	43,3
870,819	43,19
871,224	43,28
871,629	43,12
872,034	43,42
872,439	43,64
872,844	43,09
873,248	43,59
873,653	43,4
874,057	43,34
874,462	43,4
874,866	43,66
875,27	43,61
875,674	43,51
876,078	43,34
876,482	43,44
876,886	43,63
877,29	43,13
877,694	43,04
878,097	42,83
878,501	42,97
878,904	43,42
879,308	43,01
879,711	43,32
880,114	43,32
880,517	43,32
880,92	43,42
881,323	43,52
881,726	43,27
882,128	43,21
882,531	43,5
882,934	43,43
883,336	43,44
883,738	43,36
884,141	43,54
884,543	43,42
884,945	43,41
885,347	43,34
885,749	43,26
886,151	43,1
886,552	43,26
886,954	43,37
887,355	43,34
887,757	43,03
888,158	43,2
888,56	43,24
888,961	43,67
889,362	43,5
889,763	43,31
890,164	43,1
890,565	43,53
890,965	43,18
891,366	43,61
891,767	43,5
892,167	43,62
892,567	43,29
892,968	43,68
893,368	43,17
893,768	43,29
894,168	43,2
894,568	43,23
894,968	43,29
895,368	42,91
895,767	43,35
896,167	43,25
896,566	43,37
896,966	43,26
897,365	43,48
897,764	43,27
898,164	43,34
898,563	43,6
898,962	43,42
899,361	43,63
899,759	43,28
900,158	43,24
900,557	43,39
900,955	43,59
901,354	43,17
901,752	43,22
902,15	43,25
902,548	43,18
902,947	43,13
903,345	43,13
903,742	43,47
904,14	43,42
904,538	43,29
904,936	43,24
905,333	43,57
905,731	43,07
906,128	43,33
906,525	43,22
906,923	43,09
907,32	43,4
907,717	43,13
908,114	43,19
908,511	43,22
908,907	43,1
909,304	43,18
909,701	43,2
910,097	43,09
910,494	43,06
910,89	43,23
911,286	43,36
911,682	43,23
912,078	43,41
912,474	43,48
912,87	43,62
913,266	43,28
913,662	43,43
914,058	43,34
914,453	43,61
914,849	43,41
915,244	42,88
915,639	43,34
916,034	43,41
916,43	43,23
916,825	43,74
917,22	43,62
917,614	43,13
918,009	43,09
918,404	43,14
918,798	43,42
919,193	43,07
919,587	43,24
919,982	43,17
920,376	43,33
920,77	43,21
921,164	43,47
921,558	43,36
921,952	43,16
922,346	43,03
922,74	43,36
923,133	43,25
923,527	42,88
923,92	42,85
924,314	43,24
924,707	42,99
925,1	43,21
925,493	42,94
925,886	43,03
926,279	42,99
926,672	43,28
927,065	43,22
927,457	43,15
927,85	42,91
928,243	43,01
928,635	43
929,027	42,85
929,42	43,02
929,812	43,05
930,204	42,52
930,596	43,21
930,988	43,02
931,379	43,07
931,771	42,78
932,163	43,17
932,554	43,05
932,946	42,95
933,337	43,04
933,729	42,98
934,12	42,88
934,511	43,03
934,902	42,82
935,293	42,9
935,684	43,08
936,075	43
936,465	42,65
936,856	42,68
937,246	42,89
937,637	42,79
938,027	42,93
938,417	43,42
938,808	43,42
939,198	42,92
939,588	42,95
939,978	42,8
940,368	42,99
940,757	42,97
941,147	42,99
941,537	43,53
941,926	42,36
942,315	42,88
942,705	42,93
943,094	43,05
943,483	42,92
943,872	43,05
944,261	42,94
944,65	43,12
945,039	42,91
945,428	42,63
945,816	42,52
946,205	42,68
946,593	42,96
946,982	43,36
947,37	42,98
947,758	42,66
948,146	42,51
948,534	42,15
948,922	42,67
949,31	42,29
949,698	42,31
950,086	42,47
950,473	42,7
950,861	42,57
951,248	42,73
951,636	42,01
952,023	42,39
952,41	42,39
952,797	42,57
953,184	42,46
953,571	42,12
953,958	42,42
954,345	42,61
954,731	42,92
955,118	42,5
955,505	42,31
955,891	42,43
956,277	42,29
956,664	42,42
957,05	41,85
957,436	42,27
957,822	41,77
958,208	42,42
958,594	42,01
958,979	41,93
959,365	41,86
959,751	42,18
960,136	42,06
960,522	42,02
960,907	42,04
961,292	42,16
961,677	42,15
962,062	41,67
962,447	42,02
962,832	41,87
963,217	41,88
963,602	41,9
963,986	41,72
964,371	41,65
964,756	41,94
965,14	41,89
965,524	41,73
965,908	41,79
966,293	42,1
966,677	41,67
967,061	42,11
967,445	41,95
967,828	42,19
968,212	42,02
968,596	41,97
968,979	42,29
969,363	42,19
969,746	42,06
970,129	41,62
970,513	41,9
970,896	41,93
971,279	41,66
971,662	41,87
972,045	42,07
972,428	41,83
972,81	41,86
973,193	41,76
973,575	41,73
973,958	41,91
974,34	41,96
974,723	42,33
975,105	41,94
975,487	42,06
975,869	42,22
976,251	42,37
976,633	42,13
977,015	42,19
977,396	41,94
977,778	42,14
978,16	41,93
978,541	41,95
978,922	41,92
979,304	42,49
979,685	42,2
980,066	42,44
980,447	41,93
980,828	42,03
981,209	42,47
981,59	42,05
981,97	41,9
982,351	42,23
982,732	41,98
983,112	42,22
983,493	42,47
983,873	42,08
984,253	41,97
984,633	42,15
985,013	42,07
985,393	42,27
985,773	42,03
986,153	42,25
986,533	42,15
986,912	42,06
987,292	41,98
987,671	42,42
988,051	41,87
988,43	42,29
988,809	42,52
989,188	42,49
989,567	42,32
989,946	42,77
990,325	41,65
990,704	42,85
991,083	42,19
991,461	42,42
991,84	42,13
992,218	41,93
992,597	42,62
992,975	42,38
993,353	42,68
993,732	42,25
994,11	42,34
994,488	42,74
994,866	42,31
995,243	42,3
995,621	42,56
995,999	42,55
996,376	42,61
996,754	42,07
997,131	42,42
997,509	42,2
997,886	42,28
998,263	42,92
998,64	42,23
999,017	42,57
999,394	42,17
999,771	42,85
1000,148	42,25
1000,524	42,64
1000,901	42,68
1001,277	42,62
1001,654	42,55
1002,03	42,97
1002,406	43,01
1002,783	42,71
1003,159	43,07
1003,535	42,75
1003,911	43
1004,286	43,35
1004,662	42,82
1005,038	42,77
1005,414	42,38
1005,789	43,07
1006,164	42,77
1006,54	42,74
1006,915	42,84
1007,29	42,5
1007,665	42,77
1008,04	42,6
1008,415	42,96
1008,79	43,35
1009,165	43,08
1009,54	42,72
1009,914	43,35
1010,289	42,97
1010,663	42,92
1011,038	43,4
1011,412	42,91
1011,786	43,04
1012,16	43,36
1012,535	43,17
1012,909	42,9
1013,282	42,73
1013,656	43,28
1014,03	43,09
1014,404	43,34
1014,777	43,27
1015,151	43,05
1015,524	43,17
1015,897	43,32
1016,271	43,5
1016,644	43,22
1017,017	43,37
1017,39	43,33
1017,763	43,52
1018,136	43,44
1018,508	43,1
1018,881	43,85
1019,254	43,36
1019,626	43,37
1019,999	43,14
1020,371	42,98
1020,743	43,29
1021,116	43,74
1021,488	43,16
1021,86	43,26
1022,232	43,37
1022,604	43,01
1022,975	43,83
1023,347	43,81
1023,719	43,37
1024,09	43,64
1024,462	43,72
1024,833	43,94
1025,204	44,15
1025,576	44,54
1025,947	43,43
1026,318	44,1
1026,689	44,21
1027,06	43,98
1027,431	43,85
1027,801	43,97
1028,172	43,59
1028,543	43,22
1028,913	44,18
1029,284	44,03
1029,654	43,82
1030,024	44,12
1030,394	43,78
1030,764	43,45
1031,135	44
1031,504	44,01
1031,874	44,17
1032,244	44,17
1032,614	44,23
1032,983	43,9
1033,353	44,09
1033,722	44,05
1034,092	44,29
1034,461	43,62
1034,83	43,64
1035,2	43,79
1035,569	44,06
1035,938	44,35
1036,307	44,44
1036,675	43,96
1037,044	44,07
1037,413	44,38
1037,781	44,78
1038,15	44,48
1038,518	44,9
1038,887	44,91
1039,255	44,44
1039,623	44,03
1039,991	44,42
1040,359	44,24
1040,727	44,66
1041,095	44,48
1041,463	45,29
1041,831	44,03
1042,198	44,81
1042,566	44,03
1042,933	44,72
1043,301	44,8
1043,668	44,58
1044,035	44,31
1044,402	44,94
1044,77	44,55
1045,137	44,89
1045,503	44,73
1045,87	44,77
1046,237	44,65
1046,604	45,01
1046,97	45
1047,337	44,87
1047,703	44,91
1048,07	44,96
1048,436	45,5
1048,802	45,16
1049,168	45,37
1049,534	45,84
1049,9	45,62
1050,266	44,75
1050,632	44,67
1050,998	45,44
1051,364	45,13
1051,729	44,91
1052,095	44,44
1052,46	44,84
1052,825	45,52
1053,191	44,76
1053,556	45,04
1053,921	45,9
1054,286	45,46
1054,651	45,55
1055,016	45,07
1055,381	46,3
1055,745	45,5
1056,11	45,29
1056,475	45,76
1056,839	45,65
1057,203	45,54
1057,568	45,91
1057,932	45,56
1058,296	46,18
1058,66	45,53
1059,024	45,85
1059,388	46,93
1059,752	45,32
1060,116	46,56
1060,48	46,24
1060,843	46,36
1061,207	45,34
1061,57	46,85
1061,934	45,96
1062,297	46,55
1062,66	45,98
1063,023	45,98
1063,386	46,18
1063,749	46,38
1064,112	46,81
1064,475	46,7
1064,838	46,53
1065,201	46,02
1065,563	46,34
1065,926	46,12
1066,288	45,89
1066,651	46,34
1067,013	46,07
1067,375	46,27
1067,737	46,65
1068,099	45,79
1068,461	46,35
1068,823	46,35
1069,185	47,26
1069,547	46,77
1069,909	46,6
1070,27	46,5
1070,632	46,85
1070,993	45,91
1071,355	45,81
1071,716	45,68
1072,077	46,82
1072,438	46,58
1072,799	46,36
1073,16	47,46
1073,521	47,33
1073,882	47,08
1074,243	46,65
1074,603	48,66
1074,964	46,35
1075,325	46,72
1075,685	48,06
1076,045	46,34
1076,406	46,23
1076,766	47,35
1077,126	47,66
1077,486	47,19
1077,846	46,7
1078,206	46,56
1078,566	46,98
1078,925	47,76
1079,285	47,02
1079,645	46,74
1080,004	48,04
1080,364	48,4
1080,723	49,14
1081,082	46,2
1081,442	48,51
1081,801	47,28
1082,16	46,56
1082,519	46,64
1082,878	47,77
1083,237	47,03
1083,595	46,78
1083,954	46,97
1084,313	47,38
1084,671	47,62
1085,03	48,57
1085,388	46,68
1085,746	47,95
1086,104	47,72
1086,463	47,59
1086,821	47,95
1087,179	47,43
1087,537	47,63
1087,894	46,99
1088,252	49,84
1088,61	48,83
1088,967	46,51
1089,325	47,81
1089,682	48,3
1090,04	46,85
1090,397	47,37
1090,754	48,15
1091,111	47,79
1091,469	48,19
1091,826	47,97
1092,182	48,58
1092,539	48,88
1092,896	48,67
1093,253	47,81
1093,609	47,11
1093,966	49,65
1094,322	49,05
1094,679	48,67
1095,035	48,7
1095,391	48,97
1095,748	48,68
1096,104	49,73
1096,46	49,27
1096,816	49,11
1097,171	48,31
1097,527	49,09
1097,883	49,26
1098,239	51,27
1098,594	48,68
1098,95	50,12
1099,305	49,71
1099,66	50,04
1100,016	49,39
1100,371	48,84
1100,726	50,22
1101,081	49,07
1101,436	49,05
1101,791	49,5
1102,146	47,84
1102,5	49
1102,855	48,59
1103,21	50,07
1103,564	51,63
1103,918	49,78
1104,273	49,58
1104,627	51,57
1104,981	49,9
1105,335	49,03
1105,69	48,38
1106,043	50,84
1106,397	50,9
1106,751	52,23
1107,105	50,02
1107,459	49,38
1107,812	50,71
1108,166	50,22
1108,519	50,26
1108,873	51,12
1109,226	49,36
1109,579	53
1109,932	51,62
1110,285	50,77
1110,638	53,5
1110,991	52,38
1111,344	49,92
1111,697	51,54
1112,05	51,09
1112,402	52,69
1112,755	52,08
1113,107	53,63
1113,46	51,19
1113,812	54,32
1114,164	55,58
1114,517	52,73
1114,869	114,72
1115,221	113,35
1115,573	110,52
1115,924	112,25
