Data from L5__Relative__6__00178.txt Node

Date: Tue Jan 30 18:11:43 CET 2024
User: diatiterra
Spectrometer: HDX00911
Trigger mode: 0
Integration Time (sec): 6,000000E-3
Scans to average: 3
Nonlinearity correction enabled: true
Boxcar width: 0
Storing dark spectrum: false
XAxis mode: Wavelengths
Number of Pixels in Spectrum: 2068
>>>>>Begin Spectral Data<<<<<
194,468	149,35
195,025	103,03
195,581	110,9
196,138	108,09
196,694	100,13
197,251	83,65
197,807	81,1
198,363	79,88
198,919	81,1
199,474	90,23
200,03	82,6
200,586	80,8
201,141	73,07
201,696	70,93
202,251	79,83
202,806	83,09
203,361	80,97
203,916	77,5
204,471	81,03
205,025	79,14
205,58	84,24
206,134	77,22
206,688	78,3
207,242	78,57
207,796	78,25
208,35	75,74
208,904	82,17
209,457	80,44
210,011	82,91
210,564	84,94
211,117	85,04
211,67	89,49
212,223	84,75
212,776	84,45
213,329	80,05
213,881	83,65
214,434	78,47
214,986	84,37
215,538	82,31
216,09	78,9
216,642	83,53
217,194	81,27
217,746	79,5
218,297	76,68
218,849	84,55
219,4	85,84
219,951	84,5
220,502	82,06
221,053	81,15
221,604	78,42
222,155	85,01
222,705	81,91
223,256	75,55
223,806	77,8
224,356	83,68
224,906	80,04
225,456	77,96
226,006	77,38
226,556	75,38
227,106	76,5
227,655	81,91
228,204	84,9
228,754	81,59
229,303	85,07
229,852	86,96
230,401	83,76
230,949	85,54
231,498	80,25
232,047	80,93
232,595	85,66
233,143	86,87
233,691	77,92
234,239	82,83
234,787	79,54
235,335	81,28
235,883	82,53
236,43	81,57
236,978	79,67
237,525	81,31
238,072	80,12
238,619	83,48
239,166	77,41
239,713	76,66
240,26	82,23
240,806	82,85
241,353	79,31
241,899	84,95
242,445	86,25
242,991	82,95
243,537	85,84
244,083	79,91
244,629	81,01
245,174	83,33
245,72	81,87
246,265	87,93
246,81	88,53
247,355	86,82
247,9	86,8
248,445	87,2
248,99	85,88
249,534	79,02
250,079	86,79
250,623	79,15
251,168	77,68
251,712	83,65
252,256	75,81
252,8	82
253,343	75,79
253,887	77,86
254,43	89,84
254,974	82,53
255,517	84,13
256,06	90,04
256,603	88,71
257,146	84,97
257,689	86,05
258,232	87,88
258,774	86,27
259,317	88,52
259,859	79,91
260,401	94,87
260,943	84,96
261,485	85,69
262,027	80,01
262,569	84,31
263,11	81,11
263,652	89,39
264,193	84,3
264,734	87,64
265,275	86,32
265,816	90,28
266,357	82,91
266,898	76,19
267,438	84,53
267,979	84,37
268,519	84,81
269,059	85,34
269,6	80,67
270,14	84,98
270,68	78,94
271,219	84,3
271,759	82,68
272,298	80,77
272,838	80,4
273,377	80,77
273,916	79,83
274,455	78,33
274,994	83,68
275,533	80,23
276,072	83,35
276,61	78,84
277,149	82,8
277,687	80,14
278,225	77,08
278,763	82,48
279,301	86,27
279,839	79,55
280,377	82
280,914	79,45
281,452	80,61
281,989	90,87
282,526	76,78
283,064	86,46
283,601	82,07
284,137	88,01
284,674	83,13
285,211	87,57
285,747	80,52
286,284	87
286,82	81,78
287,356	84,76
287,892	89,36
288,428	84,14
288,964	83,2
289,5	85,51
290,035	84,77
290,571	82,98
291,106	87,14
291,641	84,63
292,176	74,84
292,711	79,05
293,246	80,85
293,781	81,44
294,315	81,86
294,85	91,27
295,384	84,29
295,918	79,32
296,453	77,9
296,987	80,09
297,52	83,01
298,054	74,78
298,588	78,66
299,121	80,33
299,655	79,19
300,188	80,57
300,721	82,82
301,254	81,63
301,787	76,91
302,32	92,26
302,853	80,08
303,385	81,34
303,918	89,49
304,45	83,15
304,982	82,06
305,514	82,26
306,046	73,68
306,578	76,08
307,11	81,24
307,641	83,05
308,173	83,03
308,704	79,7
309,236	87,26
309,767	81,71
310,298	76,79
310,829	85,21
311,359	79,88
311,89	79,78
312,421	76,26
312,951	83,93
313,481	81,44
314,012	76,85
314,542	77,25
315,072	78,26
315,601	78,93
316,131	81,63
316,661	83,81
317,19	80,88
317,72	72,35
318,249	79,75
318,778	82,76
319,307	77,8
319,836	82,56
320,365	80,39
320,893	83,08
321,422	76,96
321,95	74,74
322,479	78,01
323,007	72,86
323,535	72,37
324,063	79,92
324,591	79,33
325,118	83,54
325,646	72,65
326,173	79,47
326,701	79,96
327,228	82,9
327,755	83,12
328,282	77,99
328,809	75,88
329,336	82,36
329,862	78,7
330,389	83,19
330,915	81,16
331,441	79,92
331,968	72,49
332,494	76,15
333,02	81,3
333,545	81,21
334,071	83,12
334,597	74,11
335,122	78,78
335,648	79,99
336,173	80,83
336,698	80,07
337,223	77,86
337,748	76,64
338,272	75,74
338,797	72,63
339,322	78,88
339,846	74,95
340,37	79,83
340,894	79,06
341,419	78,7
341,942	74
342,466	73,75
342,99	77,81
343,514	74,84
344,037	72,1
344,56	76,43
345,084	68,15
345,607	79,18
346,13	71,48
346,653	73,3
347,175	71,84
347,698	79,29
348,221	69,1
348,743	70,06
349,265	71,24
349,787	69,31
350,309	70,33
350,831	71,32
351,353	66,9
351,875	64,79
352,397	61,87
352,918	68,39
353,439	71,93
353,961	66,4
354,482	62,36
355,003	64,23
355,524	65,89
356,044	64,32
356,565	67,54
357,086	67,75
357,606	59,95
358,126	66,31
358,646	64,23
359,167	64,69
359,687	61,88
360,206	63,33
360,726	60,19
361,246	61,84
361,765	60,41
362,285	64,14
362,804	59,78
363,323	61,39
363,842	63,81
364,361	65,75
364,88	58,64
365,398	58,87
365,917	64,33
366,435	59,46
366,954	60,82
367,472	59,53
367,99	61,66
368,508	57,66
369,026	58,92
369,544	59,07
370,061	58,05
370,579	56,51
371,096	54,79
371,613	57,28
372,131	59,3
372,648	53,84
373,165	54,79
373,681	55,52
374,198	58,1
374,715	55,21
375,231	55,44
375,747	54,57
376,264	51,36
376,78	57,49
377,296	52,05
377,812	54,18
378,327	53,62
378,843	50,66
379,359	53,54
379,874	52,18
380,389	52,05
380,905	49,57
381,42	47,97
381,935	50,67
382,449	47,59
382,964	47,33
383,479	45,67
383,993	45,89
384,508	45,31
385,022	44,05
385,536	45,54
386,05	46,72
386,564	45,94
387,078	41,9
387,592	42,42
388,105	40,74
388,619	42,54
389,132	40,16
389,645	41,9
390,158	39,87
390,671	40,77
391,184	38,93
391,697	38,5
392,21	36,63
392,722	39,59
393,235	38,46
393,747	38,01
394,259	35,75
394,771	37,96
395,283	37
395,795	37,19
396,307	36,21
396,818	35,96
397,33	35,61
397,841	33,29
398,353	35,71
398,864	33,09
399,375	32,8
399,886	32,23
400,397	32,32
400,907	30,4
401,418	29,41
401,928	30,69
402,439	29,87
402,949	29,85
403,459	28,47
403,969	28,47
404,479	25,57
404,989	26,32
405,498	26,57
406,008	25,03
406,517	24,4
407,027	23,51
407,536	22,67
408,045	21,32
408,554	21,15
409,063	20
409,572	20,67
410,08	19,29
410,589	18,77
411,097	19,11
411,606	17,74
412,114	17,07
412,622	17,02
413,13	16,69
413,638	16,05
414,145	15,54
414,653	15,19
415,16	14,74
415,668	14,44
416,175	14,23
416,682	13,63
417,189	13,7
417,696	13,78
418,203	13,36
418,71	13,01
419,216	12,59
419,723	12,62
420,229	12,17
420,735	12,4
421,242	12,2
421,748	12,05
422,254	11,99
422,759	11,75
423,265	11,71
423,771	11,42
424,276	11,03
424,781	11,42
425,287	10,67
425,792	11,57
426,297	11,09
426,802	10,88
427,306	10,84
427,811	10,64
428,316	10,29
428,82	10,36
429,324	10,76
429,829	10,32
430,333	10,39
430,837	10,1
431,34	10,4
431,844	10,26
432,348	10,12
432,851	10,01
433,355	10,14
433,858	9,96
434,361	10
434,864	9,81
435,367	9,68
435,87	9,66
436,373	9,7
436,876	9,82
437,378	9,14
437,88	9,57
438,383	9,51
438,885	9,87
439,387	9,7
439,889	9,68
440,391	9,62
440,892	9,43
441,394	9,41
441,896	9,41
442,397	9,67
442,898	9,4
443,399	9,4
443,9	9,7
444,401	9,6
444,902	9,26
445,403	9,52
445,903	9,25
446,404	9,59
446,904	9,39
447,405	9,74
447,905	9,33
448,405	9,72
448,905	9,5
449,404	9,79
449,904	9,35
450,404	9,73
450,903	9,87
451,403	9,61
451,902	9,84
452,401	9,69
452,9	9,68
453,399	9,85
453,898	9,82
454,396	9,78
454,895	10,04
455,393	9,57
455,892	9,8
456,39	9,8
456,888	9,67
457,386	9,77
457,884	9,78
458,382	9,65
458,879	9,64
459,377	9,96
459,874	9,7
460,372	9,88
460,869	9,91
461,366	9,73
461,863	9,73
462,36	9,71
462,857	9,94
463,353	10,14
463,85	9,9
464,346	9,77
464,843	9,62
465,339	10,05
465,835	9,92
466,331	9,61
466,827	9,89
467,323	9,75
467,818	9,93
468,314	9,55
468,809	9,55
469,305	9,72
469,8	9,74
470,295	9,87
470,79	9,79
471,285	9,67
471,78	9,78
472,274	9,77
472,769	9,65
473,263	9,78
473,758	9,85
474,252	9,87
474,746	9,7
475,24	9,79
475,734	9,63
476,228	9,56
476,721	9,77
477,215	9,7
477,708	10,05
478,202	9,89
478,695	9,93
479,188	10,03
479,681	9,78
480,174	9,81
480,667	10,01
481,159	9,93
481,652	9,87
482,144	9,86
482,637	9,87
483,129	9,77
483,621	10
484,113	10
484,605	9,83
485,097	9,99
485,588	10,08
486,08	10,07
486,571	10,15
487,063	9,95
487,554	10,15
488,045	9,82
488,536	10,26
489,027	10,11
489,518	10,34
490,008	9,99
490,499	10,14
490,989	10,35
491,48	10,54
491,97	10,39
492,46	10,52
492,95	10,55
493,44	10,79
493,93	10,43
494,419	10,69
494,909	10,66
495,398	10,75
495,888	10,7
496,377	10,91
496,866	10,93
497,355	11,06
497,844	10,99
498,333	11,22
498,821	11,53
499,31	11,31
499,798	11,22
500,287	11,68
500,775	11,79
501,263	11,94
501,751	12,12
502,239	12,1
502,727	12,58
503,215	12,55
503,702	12,4
504,19	12,73
504,677	13,14
505,164	13,03
505,651	13,4
506,139	13,24
506,625	13,63
507,112	13,79
507,599	14,13
508,086	14,12
508,572	14,38
509,058	14,63
509,545	14,85
510,031	15,24
510,517	15,2
511,003	15,69
511,489	16,21
511,974	16,14
512,46	16,52
512,946	17,01
513,431	17,37
513,916	17,43
514,401	17,69
514,887	18,04
515,371	18,27
515,856	18,27
516,341	18,99
516,826	19,41
517,31	19,74
517,795	19,88
518,279	20,54
518,763	20,79
519,247	21,15
519,731	21,46
520,215	22,18
520,699	22,16
521,182	22,5
521,666	22,75
522,149	23,23
522,633	23,63
523,116	23,83
523,599	24,29
524,082	24,69
524,565	25,04
525,048	25,13
525,53	25,68
526,013	26,1
526,495	26,2
526,978	26,53
527,46	26,82
527,942	27,02
528,424	27,38
528,906	27,69
529,388	27,57
529,87	28,54
530,351	28,16
530,833	28,52
531,314	28,59
531,795	28,58
532,277	29,16
532,758	29,42
533,238	29,1
533,719	29,34
534,2	29,5
534,681	29,78
535,161	29,86
535,642	29,99
536,122	30,04
536,602	29,89
537,082	30,31
537,562	30,29
538,042	30,48
538,522	30,32
539,001	30,44
539,481	30,93
539,96	30,64
540,44	30,72
540,919	30,67
541,398	30,71
541,877	31,37
542,356	30,91
542,835	30,9
543,313	30,66
543,792	31,08
544,27	31,13
544,749	31,13
545,227	31,46
545,705	31,61
546,183	31,37
546,661	31,07
547,139	31,46
547,616	31,47
548,094	31,21
548,571	31,55
549,049	31,43
549,526	31,86
550,003	31,66
550,48	31,51
550,957	31,68
551,434	31,7
551,911	31,63
552,387	31,76
552,864	31,68
553,34	31,57
553,817	31,76
554,293	31,74
554,769	31,74
555,245	31,85
555,721	31,58
556,197	31,65
556,672	31,99
557,148	31,95
557,623	31,67
558,099	31,72
558,574	31,54
559,049	31,42
559,524	31,36
559,999	31,69
560,474	31,62
560,948	31,39
561,423	31,1
561,897	30,86
562,372	30,8
562,846	30,92
563,32	30,8
563,794	30,84
564,268	30,48
564,742	30,48
565,216	30,2
565,69	30,08
566,163	29,97
566,636	29,72
567,11	29,6
567,583	29,41
568,056	29,21
568,529	28,93
569,002	29,01
569,475	28,83
569,947	28,34
570,42	28,26
570,892	28,13
571,365	28,05
571,837	27,82
572,309	27,58
572,781	27,42
573,253	27,38
573,725	26,98
574,197	26,65
574,668	26,89
575,14	26,37
575,611	26,07
576,082	26
576,554	26
577,025	25,66
577,496	25,39
577,967	25,59
578,437	25,12
578,908	25
579,379	24,85
579,849	24,84
580,319	24,61
580,79	24,52
581,26	24,32
581,73	24,04
582,2	23,74
582,669	23,7
583,139	23,64
583,609	23,65
584,078	23,56
584,548	23,23
585,017	23,42
585,486	23,28
585,955	23,15
586,424	23,01
586,893	22,77
587,362	22,82
587,83	22,68
588,299	22,42
588,767	22,68
589,236	22,28
589,704	22,36
590,172	22,27
590,64	22,15
591,108	21,88
591,576	21,71
592,043	21,91
592,511	21,81
592,978	21,76
593,446	21,78
593,913	21,44
594,38	21,32
594,847	21,64
595,314	21,45
595,781	21,5
596,248	21,42
596,715	21,15
597,181	21,18
597,647	21,28
598,114	21,25
598,58	21,12
599,046	21,17
599,512	21,11
599,978	21
600,444	20,94
600,91	20,83
601,375	20,93
601,841	20,97
602,306	20,64
602,771	20,71
603,236	20,91
603,702	20,5
604,167	20,65
604,631	20,36
605,096	20,66
605,561	20,15
606,025	20,16
606,49	19,98
606,954	19,99
607,418	19,94
607,882	19,82
608,347	19,76
608,81	19,71
609,274	19,38
609,738	19,67
610,202	19,47
610,665	19,31
611,128	19,07
611,592	19,06
612,055	19,03
612,518	18,83
612,981	18,7
613,444	18,8
613,907	18,51
614,369	18,48
614,832	18,51
615,294	18,16
615,757	18,09
616,219	17,95
616,681	18
617,143	17,76
617,605	17,75
618,067	17,54
618,529	17,54
618,99	17,6
619,452	17,42
619,913	17,48
620,375	17,15
620,836	17,22
621,297	17,23
621,758	17
622,219	17,06
622,68	16,93
623,14	16,89
623,601	17
624,061	16,84
624,522	16,81
624,982	16,69
625,442	16,7
625,902	16,71
626,362	16,59
626,822	16,7
627,282	16,64
627,742	16,55
628,201	16,55
628,661	16,57
629,12	16,64
629,579	16,46
630,038	16,49
630,497	16,47
630,956	16,45
631,415	16,41
631,874	16,46
632,332	16,35
632,791	16,38
633,249	16,13
633,708	16,15
634,166	16,01
634,624	15,99
635,082	15,74
635,54	15,96
635,998	15,81
636,455	15,76
636,913	15,63
637,37	15,48
637,828	15,33
638,285	15,18
638,742	15,09
639,199	14,91
639,656	14,94
640,113	14,63
640,57	14,54
641,027	14,5
641,483	14,42
641,94	13,97
642,396	14,13
642,852	14
643,309	13,86
643,765	13,63
644,221	13,55
644,676	13,37
645,132	13,34
645,588	13,18
646,043	13,02
646,499	12,85
646,954	12,76
647,409	12,78
647,864	12,45
648,319	12,44
648,774	12,17
649,229	12,18
649,684	12,15
650,139	12,06
650,593	12,02
651,047	11,96
651,502	11,87
651,956	11,77
652,41	11,69
652,864	11,71
653,318	11,68
653,772	11,58
654,225	11,61
654,679	11,43
655,133	11,34
655,586	11,41
656,039	11,28
656,492	11,23
656,946	11,12
657,399	11,11
657,851	10,95
658,304	10,95
658,757	10,85
659,209	10,74
659,662	10,72
660,114	10,68
660,567	10,57
661,019	10,47
661,471	10,38
661,923	10,29
662,375	10,26
662,826	10,27
663,278	10,16
663,73	10,15
664,181	9,99
664,632	10,03
665,084	9,93
665,535	9,86
665,986	9,87
666,437	9,84
666,888	9,79
667,338	9,81
667,789	9,83
668,24	9,86
668,69	9,79
669,14	9,84
669,591	9,85
670,041	9,93
670,491	9,79
670,941	9,88
671,391	10,03
671,84	10,05
672,29	10,03
672,74	10,11
673,189	10,15
673,638	10,26
674,088	10,26
674,537	10,47
674,986	10,42
675,435	10,65
675,883	10,67
676,332	10,87
676,781	10,89
677,229	10,95
677,678	11,09
678,126	11,2
678,574	11,34
679,022	11,35
679,47	11,48
679,918	11,68
680,366	11,73
680,814	11,94
681,261	12,03
681,709	12,24
682,156	12,28
682,604	12,4
683,051	12,56
683,498	12,73
683,945	12,94
684,392	12,96
684,839	13,23
685,286	13,31
685,732	13,57
686,179	13,68
686,625	13,88
687,071	13,95
687,518	14,09
687,964	14,43
688,41	14,61
688,856	15,05
689,301	15,24
689,747	15,44
690,193	15,82
690,638	16,25
691,084	16,54
691,529	16,98
691,974	17,69
692,419	18,09
692,864	18,48
693,309	19,02
693,754	19,51
694,199	20,1
694,643	20,75
695,088	21,27
695,532	21,99
695,977	22,44
696,421	23,11
696,865	23,7
697,309	24,43
697,753	24,99
698,197	25,65
698,64	26,18
699,084	26,98
699,527	27,4
699,971	28,03
700,414	28,44
700,857	29,22
701,3	29,7
701,743	30,3
702,186	30,93
702,629	31,37
703,072	31,99
703,515	32,47
703,957	32,93
704,399	33,39
704,842	33,88
705,284	34,11
705,726	34,91
706,168	35,52
706,61	35,98
707,052	36,14
707,494	36,42
707,935	37,01
708,377	37,56
708,818	37,88
709,26	38,21
709,701	38,58
710,142	38,78
710,583	39,43
711,024	39,85
711,465	40,29
711,905	40,35
712,346	40,81
712,787	41,06
713,227	41,49
713,667	41,98
714,108	42,3
714,548	42,48
714,988	42,71
715,428	43,19
715,868	43,4
716,307	43,49
716,747	44,05
717,186	44,33
717,626	44,61
718,065	44,96
718,504	44,82
718,944	45,64
719,383	45,67
719,822	45,87
720,261	46,01
720,699	46,32
721,138	46,73
721,576	46,9
722,015	46,97
722,453	47,32
722,892	47,57
723,33	47,88
723,768	48,01
724,206	48,15
724,644	48,21
725,081	48,24
725,519	48,42
725,957	48,62
726,394	48,84
726,832	48,75
727,269	49,04
727,706	49,41
728,143	49,4
728,58	49,68
729,017	49,41
729,454	50,06
729,89	49,85
730,327	49,85
730,764	50,08
731,2	50,44
731,636	50,37
732,072	50,79
732,509	50,45
732,945	50,46
733,38	50,52
733,816	50,73
734,252	50,71
734,688	50,79
735,123	50,78
735,559	51,22
735,994	51,13
736,429	50,97
736,864	51,01
737,299	50,8
737,734	51,15
738,169	51,14
738,604	51,53
739,038	51,14
739,473	51,15
739,907	51,41
740,342	51,23
740,776	51,07
741,21	51,26
741,644	51,36
742,078	51,47
742,512	51,35
742,946	51,4
743,379	51,37
743,813	51,48
744,246	51,26
744,68	51,32
745,113	51,3
745,546	51,3
745,979	51,07
746,412	51,51
746,845	51,17
747,278	51,37
747,711	51,17
748,143	51,12
748,576	51,1
749,008	51,13
749,441	50,77
749,873	50,84
750,305	50,86
750,737	50,85
751,169	50,71
751,601	51,04
752,032	50,82
752,464	50,91
752,896	50,92
753,327	50,74
753,758	50,62
754,19	50,68
754,621	50,99
755,052	50,52
755,483	50,48
755,914	50,67
756,344	50,62
756,775	50,43
757,206	50,64
757,636	50,41
758,066	50,23
758,497	50,29
758,927	50,17
759,357	50,22
759,787	50,53
760,217	50,19
760,647	49,99
761,076	50,39
761,506	50,07
761,935	49,85
762,365	50,18
762,794	49,99
763,223	49,88
763,653	50,06
764,082	49,92
764,51	50,12
764,939	50,14
765,368	49,89
765,797	49,86
766,225	49,75
766,654	49,58
767,082	49,49
767,51	49,69
767,938	49,79
768,367	49,54
768,795	49,41
769,222	49,77
769,65	49,6
770,078	49,38
770,505	49,34
770,933	49,52
771,36	49,35
771,788	49,42
772,215	49,46
772,642	49,16
773,069	49,22
773,496	49,31
773,923	49,19
774,349	49,1
774,776	49,13
775,203	49,15
775,629	49,14
776,055	49,13
776,482	48,98
776,908	49,24
777,334	49,18
777,76	48,99
778,186	49,19
778,611	49,11
779,037	48,89
779,463	48,89
779,888	49
780,314	48,88
780,739	48,99
781,164	49,09
781,589	48,79
782,014	48,86
782,439	48,83
782,864	48,95
783,289	48,97
783,713	48,69
784,138	48,67
784,562	48,92
784,987	48,67
785,411	48,78
785,835	48,86
786,259	48,58
786,683	48,77
787,107	48,84
787,531	48,49
787,954	48,81
788,378	48,7
788,802	48,65
789,225	48,58
789,648	48,82
790,071	48,56
790,495	48,44
790,918	48,64
791,34	48,63
791,763	48,62
792,186	48,41
792,609	48,79
793,031	48,56
793,454	48,63
793,876	48,74
794,298	48,46
794,721	48,41
795,143	48,58
795,565	48,58
795,986	48,47
796,408	48,45
796,83	48,55
797,252	48,51
797,673	48,59
798,094	48,39
798,516	48,46
798,937	48,79
799,358	48,32
799,779	48,37
800,2	48,45
800,621	48,5
801,042	48,21
801,462	48,43
801,883	48,41
802,303	48,36
802,724	48,16
803,144	48,33
803,564	48,42
803,984	48,49
804,404	48,52
804,824	48,65
805,244	48,35
805,664	48,43
806,084	48,21
806,503	48,54
806,923	48,29
807,342	48,09
807,761	48,41
808,18	48,38
808,599	48,28
809,018	48,15
809,437	48,26
809,856	47,91
810,275	48,08
810,693	48,31
811,112	48,41
811,53	48,33
811,949	48,49
812,367	48,36
812,785	48,22
813,203	48,3
813,621	48,4
814,039	48,29
814,457	47,89
814,874	48,48
815,292	48,38
815,709	48,09
816,127	48,22
816,544	48,45
816,961	48,27
817,378	48,21
817,795	48,3
818,212	48,07
818,629	48,3
819,046	47,92
819,462	48,17
819,879	48,28
820,295	47,92
820,712	47,98
821,128	48,07
821,544	47,97
821,96	47,99
822,376	48,08
822,792	48,3
823,208	47,83
823,624	48,35
824,039	48,16
824,455	48,17
824,87	48,29
825,286	47,79
825,701	48,28
826,116	48,02
826,531	48,05
826,946	48,1
827,361	47,72
827,776	48,02
828,19	47,81
828,605	47,74
829,02	48,06
829,434	47,75
829,848	48,44
830,263	48,18
830,677	48,14
831,091	48,24
831,505	48,07
831,919	48,07
832,332	47,88
832,746	47,77
833,16	47,74
833,573	47,99
833,987	47,89
834,4	47,83
834,813	47,54
835,226	47,98
835,639	47,72
836,052	48,03
836,465	47,86
836,878	48,14
837,29	47,9
837,703	48,08
838,116	48,09
838,528	47,93
838,94	48,12
839,352	47,82
839,765	48,05
840,177	48,05
840,589	47,85
841	47,83
841,412	47,62
841,824	47,76
842,235	47,54
842,647	47,82
843,058	47,94
843,47	48,15
843,881	48,02
844,292	47,75
844,703	47,98
845,114	47,96
845,525	48,09
845,935	47,89
846,346	47,77
846,757	48
847,167	48,09
847,577	47,91
847,988	47,8
848,398	47,69
848,808	47,57
849,218	47,62
849,628	47,66
850,038	47,78
850,448	47,7
850,857	47,94
851,267	47,78
851,676	47,75
852,086	47,72
852,495	47,63
852,904	47,99
853,313	47,47
853,722	47,32
854,131	47,71
854,54	47,6
854,949	47,7
855,357	47,47
855,766	47,51
856,174	47,47
856,583	47,41
856,991	47,78
857,399	47,69
857,807	47,58
858,215	47,66
858,623	47,87
859,031	47,75
859,439	47,98
859,846	47,49
860,254	47,61
860,661	47,83
861,069	47,53
861,476	47,7
861,883	47,54
862,29	47,64
862,697	47,67
863,104	47,35
863,511	47,49
863,918	47,39
864,325	47,55
864,731	47,34
865,138	47,48
865,544	47,52
865,95	47,56
866,357	47,59
866,763	47,77
867,169	47,7
867,575	47,8
867,98	47,71
868,386	47,74
868,792	47,69
869,197	47,56
869,603	47,47
870,008	47,46
870,414	47,41
870,819	47,29
871,224	47,36
871,629	47,59
872,034	47,26
872,439	47,38
872,844	47,57
873,248	47,73
873,653	47,52
874,057	47,59
874,462	47,65
874,866	47,65
875,27	47,54
875,674	47,43
876,078	47,58
876,482	47,65
876,886	47,33
877,29	47,33
877,694	47,5
878,097	47,11
878,501	47,23
878,904	47,4
879,308	47,2
879,711	47,38
880,114	47,49
880,517	47,46
880,92	47,32
881,323	47,6
881,726	47,58
882,128	47,35
882,531	47,62
882,934	47,35
883,336	47,19
883,738	47,37
884,141	47,28
884,543	47,63
884,945	47,26
885,347	47,46
885,749	47,49
886,151	47,22
886,552	47,14
886,954	47,31
887,355	47,1
887,757	46,86
888,158	47,43
888,56	47,71
888,961	47,36
889,362	47,4
889,763	47,34
890,164	47,6
890,565	47,42
890,965	47,63
891,366	47,66
891,767	47,64
892,167	47,66
892,567	47,29
892,968	47,52
893,368	47,22
893,768	47,21
894,168	47,35
894,568	47,37
894,968	47,24
895,368	47,21
895,767	47,4
896,167	47,41
896,566	47,18
896,966	47,29
897,365	47,58
897,764	47,31
898,164	47,33
898,563	47,66
898,962	47,59
899,361	47,29
899,759	47,47
900,158	47,46
900,557	47,56
900,955	47,78
901,354	47,11
901,752	47,36
902,15	47,34
902,548	47,4
902,947	47,3
903,345	47,65
903,742	47,26
904,14	47,56
904,538	47,49
904,936	47,41
905,333	47,34
905,731	47,43
906,128	47,19
906,525	47,27
906,923	47,26
907,32	47,37
907,717	47,28
908,114	47,42
908,511	47,5
908,907	47,21
909,304	47,2
909,701	47,21
910,097	46,96
910,494	47,73
910,89	47,4
911,286	47,3
911,682	47,53
912,078	47,66
912,474	47,55
912,87	47,76
913,266	47,39
913,662	47,47
914,058	47,52
914,453	47,36
914,849	47,11
915,244	47,5
915,639	47,56
916,034	47,48
916,43	47,63
916,825	47,86
917,22	47,21
917,614	47,33
918,009	47,15
918,404	47,11
918,798	47,51
919,193	47,04
919,587	47,28
919,982	47,14
920,376	47,23
920,77	47,42
921,164	47,39
921,558	47,42
921,952	47,34
922,346	47,17
922,74	47,39
923,133	47,33
923,527	47,21
923,92	47,13
924,314	47,46
924,707	47,11
925,1	47,15
925,493	47,16
925,886	47,29
926,279	47,22
926,672	47,08
927,065	47,28
927,457	47,27
927,85	47,31
928,243	47,38
928,635	47,37
929,027	47,28
929,42	47,47
929,812	47,18
930,204	47,11
930,596	47,33
930,988	47,75
931,379	47,3
931,771	46,96
932,163	47,73
932,554	46,88
932,946	47,28
933,337	46,99
933,729	46,79
934,12	47,38
934,511	47,11
934,902	46,8
935,293	47,2
935,684	47,11
936,075	47,24
936,465	47,2
936,856	47,31
937,246	47,32
937,637	47,15
938,027	47,43
938,417	46,84
938,808	47,18
939,198	47,02
939,588	46,89
939,978	47,48
940,368	46,99
940,757	46,52
941,147	47,33
941,537	47,5
941,926	46,54
942,315	47,17
942,705	47,35
943,094	46,98
943,483	47,1
943,872	47,07
944,261	46,97
944,65	47,23
945,039	47,33
945,428	46,89
945,816	47,54
946,205	46,95
946,593	46,71
946,982	47,59
947,37	46,85
947,758	47,11
948,146	46,75
948,534	46,45
948,922	46,71
949,31	46,5
949,698	46,55
950,086	46,79
950,473	47,2
950,861	46,62
951,248	46,87
951,636	47,07
952,023	46,84
952,41	46,73
952,797	46,62
953,184	46,6
953,571	46,34
953,958	46,35
954,345	46,71
954,731	46,42
955,118	46,87
955,505	46,65
955,891	46,89
956,277	46,45
956,664	46,28
957,05	45,88
957,436	46,91
957,822	46,63
958,208	46,33
958,594	46,72
958,979	46,47
959,365	46,29
959,751	46,45
960,136	46,23
960,522	46,42
960,907	46,12
961,292	46,47
961,677	46,57
962,062	46,12
962,447	46,63
962,832	46,58
963,217	46,4
963,602	46,63
963,986	46,35
964,371	46,38
964,756	46,73
965,14	46,58
965,524	46,23
965,908	45,91
966,293	46,29
966,677	46,5
967,061	46,57
967,445	46,5
967,828	46,99
968,212	46,71
968,596	46,92
968,979	46,41
969,363	46,66
969,746	46,48
970,129	46,26
970,513	46,07
970,896	46,24
971,279	46,4
971,662	46,91
972,045	46,31
972,428	45,82
972,81	46,72
973,193	46,54
973,575	46,22
973,958	46,39
974,34	45,96
974,723	46,37
975,105	46,46
975,487	46,79
975,869	46,39
976,251	46,49
976,633	46,44
977,015	46,55
977,396	46,89
977,778	46,55
978,16	46,56
978,541	46,47
978,922	46,47
979,304	46,47
979,685	46,1
980,066	47,29
980,447	46,17
980,828	46,46
981,209	46,27
981,59	46,52
981,97	46,65
982,351	46,67
982,732	46,69
983,112	46,64
983,493	47,01
983,873	46,58
984,253	47
984,633	46,56
985,013	46,65
985,393	46,71
985,773	46,39
986,153	47,03
986,533	46,47
986,912	46,82
987,292	46,64
987,671	47,1
988,051	46,9
988,43	46,7
988,809	47,03
989,188	46,95
989,567	46,84
989,946	46,91
990,325	46,29
990,704	46,58
991,083	46,55
991,461	46,67
991,84	46,6
992,218	46,99
992,597	46,71
992,975	46,9
993,353	47,38
993,732	47,56
994,11	46,63
994,488	47,07
994,866	47,06
995,243	46,9
995,621	47
995,999	47,05
996,376	47,37
996,754	46,47
997,131	46,87
997,509	46,79
997,886	46,91
998,263	47,14
998,64	46,85
999,017	47,14
999,394	46,71
999,771	46,77
1000,148	46,79
1000,524	46,77
1000,901	46,96
1001,277	47,6
1001,654	46,96
1002,03	47,36
1002,406	47,62
1002,783	47,26
1003,159	46,88
1003,535	47,14
1003,911	47,25
1004,286	47,69
1004,662	47,24
1005,038	46,91
1005,414	46,93
1005,789	47,33
1006,164	46,73
1006,54	47,11
1006,915	47,1
1007,29	46,55
1007,665	47,34
1008,04	47,39
1008,415	47,06
1008,79	47,05
1009,165	47,12
1009,54	47,54
1009,914	47,81
1010,289	47,19
1010,663	47,53
1011,038	47,74
1011,412	47,63
1011,786	47,42
1012,16	47,25
1012,535	47,35
1012,909	47,73
1013,282	47,28
1013,656	47,35
1014,03	47,51
1014,404	47,04
1014,777	47,34
1015,151	46,94
1015,524	47,69
1015,897	47,48
1016,271	47,97
1016,644	47,79
1017,017	48,12
1017,39	47,33
1017,763	47,25
1018,136	47,32
1018,508	47,67
1018,881	48,16
1019,254	47,29
1019,626	47,77
1019,999	47,34
1020,371	47,46
1020,743	47,83
1021,116	47,77
1021,488	47,81
1021,86	47,73
1022,232	47,57
1022,604	47,56
1022,975	47,89
1023,347	47,84
1023,719	47,91
1024,09	47,97
1024,462	48,08
1024,833	47,6
1025,204	48,24
1025,576	48,17
1025,947	47,92
1026,318	47,98
1026,689	48,16
1027,06	47,51
1027,431	47,34
1027,801	48,51
1028,172	47,85
1028,543	47,87
1028,913	48,38
1029,284	48,48
1029,654	48,53
1030,024	48,35
1030,394	48,48
1030,764	47,56
1031,135	47,92
1031,504	47,74
1031,874	48,1
1032,244	48,21
1032,614	47,99
1032,983	48,27
1033,353	47,8
1033,722	47,61
1034,092	48,35
1034,461	48,23
1034,83	48,52
1035,2	48,38
1035,569	48,39
1035,938	48,37
1036,307	48,68
1036,675	48,95
1037,044	48,38
1037,413	48,59
1037,781	48,45
1038,15	48,42
1038,518	48,48
1038,887	48,5
1039,255	48,52
1039,623	48,15
1039,991	49,47
1040,359	48,67
1040,727	49,24
1041,095	48,2
1041,463	49,15
1041,831	48,63
1042,198	48,95
1042,566	48,56
1042,933	48,07
1043,301	49,18
1043,668	49,06
1044,035	48,59
1044,402	49,73
1044,77	48,76
1045,137	49,35
1045,503	48,63
1045,87	48,46
1046,237	49,55
1046,604	49,31
1046,97	48,99
1047,337	49,78
1047,703	50,01
1048,07	49,38
1048,436	49,17
1048,802	49,47
1049,168	50,01
1049,534	50,49
1049,9	49,59
1050,266	48,72
1050,632	49,96
1050,998	50,85
1051,364	49,99
1051,729	49,36
1052,095	48,88
1052,46	49,32
1052,825	49,61
1053,191	49,15
1053,556	49,56
1053,921	49,47
1054,286	49,1
1054,651	49,71
1055,016	49,86
1055,381	49,54
1055,745	49,99
1056,11	50
1056,475	49,54
1056,839	49,89
1057,203	49,63
1057,568	50,56
1057,932	50,61
1058,296	49,76
1058,66	50,72
1059,024	50,09
1059,388	49,94
1059,752	48,94
1060,116	50,62
1060,48	50,87
1060,843	50,36
1061,207	50,73
1061,57	50,46
1061,934	50,77
1062,297	50,15
1062,66	50,28
1063,023	50,34
1063,386	49,78
1063,749	51,03
1064,112	51,05
1064,475	51,29
1064,838	50,47
1065,201	51
1065,563	50,47
1065,926	49,8
1066,288	50,39
1066,651	51,06
1067,013	50,3
1067,375	50,82
1067,737	50,78
1068,099	49,99
1068,461	51,71
1068,823	50,61
1069,185	50,56
1069,547	51,69
1069,909	50,65
1070,27	51,22
1070,632	50,73
1070,993	50,38
1071,355	50,15
1071,716	49,82
1072,077	50,93
1072,438	51,4
1072,799	50,08
1073,16	51,67
1073,521	51,92
1073,882	50,54
1074,243	51,32
1074,603	51,81
1074,964	50,53
1075,325	51,24
1075,685	50,48
1076,045	51,55
1076,406	50,8
1076,766	50,35
1077,126	51,69
1077,486	51,5
1077,846	50,27
1078,206	51,54
1078,566	51,26
1078,925	51,48
1079,285	50,75
1079,645	50,53
1080,004	52,58
1080,364	52,18
1080,723	53,71
1081,082	50,73
1081,442	51,76
1081,801	51,82
1082,16	51,79
1082,519	52,08
1082,878	51,95
1083,237	51,1
1083,595	51
1083,954	52,12
1084,313	51,39
1084,671	53,45
1085,03	52,91
1085,388	51,55
1085,746	52,05
1086,104	49,98
1086,463	53
1086,821	52,01
1087,179	53,04
1087,537	51,94
1087,894	51,26
1088,252	53,77
1088,61	53,76
1088,967	51,26
1089,325	51,39
1089,682	52,68
1090,04	51,73
1090,397	52,41
1090,754	51,76
1091,111	52,49
1091,469	51,77
1091,826	51,63
1092,182	53,76
1092,539	52,83
1092,896	51,54
1093,253	52,91
1093,609	51,55
1093,966	53,21
1094,322	54,13
1094,679	51,61
1095,035	52,6
1095,391	53,92
1095,748	52,66
1096,104	53,26
1096,46	52,36
1096,816	53,51
1097,171	52,57
1097,527	54,31
1097,883	53,46
1098,239	53,44
1098,594	52,84
1098,95	52,25
1099,305	52,36
1099,66	54,22
1100,016	53,33
1100,371	53,35
1100,726	54,15
1101,081	53,18
1101,436	53,85
1101,791	53,15
1102,146	52,77
1102,5	52,81
1102,855	54,12
1103,21	56,07
1103,564	55,72
1103,918	53,87
1104,273	57,63
1104,627	52,49
1104,981	53,99
1105,335	54,48
1105,69	53,59
1106,043	54,13
1106,397	53,1
1106,751	55,56
1107,105	54,77
1107,459	53,97
1107,812	54,93
1108,166	56,38
1108,519	56,48
1108,873	54,96
1109,226	56,64
1109,579	58,54
1109,932	54,1
1110,285	55,77
1110,638	57,84
1110,991	56,64
1111,344	53,59
1111,697	55,72
1112,05	55,07
1112,402	55,12
1112,755	54,95
1113,107	55,47
1113,46	58,57
1113,812	58,73
1114,164	58,96
1114,517	56,64
1114,869	112,34
1115,221	114,28
1115,573	113,75
1115,924	112,7
