Data from D1__Relative__1__00028.txt Node

Date: Thu Feb 01 16:18:40 CET 2024
User: diatiterra
Spectrometer: HDX00911
Trigger mode: 0
Integration Time (sec): 6,000000E-3
Scans to average: 2
Nonlinearity correction enabled: false
Boxcar width: 0
Storing dark spectrum: false
XAxis mode: Wavelengths
Number of Pixels in Spectrum: 2068
>>>>>Begin Spectral Data<<<<<
194,468	144,62
195,025	104,17
195,581	83,33
196,138	79,41
196,694	84,62
197,251	80,16
197,807	65,7
198,363	70,41
198,919	57,07
199,474	61,15
200,03	60,23
200,586	74,05
201,141	51,55
201,696	66,47
202,251	56,91
202,806	62,64
203,361	69,95
203,916	58,38
204,471	69,02
205,025	62,16
205,58	63,01
206,134	58,51
206,688	59,16
207,242	70,35
207,796	53,54
208,35	66,28
208,904	66,1
209,457	65,88
210,011	75,46
210,564	55,38
211,117	63,4
211,67	64,04
212,223	64,95
212,776	62,03
213,329	66,84
213,881	56,48
214,434	65
214,986	88,55
215,538	70,65
216,09	63,02
216,642	61,45
217,194	65,88
217,746	67,43
218,297	65
218,849	68,02
219,4	62,78
219,951	72
220,502	60,95
221,053	66,07
221,604	70,41
222,155	68,45
222,705	67,25
223,256	60,67
223,806	62,29
224,356	51,03
224,906	72,73
225,456	57,75
226,006	66,12
226,556	55,68
227,106	70,12
227,655	63,87
228,204	57,63
228,754	73,56
229,303	58,82
229,852	68,89
230,401	69,14
230,949	64,97
231,498	68,62
232,047	62,78
232,595	71,26
233,143	68,95
233,691	67,03
234,239	60,11
234,787	80,23
235,335	72,09
235,883	64,74
236,43	71,61
236,978	66,49
237,525	55,78
238,072	52,78
238,619	65,24
239,166	62,75
239,713	65,36
240,26	68,42
240,806	66,87
241,353	51,16
241,899	64,29
242,445	68,05
242,991	59,46
243,537	65,36
244,083	70,33
244,629	61,5
245,174	66,67
245,72	62,01
246,265	60,21
246,81	57,95
247,355	63,19
247,9	70,59
248,445	71,97
248,99	61,11
249,534	66,29
250,079	74,1
250,623	61,41
251,168	76,44
251,712	65,88
252,256	67,08
252,8	61,02
253,343	69,78
253,887	58,47
254,43	68,75
254,974	72,07
255,517	68,93
256,06	64,2
256,603	68,54
257,146	51,38
257,689	63,49
258,232	67,72
258,774	67,26
259,317	53,85
259,859	58,12
260,401	62,92
260,943	64,33
261,485	64,32
262,027	61,9
262,569	71,52
263,11	57,63
263,652	70,88
264,193	55,11
264,734	58,48
265,275	54,69
265,816	60
266,357	66,14
266,898	49,49
267,438	63,29
267,979	59,09
268,519	54,76
269,059	63,25
269,6	61,2
270,14	52,55
270,68	58,9
271,219	56,32
271,759	78,21
272,298	68,65
272,838	64,33
273,377	63,69
273,916	79,19
274,455	69,23
274,994	71,67
275,533	66,47
276,072	56,89
276,61	74,56
277,149	67,65
277,687	63,86
278,225	62,35
278,763	56,07
279,301	63,83
279,839	64,89
280,377	59,01
280,914	64,43
281,452	70,39
281,989	65,88
282,526	74,05
283,064	70
283,601	69,66
284,137	68,71
284,674	69,66
285,211	61,29
285,747	65,33
286,284	64,12
286,82	67,19
287,356	59,79
287,892	70,72
288,428	69,54
288,964	59,14
289,5	56,07
290,035	71,59
290,571	66,67
291,106	65,17
291,641	62,21
292,176	58,6
292,711	68,6
293,246	67,39
293,781	62,98
294,315	62,24
294,85	67,74
295,384	63,58
295,918	63,83
296,453	58,92
296,987	62,84
297,52	53,26
298,054	72,99
298,588	74,39
299,121	68,16
299,655	71,18
300,188	70
300,721	66,46
301,254	58,73
301,787	67,2
302,32	55,44
302,853	59,22
303,385	61,96
303,918	68
304,45	62,76
304,982	65,54
305,514	63,83
306,046	60,87
306,578	66,84
307,11	68,51
307,641	60,99
308,173	70,22
308,704	60,23
309,236	52,28
309,767	61,58
310,298	74,21
310,829	61,5
311,359	57
311,89	56,14
312,421	58,38
312,951	58,86
313,481	51,76
314,012	66,15
314,542	56,91
315,072	63,54
315,601	67,53
316,131	62,77
316,661	65,34
317,19	53,18
317,72	59,04
318,249	57,22
318,778	65,99
319,307	65,62
319,836	61,58
320,365	60,32
320,893	65,8
321,422	64,88
321,95	60,42
322,479	72,12
323,007	69,1
323,535	63,58
324,063	59,32
324,591	56,61
325,118	59,68
325,646	59,57
326,173	64,48
326,701	51,79
327,228	63,87
327,755	56,85
328,282	55,87
328,809	72,35
329,336	54,23
329,862	61,71
330,389	52,06
330,915	54,4
331,441	61,99
331,968	77,53
332,494	60,71
333,02	60,89
333,545	56,08
334,071	58,46
334,597	57,3
335,122	60,64
335,648	53,85
336,173	69,73
336,698	50
337,223	56,68
337,748	45,27
338,272	50
338,797	53,01
339,322	56,22
339,846	62,9
340,37	53,01
340,894	48,26
341,419	65,52
341,942	51,85
342,466	53,89
342,99	52,88
343,514	48,53
344,037	56,91
344,56	50,24
345,084	49,75
345,607	52,43
346,13	52,11
346,653	47,2
347,175	48,33
347,698	52,26
348,221	46,95
348,743	47,9
349,265	48,77
349,787	50,24
350,309	39,27
350,831	40,59
351,353	40,76
351,875	48,58
352,397	39,66
352,918	45,83
353,439	49,37
353,961	50
354,482	43,4
355,003	41,56
355,524	47,74
356,044	46,47
356,565	40,24
357,086	43,82
357,606	33,19
358,126	42,15
358,646	42,38
359,167	37,83
359,687	49,81
360,206	44,07
360,726	47,08
361,246	40,38
361,765	45,29
362,285	51,67
362,804	39,57
363,323	36,88
363,842	41,55
364,361	38,32
364,88	39,81
365,398	46,32
365,917	37,96
366,435	46,33
366,954	43,65
367,472	46,84
367,99	36,36
368,508	48,67
369,026	45,83
369,544	43,4
370,061	41,25
370,579	43,52
371,096	36,64
371,613	43,02
372,131	36,23
372,648	37,61
373,165	43,01
373,681	42,47
374,198	39,54
374,715	37,61
375,231	42,53
375,747	38,62
376,264	43,6
376,78	41,62
377,296	30,05
377,812	42,03
378,327	34,09
378,843	38,36
379,359	38,44
379,874	40,2
380,389	38,6
380,905	37,2
381,42	37,11
381,935	34,12
382,449	32,64
382,964	37,01
383,479	30,45
383,993	35,82
384,508	34,21
385,022	34,04
385,536	35,4
386,05	33,33
386,564	37,48
387,078	32,8
387,592	29,62
388,105	28,43
388,619	29,12
389,132	31,09
389,645	28,64
390,158	29,09
390,671	33,38
391,184	29,45
391,697	28,79
392,21	26,24
392,722	29,35
393,235	28,53
393,747	29,67
394,259	26,9
394,771	28,92
395,283	25,73
395,795	27,58
396,307	28,02
396,818	28,53
397,33	29,47
397,841	26,28
398,353	27,88
398,864	28,4
399,375	25,17
399,886	23,94
400,397	25,31
400,907	23,25
401,418	22,91
401,928	22,13
402,439	23,76
402,949	21,14
403,459	22,15
403,969	22,23
404,479	20,79
404,989	21,53
405,498	20,5
406,008	18,1
406,517	19,25
407,027	18,7
407,536	18,18
408,045	16,76
408,554	15,97
409,063	17,54
409,572	13,89
410,08	17,22
410,589	14,93
411,097	14,06
411,606	14,04
412,114	11,89
412,622	12,52
413,13	12,19
413,638	12,06
414,145	11,21
414,653	12,07
415,16	12,07
415,668	11,41
416,175	10,96
416,682	10,56
417,189	10,37
417,696	10,3
418,203	9,88
418,71	9,54
419,216	9,3
419,723	9,04
420,229	8,78
420,735	9,82
421,242	8,11
421,748	9,28
422,254	8,81
422,759	9,28
423,265	8,72
423,771	8,57
424,276	8,36
424,781	8,01
425,287	7,87
425,792	8,86
426,297	8,19
426,802	8,19
427,306	8,24
427,811	7,89
428,316	8,23
428,82	7,67
429,324	7,44
429,829	7,49
430,333	7,63
430,837	7,68
431,34	7,62
431,844	7,4
432,348	7,63
432,851	7,05
433,355	7,29
433,858	7,29
434,361	7,47
434,864	7,09
435,367	7,16
435,87	7,29
436,373	6,97
436,876	7,37
437,378	7,13
437,88	6,79
438,383	7,04
438,885	7,34
439,387	7,36
439,889	6,62
440,391	7,33
440,892	6,98
441,394	7,28
441,896	6,95
442,397	6,97
442,898	6,82
443,399	6,54
443,9	6,79
444,401	7,1
444,902	7,22
445,403	6,55
445,903	7,46
446,404	7,18
446,904	7,53
447,405	7,36
447,905	7,55
448,405	6,61
448,905	6,82
449,404	7,25
449,904	7,34
450,404	7,26
450,903	7,35
451,403	7,77
451,902	7,27
452,401	7,52
452,9	7,82
453,399	8,14
453,898	7,5
454,396	7,44
454,895	7,45
455,393	7,76
455,892	7,79
456,39	7,6
456,888	7,33
457,386	7,4
457,884	7,8
458,382	7,46
458,879	7,84
459,377	7,79
459,874	8,22
460,372	7,66
460,869	7,74
461,366	7,58
461,863	8,17
462,36	7,49
462,857	7,73
463,353	7,37
463,85	7,69
464,346	7,84
464,843	7,63
465,339	7,9
465,835	7,89
466,331	8,08
466,827	7,65
467,323	7,78
467,818	7,74
468,314	7,63
468,809	7,73
469,305	7,47
469,8	7,55
470,295	7,68
470,79	8,17
471,285	7,93
471,78	7,95
472,274	7,73
472,769	7,74
473,263	7,93
473,758	8,03
474,252	8
474,746	7,83
475,24	7,87
475,734	7,58
476,228	7,84
476,721	8,15
477,215	7,83
477,708	8,1
478,202	7,86
478,695	8,1
479,188	7,88
479,681	8,25
480,174	7,53
480,667	7,68
481,159	7,91
481,652	7,94
482,144	8,19
482,637	8,02
483,129	8,29
483,621	8,17
484,113	8,08
484,605	8,24
485,097	7,99
485,588	8,15
486,08	8,58
486,571	8,51
487,063	7,94
487,554	8,14
488,045	8,37
488,536	8,44
489,027	8,38
489,518	8,34
490,008	8,54
490,499	8,3
490,989	8,59
491,48	8,79
491,97	8,72
492,46	8,97
492,95	8,85
493,44	9,12
493,93	9,08
494,419	8,9
494,909	9,01
495,398	9,27
495,888	9,44
496,377	9,37
496,866	9,34
497,355	9,28
497,844	9,56
498,333	9,57
498,821	10,09
499,31	9,85
499,798	10,37
500,287	10,03
500,775	10,15
501,263	10,3
501,751	10,65
502,239	10,9
502,727	10,77
503,215	10,79
503,702	10,86
504,19	11,34
504,677	11,15
505,164	11,33
505,651	11,59
506,139	11,44
506,625	11,99
507,112	12,07
507,599	12,57
508,086	12,7
508,572	12,69
509,058	13,11
509,545	13,32
510,031	13,39
510,517	14,19
511,003	13,92
511,489	14,16
511,974	14,53
512,46	14,82
512,946	14,86
513,431	15,14
513,916	15,47
514,401	15,48
514,887	15,51
515,371	16,25
515,856	16,6
516,341	16,82
516,826	17,23
517,31	17,28
517,795	17,84
518,279	18,39
518,763	18,1
519,247	18,65
519,731	18,76
520,215	19,54
520,699	19,42
521,182	19,96
521,666	20,56
522,149	20,89
522,633	20,83
523,116	21,48
523,599	21,15
524,082	22,32
524,565	22,1
525,048	22,22
525,53	22,7
526,013	22,88
526,495	23,46
526,978	23,32
527,46	24,02
527,942	24,12
528,424	24,1
528,906	23,9
529,388	24,68
529,87	24,94
530,351	25,59
530,833	25,25
531,314	25,23
531,795	25,65
532,277	25,77
532,758	25,93
533,238	25,72
533,719	26,28
534,2	26,08
534,681	26,57
535,161	26,5
535,642	27,17
536,122	26,93
536,602	27,03
537,082	26,89
537,562	27,42
538,042	27,24
538,522	27,58
539,001	27,3
539,481	27,06
539,96	27,27
540,44	27,59
540,919	27,35
541,398	27,54
541,877	27,19
542,356	27,51
542,835	27,81
543,313	27,54
543,792	28,31
544,27	28,09
544,749	27,97
545,227	27,58
545,705	28,52
546,183	27,85
546,661	28,2
547,139	28,38
547,616	28,1
548,094	28,14
548,571	28,32
549,049	28,37
549,526	28,22
550,003	28,46
550,48	28,42
550,957	28,36
551,434	28,49
551,911	28,46
552,387	28,36
552,864	28,57
553,34	28,68
553,817	29,15
554,293	28,64
554,769	28,31
555,245	28,58
555,721	28,4
556,197	28,39
556,672	28,85
557,148	28,65
557,623	28,26
558,099	28,36
558,574	28,85
559,049	28,01
559,524	28,57
559,999	28,68
560,474	28,24
560,948	27,71
561,423	28,06
561,897	28,37
562,372	28,16
562,846	27,81
563,32	27,74
563,794	28,08
564,268	27,26
564,742	27,66
565,216	27,63
565,69	27,49
566,163	27,56
566,636	27,3
567,11	27
567,583	27,09
568,056	26,41
568,529	26,32
569,002	26,54
569,475	26,07
569,947	26,24
570,42	25,78
570,892	25,99
571,365	25,64
571,837	25,34
572,309	24,63
572,781	24,92
573,253	24,92
573,725	24,46
574,197	24,54
574,668	24,25
575,14	24,43
575,611	23,77
576,082	23,96
576,554	23,62
577,025	23,22
577,496	23,48
577,967	23,46
578,437	23,27
578,908	23,13
579,379	22,89
579,849	22,65
580,319	22,4
580,79	22,83
581,26	22,19
581,73	22,62
582,2	21,95
582,669	22,08
583,139	21,96
583,609	21,96
584,078	21,5
584,548	21,54
585,017	21,28
585,486	21,11
585,955	21,46
586,424	21,39
586,893	21,23
587,362	21,52
587,83	21,27
588,299	20,61
588,767	20,87
589,236	20,85
589,704	20,71
590,172	20,52
590,64	20,54
591,108	20,41
591,576	20,39
592,043	20,2
592,511	20,03
592,978	20,13
593,446	20,14
593,913	20,55
594,38	20,31
594,847	20,01
595,314	19,97
595,781	19,69
596,248	19,82
596,715	19,71
597,181	19,74
597,647	19,56
598,114	19,68
598,58	19,87
599,046	19,49
599,512	19,74
599,978	19,57
600,444	19,6
600,91	19,57
601,375	19,67
601,841	19,48
602,306	19,43
602,771	19,16
603,236	19,57
603,702	19,38
604,167	19,34
604,631	19,3
605,096	19,04
605,561	18,82
606,025	18,81
606,49	19,13
606,954	18,78
607,418	18,75
607,882	18,74
608,347	18,73
608,81	18,45
609,274	18,42
609,738	18,42
610,202	18,41
610,665	18,29
611,128	17,85
611,592	18,16
612,055	17,9
612,518	17,82
612,981	17,95
613,444	17,72
613,907	17,74
614,369	17,26
614,832	17,36
615,294	17,3
615,757	17,11
616,219	17,37
616,681	17,07
617,143	17,14
617,605	16,87
618,067	16,93
618,529	16,82
618,99	16,72
619,452	16,88
619,913	16,33
620,375	16,54
620,836	16,8
621,297	16,58
621,758	16,3
622,219	16,18
622,68	16,34
623,14	16,44
623,601	15,99
624,061	16,24
624,522	16,01
624,982	16,01
625,442	15,97
625,902	16,08
626,362	15,89
626,822	15,9
627,282	15,95
627,742	15,79
628,201	15,89
628,661	16,03
629,12	15,92
629,579	15,73
630,038	15,78
630,497	15,56
630,956	15,74
631,415	15,65
631,874	15,59
632,332	15,46
632,791	15,59
633,249	15,59
633,708	15,67
634,166	15,27
634,624	15,15
635,082	15,22
635,54	15,23
635,998	15,11
636,455	14,81
636,913	14,8
637,37	14,8
637,828	14,79
638,285	14,64
638,742	14,59
639,199	14,29
639,656	14,36
640,113	14,14
640,57	14,03
641,027	13,85
641,483	13,84
641,94	13,66
642,396	13,44
642,852	13,52
643,309	13,35
643,765	13,26
644,221	13,04
644,676	12,92
645,132	12,98
645,588	12,55
646,043	12,68
646,499	12,42
646,954	12,28
647,409	12,24
647,864	12,23
648,319	12,11
648,774	11,93
649,229	11,76
649,684	11,73
650,139	11,63
650,593	11,65
651,047	11,73
651,502	11,46
651,956	11,38
652,41	11,14
652,864	11,34
653,318	11,18
653,772	11,31
654,225	11,05
654,679	11,06
655,133	11,06
655,586	10,88
656,039	10,91
656,492	10,99
656,946	10,64
657,399	10,77
657,851	10,99
658,304	10,72
658,757	10,69
659,209	10,46
659,662	10,27
660,114	10,4
660,567	10,18
661,019	10,08
661,471	9,97
661,923	9,89
662,375	9,95
662,826	9,8
663,278	9,66
663,73	9,35
664,181	9,57
664,632	9,27
665,084	9,42
665,535	9,18
665,986	9,17
666,437	9,23
666,888	9,14
667,338	9,16
667,789	8,94
668,24	8,89
668,69	8,85
669,14	8,89
669,591	8,91
670,041	8,97
670,491	8,9
670,941	8,75
671,391	8,92
671,84	8,84
672,29	8,91
672,74	8,98
673,189	8,93
673,638	8,91
674,088	8,97
674,537	9,02
674,986	9,07
675,435	9,13
675,883	9,18
676,332	9,17
676,781	9,35
677,229	9,31
677,678	9,36
678,126	9,4
678,574	9,52
679,022	9,76
679,47	9,8
679,918	10,03
680,366	10,16
680,814	10,05
681,261	10,26
681,709	10,4
682,156	10,48
682,604	10,56
683,051	10,77
683,498	10,93
683,945	11,07
684,392	11,13
684,839	11,45
685,286	11,69
685,732	11,78
686,179	11,95
686,625	12,2
687,071	12,51
687,518	12,57
687,964	13,1
688,41	13,28
688,856	13,54
689,301	13,77
689,747	14,23
690,193	14,42
690,638	14,94
691,084	15,08
691,529	15,54
691,974	16,21
692,419	16,22
692,864	16,98
693,309	17,72
693,754	17,84
694,199	18,39
694,643	18,74
695,088	19,32
695,532	19,82
695,977	20,12
696,421	20,78
696,865	21,54
697,309	21,91
697,753	22,39
698,197	22,87
698,64	23,62
699,084	24,22
699,527	24,44
699,971	24,9
700,414	25,62
700,857	26,14
701,3	26,74
701,743	27,12
702,186	27,44
702,629	28,07
703,072	28,55
703,515	29,3
703,957	29,38
704,399	29,75
704,842	30,38
705,284	30,9
705,726	31,06
706,168	31,37
706,61	31,94
707,052	32,6
707,494	33,15
707,935	33,31
708,377	33,85
708,818	33,91
709,26	34,39
709,701	34,84
710,142	35,09
710,583	35,49
711,024	35,88
711,465	36,5
711,905	36,57
712,346	37
712,787	37,07
713,227	37,61
713,667	38,09
714,108	38,51
714,548	38,78
714,988	39,33
715,428	39,57
715,868	39,75
716,307	39,81
716,747	40,22
717,186	40,54
717,626	40,77
718,065	41,45
718,504	41,29
718,944	42,13
719,383	42,08
719,822	42,23
720,261	42,28
720,699	42,48
721,138	42,82
721,576	42,73
722,015	43,16
722,453	43,41
722,892	43,57
723,33	43,72
723,768	44,31
724,206	44,04
724,644	44,69
725,081	44,79
725,519	44,9
725,957	45,05
726,394	45,26
726,832	45,85
727,269	45,36
727,706	45,53
728,143	46,07
728,58	45,67
729,017	46,32
729,454	46,28
729,89	46,07
730,327	46,26
730,764	46,6
731,2	46,7
731,636	46,88
732,072	46,71
732,509	47,02
732,945	46,89
733,38	46,98
733,816	47,03
734,252	47,56
734,688	47,24
735,123	47,76
735,559	47,41
735,994	47,75
736,429	47,51
736,864	47,81
737,299	47,43
737,734	48,28
738,169	47,89
738,604	47,63
739,038	48,03
739,473	48,03
739,907	47,91
740,342	47,87
740,776	47,88
741,21	48,17
741,644	47,97
742,078	47,69
742,512	47,97
742,946	47,88
743,379	47,63
743,813	47,82
744,246	47,73
744,68	47,98
745,113	47,81
745,546	48
745,979	47,81
746,412	48,13
746,845	47,76
747,278	48,17
747,711	47,9
748,143	47,9
748,576	47,99
749,008	47,64
749,441	48,12
749,873	47,62
750,305	47,72
750,737	47,78
751,169	47,36
751,601	47,63
752,032	47,81
752,464	47,64
752,896	47,17
753,327	47,58
753,758	47,26
754,19	47,38
754,621	47,69
755,052	47,27
755,483	47,32
755,914	47,28
756,344	47,6
756,775	47,43
757,206	47,16
757,636	47,05
758,066	47,06
758,497	47,18
758,927	47,02
759,357	46,97
759,787	47,3
760,217	46,81
760,647	47,32
761,076	46,63
761,506	46,79
761,935	46,79
762,365	47,01
762,794	46,68
763,223	46,73
763,653	46,57
764,082	46,5
764,51	46,48
764,939	46,58
765,368	46,67
765,797	46,32
766,225	46,69
766,654	46,11
767,082	46,27
767,51	46,48
767,938	46,05
768,367	46,17
768,795	46,18
769,222	45,89
769,65	46,34
770,078	45,93
770,505	46,01
770,933	46,01
771,36	46,47
771,788	45,91
772,215	46,25
772,642	45,92
773,069	46,11
773,496	45,82
773,923	46,04
774,349	45,94
774,776	46,29
775,203	46,4
775,629	46,17
776,055	45,93
776,482	45,66
776,908	45,64
777,334	45,82
777,76	45,65
778,186	45,99
778,611	45,93
779,037	45,98
779,463	45,78
779,888	45,48
780,314	45,69
780,739	45,53
781,164	46,02
781,589	45,88
782,014	45,45
782,439	45,5
782,864	45,85
783,289	45,63
783,713	45,86
784,138	45,61
784,562	45,58
784,987	45,73
785,411	45,9
785,835	45,45
786,259	45,46
786,683	45,27
787,107	45,52
787,531	45,42
787,954	45,41
788,378	45,33
788,802	45,47
789,225	45,44
789,648	45,48
790,071	45,76
790,495	45,24
790,918	45,18
791,34	45,68
791,763	45,13
792,186	45,31
792,609	45,2
793,031	45,32
793,454	45,51
793,876	45,21
794,298	45,32
794,721	45,23
795,143	45,08
795,565	45,4
795,986	45,34
796,408	45,08
796,83	45,24
797,252	45,14
797,673	45,17
798,094	45,38
798,516	45,42
798,937	45,18
799,358	45,01
799,779	45,16
800,2	44,99
800,621	44,8
801,042	45,62
801,462	45,01
801,883	45,15
802,303	44,83
802,724	45,13
803,144	44,96
803,564	44,91
803,984	45,35
804,404	44,61
804,824	45,31
805,244	45,08
805,664	44,98
806,084	45,18
806,503	44,99
806,923	45,14
807,342	44,77
807,761	45,27
808,18	45,12
808,599	44,88
809,018	44,97
809,437	45,13
809,856	44,96
810,275	45,05
810,693	45,04
811,112	44,81
811,53	44,85
811,949	44,81
812,367	45,01
812,785	44,76
813,203	44,86
813,621	44,7
814,039	44,91
814,457	45,13
814,874	45,04
815,292	45
815,709	45,26
816,127	44,94
816,544	44,84
816,961	44,66
817,378	45,26
817,795	45,36
818,212	44,89
818,629	44,74
819,046	45,2
819,462	44,84
819,879	45,45
820,295	45,16
820,712	44,44
821,128	44,63
821,544	44,47
821,96	44,66
822,376	45,19
822,792	44,85
823,208	44,72
823,624	44,87
824,039	44,44
824,455	44,57
824,87	44,43
825,286	44,7
825,701	44,8
826,116	44,31
826,531	44,92
826,946	44,7
827,361	44,73
827,776	44,87
828,19	44,67
828,605	44,55
829,02	45,11
829,434	44,53
829,848	44,92
830,263	44,36
830,677	45,03
831,091	44,87
831,505	44,89
831,919	44,78
832,332	44,83
832,746	44,43
833,16	44,49
833,573	44,22
833,987	44,82
834,4	44,57
834,813	45
835,226	44,49
835,639	44,72
836,052	44,52
836,465	44,46
836,878	44,6
837,29	44,68
837,703	44,88
838,116	44,2
838,528	44,87
838,94	44,17
839,352	44,79
839,765	44,57
840,177	44,27
840,589	44,35
841	44,54
841,412	44,68
841,824	44,5
842,235	44,35
842,647	44,67
843,058	44,69
843,47	44,31
843,881	44,43
844,292	44,67
844,703	44,6
845,114	44,41
845,525	44,39
845,935	44,3
846,346	44,52
846,757	44,44
847,167	44,1
847,577	44,41
847,988	44,12
848,398	44,41
848,808	44,4
849,218	44,15
849,628	44,11
850,038	44,22
850,448	44,15
850,857	44,27
851,267	44,63
851,676	44,46
852,086	44,39
852,495	44,48
852,904	45,02
853,313	44,36
853,722	44,11
854,131	44,21
854,54	44,04
854,949	44,08
855,357	44,41
855,766	44,23
856,174	44,12
856,583	44,25
856,991	44,36
857,399	44,19
857,807	44,42
858,215	44,31
858,623	44,27
859,031	44,13
859,439	43,96
859,846	44,16
860,254	44,47
860,661	44,08
861,069	44,23
861,476	44,2
861,883	43,81
862,29	44,09
862,697	44,06
863,104	44,26
863,511	44,08
863,918	44,12
864,325	44,16
864,731	44,15
865,138	43,81
865,544	44,15
865,95	43,88
866,357	44,14
866,763	44,19
867,169	43,87
867,575	44,61
867,98	44,2
868,386	44,24
868,792	43,66
869,197	44,27
869,603	44,15
870,008	44,63
870,414	44,01
870,819	44,02
871,224	43,6
871,629	44,31
872,034	43,67
872,439	43,99
872,844	43,82
873,248	44,37
873,653	44,42
874,057	44,41
874,462	44,02
874,866	44,07
875,27	44,57
875,674	44,2
876,078	44,11
876,482	44,1
876,886	43,76
877,29	44,16
877,694	44,04
878,097	44,06
878,501	43,92
878,904	43,96
879,308	44,33
879,711	43,71
880,114	44,17
880,517	43,72
880,92	44,23
881,323	44,02
881,726	43,83
882,128	43,85
882,531	44,24
882,934	44,37
883,336	44,04
883,738	44,28
884,141	43,79
884,543	44,09
884,945	43,92
885,347	43,85
885,749	44,03
886,151	44,06
886,552	43,73
886,954	44,26
887,355	44,25
887,757	44,11
888,158	43,93
888,56	44,62
888,961	44,38
889,362	44,04
889,763	44,18
890,164	44,09
890,565	43,81
890,965	44,23
891,366	44,35
891,767	44,16
892,167	43,56
892,567	43,94
892,968	43,8
893,368	43,94
893,768	43,78
894,168	43,64
894,568	44,08
894,968	43,85
895,368	44,12
895,767	44,12
896,167	44,11
896,566	43,8
896,966	43,75
897,365	43,35
897,764	43,81
898,164	43,82
898,563	44,26
898,962	43,82
899,361	43,98
899,759	43,91
900,158	43,92
900,557	43,79
900,955	43,55
901,354	44,49
901,752	44
902,15	43,78
902,548	43,95
902,947	43,97
903,345	44,21
903,742	43,8
904,14	44,57
904,538	44,21
904,936	44,22
905,333	44
905,731	43,74
906,128	43,86
906,525	44,2
906,923	44,05
907,32	44,04
907,717	44,06
908,114	44,19
908,511	43,7
908,907	44,59
909,304	44,08
909,701	43,87
910,097	44,05
910,494	43,82
910,89	43,63
911,286	43,6
911,682	43,92
912,078	44,47
912,474	44,2
912,87	43,81
913,266	44
913,662	43,97
914,058	43,94
914,453	44,15
914,849	43,86
915,244	44,14
915,639	44,14
916,034	43,84
916,43	44,13
916,825	43,6
917,22	43,82
917,614	44,14
918,009	43,84
918,404	44,29
918,798	44,19
919,193	43,79
919,587	44,33
919,982	44,39
920,376	43,7
920,77	44,18
921,164	43,64
921,558	44,02
921,952	43,54
922,346	44,58
922,74	43,57
923,133	44,28
923,527	44,02
923,92	43,83
924,314	43,75
924,707	44,14
925,1	44,05
925,493	43,58
925,886	44,03
926,279	43,8
926,672	44,07
927,065	43,73
927,457	44,13
927,85	43,15
928,243	43,67
928,635	43,69
929,027	43,92
929,42	43,53
929,812	42,94
930,204	43,89
930,596	43,51
930,988	43,8
931,379	43,83
931,771	43,87
932,163	43,49
932,554	44,15
932,946	43,91
933,337	44,09
933,729	43,2
934,12	43,96
934,511	43,47
934,902	43,83
935,293	43,68
935,684	43,7
936,075	43,57
936,465	44,03
936,856	44,1
937,246	43,84
937,637	43,72
938,027	44,23
938,417	44,58
938,808	43,95
939,198	44,18
939,588	44,41
939,978	43,07
940,368	43,28
940,757	43,27
941,147	43,75
941,537	45,13
941,926	43,36
942,315	42,9
942,705	44,15
943,094	43,79
943,483	43,46
943,872	43,97
944,261	43,3
944,65	43,91
945,039	43,51
945,428	43,51
945,816	42,77
946,205	43,69
946,593	43,49
946,982	43,95
947,37	43,92
947,758	43,72
948,146	44,59
948,534	43,51
948,922	43,89
949,31	42,93
949,698	43,87
950,086	43,56
950,473	43,69
950,861	43,94
951,248	44,23
951,636	43,22
952,023	43,78
952,41	43,33
952,797	43,48
953,184	43,2
953,571	43,49
953,958	43,5
954,345	42,76
954,731	43,55
955,118	43,05
955,505	43
955,891	43,29
956,277	43,05
956,664	43,96
957,05	43,32
957,436	43,02
957,822	43,82
958,208	42,85
958,594	42,81
958,979	43,55
959,365	43,05
959,751	42,9
960,136	43,69
960,522	43,37
960,907	42,99
961,292	43,13
961,677	44,08
962,062	42,54
962,447	43,22
962,832	42,6
963,217	42,86
963,602	42,8
963,986	43,17
964,371	42,93
964,756	43
965,14	42,24
965,524	43,38
965,908	43,76
966,293	42,75
966,677	43,34
967,061	43,03
967,445	43,08
967,828	42,96
968,212	43,4
968,596	42,98
968,979	42,82
969,363	42,99
969,746	42,75
970,129	43,55
970,513	42,86
970,896	43,43
971,279	43,44
971,662	42,93
972,045	43,08
972,428	42,71
972,81	42,85
973,193	43,2
973,575	43,34
973,958	43,25
974,34	42,42
974,723	42,51
975,105	43,53
975,487	43,42
975,869	43,54
976,251	43,74
976,633	43,22
977,015	42,97
977,396	42,87
977,778	42,81
978,16	43,19
978,541	42,48
978,922	43,58
979,304	42,91
979,685	42,77
980,066	42,8
980,447	42,5
980,828	42,94
981,209	43,24
981,59	42,79
981,97	42,48
982,351	43,19
982,732	43,73
983,112	43,14
983,493	42,99
983,873	43,24
984,253	43,21
984,633	43,2
985,013	43,11
985,393	43,09
985,773	43,59
986,153	42,83
986,533	43,24
986,912	43,56
987,292	43,83
987,671	43,28
988,051	43,54
988,43	43,1
988,809	43,18
989,188	42,96
989,567	43,44
989,946	42,68
990,325	42,68
990,704	43,42
991,083	42,57
991,461	43,37
991,84	43,08
992,218	42,28
992,597	43,1
992,975	42,66
993,353	42,96
993,732	42,95
994,11	42,98
994,488	42,64
994,866	43,17
995,243	42,77
995,621	43,22
995,999	43,15
996,376	43,4
996,754	43,28
997,131	43,42
997,509	43,05
997,886	43,66
998,263	43,32
998,64	43,14
999,017	42,79
999,394	43,24
999,771	43,02
1000,148	43,29
1000,524	44,15
1000,901	42,89
1001,277	43,86
1001,654	43,53
1002,03	43,27
1002,406	42,73
1002,783	43,17
1003,159	43,8
1003,535	42,79
1003,911	42,68
1004,286	43,17
1004,662	43,16
1005,038	43,89
1005,414	43,71
1005,789	43,8
1006,164	44,07
1006,54	43,68
1006,915	43,74
1007,29	43,77
1007,665	43,75
1008,04	43,42
1008,415	42,67
1008,79	43,36
1009,165	43,35
1009,54	43,84
1009,914	43,28
1010,289	42,87
1010,663	42,96
1011,038	44,03
1011,412	43,82
1011,786	43,47
1012,16	44,19
1012,535	42,68
1012,909	43,12
1013,282	43,38
1013,656	43,78
1014,03	43,36
1014,404	43,53
1014,777	43,28
1015,151	44,05
1015,524	43,76
1015,897	43,29
1016,271	43,96
1016,644	43,26
1017,017	44,04
1017,39	43,29
1017,763	43,36
1018,136	43,93
1018,508	43,14
1018,881	43,69
1019,254	43,48
1019,626	44,11
1019,999	43,12
1020,371	43,51
1020,743	43,4
1021,116	42,49
1021,488	43,32
1021,86	43,32
1022,232	43,63
1022,604	42,81
1022,975	44,4
1023,347	43,55
1023,719	43,78
1024,09	43,22
1024,462	43,61
1024,833	43,7
1025,204	44,3
1025,576	44,48
1025,947	44,05
1026,318	42,56
1026,689	43,64
1027,06	44,75
1027,431	44,1
1027,801	43,86
1028,172	44,38
1028,543	44,15
1028,913	44,05
1029,284	43,48
1029,654	44,2
1030,024	43,05
1030,394	44,2
1030,764	43,86
1031,135	43,87
1031,504	43,86
1031,874	43,96
1032,244	44,26
1032,614	43,98
1032,983	44,27
1033,353	44,84
1033,722	43,88
1034,092	43,89
1034,461	44,4
1034,83	44,2
1035,2	44,47
1035,569	43,27
1035,938	45,31
1036,307	44,02
1036,675	43,67
1037,044	43,74
1037,413	43,45
1037,781	44,19
1038,15	43,57
1038,518	44,31
1038,887	43,46
1039,255	44,12
1039,623	44,84
1039,991	44,67
1040,359	43,04
1040,727	42,95
1041,095	43,31
1041,463	42,89
1041,831	44,91
1042,198	44,17
1042,566	43,91
1042,933	44,35
1043,301	43,93
1043,668	45,01
1044,035	43,13
1044,402	44,33
1044,77	44,59
1045,137	44,82
1045,503	44,97
1045,87	43,96
1046,237	44,21
1046,604	42,9
1046,97	45,99
1047,337	43,82
1047,703	44,99
1048,07	44,97
1048,436	43,12
1048,802	43,68
1049,168	44,56
1049,534	43,15
1049,9	44,7
1050,266	44,39
1050,632	43,43
1050,998	44,04
1051,364	45,64
1051,729	45,27
1052,095	43,64
1052,46	43,91
1052,825	44,59
1053,191	44,7
1053,556	43,73
1053,921	45,62
1054,286	44,53
1054,651	45,71
1055,016	44,78
1055,381	43,94
1055,745	45,82
1056,11	45,16
1056,475	44,69
1056,839	44,33
1057,203	43,63
1057,568	45,79
1057,932	43,38
1058,296	45,3
1058,66	44,42
1059,024	44,07
1059,388	44,27
1059,752	46,24
1060,116	45,38
1060,48	44,22
1060,843	43,35
1061,207	43,66
1061,57	43,38
1061,934	45,64
1062,297	43,68
1062,66	44,52
1063,023	44,57
1063,386	44,32
1063,749	44,56
1064,112	42,92
1064,475	45,23
1064,838	44,01
1065,201	43,59
1065,563	43,63
1065,926	45,61
1066,288	42,41
1066,651	45,73
1067,013	46,07
1067,375	43,03
1067,737	44,13
1068,099	43,85
1068,461	42,8
1068,823	44,78
1069,185	43,66
1069,547	43,95
1069,909	45,52
1070,27	43,12
1070,632	45,06
1070,993	44,75
1071,355	45,63
1071,716	43
1072,077	44,11
1072,438	42,67
1072,799	43,07
1073,16	44,83
1073,521	43,64
1073,882	44,39
1074,243	43,33
1074,603	45,14
1074,964	45,04
1075,325	45,26
1075,685	44,45
1076,045	44,47
1076,406	45,09
1076,766	42,96
1077,126	44,67
1077,486	46,28
1077,846	44,95
1078,206	44,12
1078,566	44,05
1078,925	44,66
1079,285	45,56
1079,645	44,63
1080,004	44,2
1080,364	46,81
1080,723	43,51
1081,082	45,59
1081,442	46,65
1081,801	44,03
1082,16	43,87
1082,519	47,45
1082,878	44,56
1083,237	43,48
1083,595	45,72
1083,954	43,67
1084,313	44,65
1084,671	44,23
1085,03	47,08
1085,388	44,47
1085,746	44,63
1086,104	43,05
1086,463	45,56
1086,821	44,91
1087,179	44,82
1087,537	43,37
1087,894	47,04
1088,252	46,13
1088,61	47,37
1088,967	45,83
1089,325	44,9
1089,682	46,01
1090,04	46,38
1090,397	45,92
1090,754	48,14
1091,111	45,45
1091,469	44,92
1091,826	42,65
1092,182	45,46
1092,539	44,23
1092,896	44,23
1093,253	43,77
1093,609	43,62
1093,966	45,76
1094,322	45,91
1094,679	47,13
1095,035	45,75
1095,391	43,91
1095,748	47
1096,104	45,89
1096,46	44,81
1096,816	48,48
1097,171	44,32
1097,527	43,54
1097,883	45,79
1098,239	46,52
1098,594	47,69
1098,95	45,1
1099,305	45,88
1099,66	47,73
1100,016	47,79
1100,371	47,08
1100,726	45,94
1101,081	45,81
1101,436	45,9
1101,791	46,82
1102,146	46,69
1102,5	44,78
1102,855	47,02
1103,21	47,26
1103,564	46,91
1103,918	47,41
1104,273	46,49
1104,627	46,11
1104,981	44,72
1105,335	48,57
1105,69	48,2
1106,043	46,17
1106,397	49,3
1106,751	47,63
1107,105	49,31
1107,459	48,09
1107,812	48,96
1108,166	50,1
1108,519	48,21
1108,873	46,68
1109,226	49,3
1109,579	46,66
1109,932	47,89
1110,285	48,73
1110,638	44,87
1110,991	47,13
1111,344	47,42
1111,697	45,95
1112,05	48,98
1112,402	49,74
1112,755	43,23
1113,107	48,3
1113,46	49,93
1113,812	48,64
1114,164	52,63
1114,517	48,96
1114,869	81,67
1115,221	90,16
1115,573	92,31
1115,924	85,92
