Data from I2__Relative__4__00107.txt Node

Date: Thu Feb 01 16:27:59 CET 2024
User: diatiterra
Spectrometer: HDX00911
Trigger mode: 0
Integration Time (sec): 6,000000E-3
Scans to average: 2
Nonlinearity correction enabled: false
Boxcar width: 0
Storing dark spectrum: false
XAxis mode: Wavelengths
Number of Pixels in Spectrum: 2068
>>>>>Begin Spectral Data<<<<<
194,468	195,38
195,025	127,78
195,581	140,91
196,138	122,06
196,694	107,69
197,251	96,83
197,807	70,93
198,363	75,74
198,919	54,35
199,474	68,79
200,03	81,25
200,586	65,19
201,141	56,7
201,696	69,94
202,251	60,22
202,806	66,67
203,361	75,41
203,916	65,41
204,471	58,7
205,025	70,27
205,58	69,36
206,134	62,77
206,688	67,54
207,242	81,98
207,796	62,63
208,35	71,51
208,904	69,49
209,457	72,94
210,011	81,6
210,564	67,74
211,117	84,97
211,67	76,4
212,223	69,07
212,776	64,17
213,329	71,12
213,881	64,25
214,434	72
214,986	72,29
215,538	59,78
216,09	64,58
216,642	74,7
217,194	70
217,746	64,57
218,297	58,89
218,849	70,93
219,4	73,33
219,951	81,14
220,502	69,82
221,053	75
221,604	75,74
222,155	66,31
222,705	78,95
223,256	78,65
223,806	58,86
224,356	47,94
224,906	75,15
225,456	61,5
226,006	65,03
226,556	72,43
227,106	74,39
227,655	67,54
228,204	58,19
228,754	74,14
229,303	67,06
229,852	70
230,401	62,35
230,949	64,97
231,498	63,3
232,047	60
232,595	78,74
233,143	65,79
233,691	66,48
234,239	59,02
234,787	66,86
235,335	69,19
235,883	60
236,43	63,87
236,978	65,43
237,525	52,26
238,072	68,33
238,619	75
239,166	65,69
239,713	71,51
240,26	71,93
240,806	72,39
241,353	68,02
241,899	68,13
242,445	64,5
242,991	69,73
243,537	68,63
244,083	70,33
244,629	63
245,174	61,49
245,72	65,92
246,265	61,26
246,81	59,66
247,355	67,03
247,9	72,94
248,445	73,25
248,99	68,89
249,534	60,11
250,079	75,9
250,623	64,13
251,168	57,47
251,712	65,88
252,256	70,81
252,8	55,37
253,343	69,23
253,887	69,95
254,43	63,64
254,974	64,8
255,517	71,19
256,06	68,75
256,603	65,17
257,146	63,54
257,689	56,08
258,232	53,97
258,774	76,19
259,317	60,44
259,859	61,26
260,401	58,43
260,943	78,34
261,485	68,65
262,027	64,02
262,569	74,17
263,11	56,5
263,652	63,74
264,193	67,05
264,734	57,31
265,275	58,33
265,816	62,16
266,357	65,61
266,898	48,48
267,438	65,82
267,979	59,66
268,519	58,93
269,059	76,51
269,6	65,57
270,14	60,2
270,68	70,55
271,219	62,64
271,759	80,13
272,298	69,19
272,838	65,5
273,377	69,83
273,916	77,85
274,455	69,74
274,994	65,56
275,533	70,66
276,072	73,05
276,61	76,33
277,149	70
277,687	57,83
278,225	63,53
278,763	67,63
279,301	64,89
279,839	67,02
280,377	72,05
280,914	62,89
281,452	83,8
281,989	75,29
282,526	71,52
283,064	65,62
283,601	66,85
284,137	73,62
284,674	80,9
285,211	76,34
285,747	73,87
286,284	72,35
286,82	66,15
287,356	62,37
287,892	69,61
288,428	62,07
288,964	64,52
289,5	67,05
290,035	71,02
290,571	70,37
291,106	67,42
291,641	66,86
292,176	67,2
292,711	73,26
293,246	64,67
293,781	65,19
294,315	58,16
294,85	74,19
295,384	72,25
295,918	67,02
296,453	65,95
296,987	60,66
297,52	65,76
298,054	79,89
298,588	74,39
299,121	63,69
299,655	66,47
300,188	75,33
300,721	75,16
301,254	71,43
301,787	69,35
302,32	64,77
302,853	75,98
303,385	67,39
303,918	72
304,45	71,43
304,982	72,88
305,514	71,81
306,046	60,87
306,578	70,59
307,11	65,75
307,641	74,73
308,173	76,97
308,704	80,68
309,236	71,57
309,767	75,79
310,298	76,73
310,829	63
311,359	64,73
311,89	72,51
312,421	65,41
312,951	65,71
313,481	58,82
314,012	57,81
314,542	72,87
315,072	71,82
315,601	83,77
316,131	69,15
316,661	80,68
317,19	63,01
317,72	74,7
318,249	76,67
318,778	84,35
319,307	71,35
319,836	80,23
320,365	67,72
320,893	75,13
321,422	80,36
321,95	66,67
322,479	81,82
323,007	72,47
323,535	72,25
324,063	70,62
324,591	65,61
325,118	66,13
325,646	69,15
326,173	75,41
326,701	57,95
327,228	72,25
327,755	67,51
328,282	72,63
328,809	74,71
329,336	66,17
329,862	78,86
330,389	63,92
330,915	60,62
331,441	80,7
331,968	84,83
332,494	62,76
333,02	73,18
333,545	67,2
334,071	59,49
334,597	66,29
335,122	73,94
335,648	68,27
336,173	68,11
336,698	65,43
337,223	72,19
337,748	61,19
338,272	61,7
338,797	73,22
339,322	66,49
339,846	70,43
340,37	59,02
340,894	60,2
341,419	74,14
341,942	62,43
342,466	65,8
342,99	67,54
343,514	62,25
344,037	58,51
344,56	65,55
345,084	63,18
345,607	66,02
346,13	59,15
346,653	63,08
347,175	62,2
347,698	67,84
348,221	64,32
348,743	57,98
349,265	69,95
349,787	55,12
350,309	49,8
350,831	53,97
351,353	59,72
351,875	49,39
352,397	57,33
352,918	63,33
353,439	55,7
353,961	53,54
354,482	56,6
355,003	52,67
355,524	53,5
356,044	56,43
356,565	45,93
357,086	48,69
357,606	50,64
358,126	45,98
358,646	52,04
359,167	54,78
359,687	53,53
360,206	59,63
360,726	59,53
361,246	55,85
361,765	49,28
362,285	50,93
362,804	49,28
363,323	47,16
363,842	49,3
364,361	46,72
364,88	45,31
365,398	48,77
365,917	44,75
366,435	49
366,954	48,86
367,472	48,42
367,99	45,45
368,508	47
369,026	46,47
369,544	44,03
370,061	41,54
370,579	44,75
371,096	42,42
371,613	45,58
372,131	40,58
372,648	43,87
373,165	41,37
373,681	46,99
374,198	39,26
374,715	40,17
375,231	43,04
375,747	41,8
376,264	44,39
376,78	42,39
377,296	40,87
377,812	42,03
378,327	37,34
378,843	37,6
379,359	37,74
379,874	39,45
380,389	35,67
380,905	33,12
381,42	36,67
381,935	37,95
382,449	34,3
382,964	31,19
383,479	38,27
383,993	33,95
384,508	30,26
385,022	34,43
385,536	33,98
386,05	37,48
386,564	31,44
387,078	34,05
387,592	30,48
388,105	30,08
388,619	28,48
389,132	30,63
389,645	27,2
390,158	32,75
390,671	28,81
391,184	30,01
391,697	27,39
392,21	26,51
392,722	28,55
393,235	25,5
393,747	27,19
394,259	27,18
394,771	24,83
395,283	26,39
395,795	24,74
396,307	24,37
396,818	24,16
397,33	26
397,841	25,18
398,353	24,12
398,864	22,33
399,375	21,83
399,886	23,29
400,397	21,76
400,907	21,77
401,418	20,34
401,928	20,51
402,439	19,71
402,949	17
403,459	20,39
403,969	18,25
404,479	16,23
404,989	17,04
405,498	18,26
406,008	16,85
406,517	16,96
407,027	16,29
407,536	15,32
408,045	14,83
408,554	14,91
409,063	13,83
409,572	12,59
410,08	14,73
410,589	12,59
411,097	11,88
411,606	11,25
412,114	11,79
412,622	10,3
413,13	10,1
413,638	9,96
414,145	9,09
414,653	10,52
415,16	10,33
415,668	8,8
416,175	8,97
416,682	9,1
417,189	8,9
417,696	8,74
418,203	8,57
418,71	7,77
419,216	8,78
419,723	8,08
420,229	7,06
420,735	8,39
421,242	7,49
421,748	7,66
422,254	7,38
422,759	6,84
423,265	7,11
423,771	7,25
424,276	6,75
424,781	7,41
425,287	6,73
425,792	6,61
426,297	7,66
426,802	6,6
427,306	6,83
427,811	6,87
428,316	6,78
428,82	6,41
429,324	6,37
429,829	6,71
430,333	6,55
430,837	5,8
431,34	6,41
431,844	6,36
432,348	6,73
432,851	6,13
433,355	5,81
433,858	6,19
434,361	5,91
434,864	6,09
435,367	6,32
435,87	6,42
436,373	5,93
436,876	6,42
437,378	5,86
437,88	5,55
438,383	5,45
438,885	5,75
439,387	6,34
439,889	5,52
440,391	5,7
440,892	5,54
441,394	5,97
441,896	5,75
442,397	5,75
442,898	5,54
443,399	5,73
443,9	5,42
444,401	5,5
444,902	5,6
445,403	5,44
445,903	5,48
446,404	5,77
446,904	5,78
447,405	5,85
447,905	5,72
448,405	5,96
448,905	5,32
449,404	5,83
449,904	5,92
450,404	5,82
450,903	6,27
451,403	6
451,902	5,95
452,401	5,55
452,9	6,34
453,399	5,89
453,898	6,02
454,396	5,97
454,895	5,95
455,393	5,93
455,892	6,48
456,39	6,09
456,888	5,73
457,386	6,27
457,884	5,61
458,382	6,32
458,879	6,35
459,377	6,32
459,874	6,2
460,372	6,02
460,869	6,04
461,366	5,89
461,863	6,26
462,36	6,18
462,857	5,77
463,353	6,01
463,85	5,66
464,346	6,16
464,843	6,05
465,339	5,83
465,835	5,99
466,331	6,08
466,827	5,83
467,323	5,68
467,818	5,86
468,314	5,84
468,809	5,66
469,305	5,58
469,8	6,24
470,295	5,92
470,79	5,67
471,285	6,03
471,78	5,83
472,274	5,76
472,769	5,84
473,263	5,98
473,758	5,67
474,252	6,17
474,746	6,01
475,24	5,88
475,734	5,79
476,228	5,86
476,721	5,65
477,215	5,94
477,708	5,85
478,202	5,84
478,695	5,99
479,188	5,84
479,681	6,02
480,174	5,84
480,667	5,59
481,159	5,92
481,652	5,72
482,144	5,88
482,637	6,07
483,129	5,89
483,621	5,99
484,113	6,02
484,605	6,33
485,097	6,02
485,588	6,01
486,08	6,14
486,571	6,3
487,063	6,26
487,554	6,11
488,045	6,53
488,536	6,05
489,027	5,97
489,518	5,98
490,008	6,13
490,499	6,11
490,989	6,23
491,48	6,66
491,97	6,3
492,46	6,33
492,95	6,41
493,44	6,69
493,93	6,38
494,419	6,5
494,909	6,75
495,398	6,95
495,888	6,79
496,377	6,98
496,866	6,94
497,355	6,86
497,844	6,84
498,333	7,05
498,821	7,26
499,31	7,21
499,798	7,33
500,287	7,39
500,775	7,61
501,263	7,68
501,751	7,63
502,239	8,12
502,727	7,78
503,215	8,31
503,702	8,25
504,19	8,22
504,677	8,59
505,164	8,84
505,651	8,53
506,139	8,77
506,625	8,91
507,112	9,26
507,599	9,47
508,086	9,62
508,572	9,57
509,058	9,55
509,545	9,86
510,031	10,28
510,517	10,06
511,003	10,19
511,489	10,26
511,974	10,64
512,46	10,97
512,946	10,8
513,431	11,16
513,916	11,3
514,401	11,5
514,887	11,66
515,371	11,52
515,856	11,63
516,341	12,09
516,826	12,64
517,31	12,37
517,795	12,85
518,279	12,73
518,763	13,03
519,247	13,35
519,731	12,98
520,215	13,77
520,699	13,71
521,182	14,01
521,666	14,26
522,149	14,28
522,633	14,76
523,116	14,68
523,599	14,91
524,082	14,96
524,565	15,18
525,048	15,3
525,53	15,17
526,013	15,31
526,495	15,67
526,978	15,4
527,46	16,03
527,942	16,33
528,424	16,52
528,906	16,06
529,388	16,49
529,87	16,4
530,351	17,01
530,833	16,71
531,314	16,4
531,795	17
532,277	16,94
532,758	16,88
533,238	17,23
533,719	17,23
534,2	17,41
534,681	16,75
535,161	17,48
535,642	17,51
536,122	17,74
536,602	17,68
537,082	17,35
537,562	17,47
538,042	17,51
538,522	17,88
539,001	17,7
539,481	17,16
539,96	17,77
540,44	18,24
540,919	17,49
541,398	18,16
541,877	17,57
542,356	17,72
542,835	17,7
543,313	17,67
543,792	17,98
544,27	17,86
544,749	17,73
545,227	17,83
545,705	18,02
546,183	17,78
546,661	17,86
547,139	17,67
547,616	17,96
548,094	17,8
548,571	17,98
549,049	18,42
549,526	18,37
550,003	17,99
550,48	18,24
550,957	18,22
551,434	17,76
551,911	18,28
552,387	18,13
552,864	18,22
553,34	18,4
553,817	18,18
554,293	18,21
554,769	18,2
555,245	18,43
555,721	18,12
556,197	18,01
556,672	18,06
557,148	18,24
557,623	18,17
558,099	18,31
558,574	18,04
559,049	18,09
559,524	18,02
559,999	18,18
560,474	18,27
560,948	18,03
561,423	17,37
561,897	18,18
562,372	18,14
562,846	17,55
563,32	17,87
563,794	17,75
564,268	17,76
564,742	17,81
565,216	17,66
565,69	17,71
566,163	17,78
566,636	17,45
567,11	17,37
567,583	17,29
568,056	17,11
568,529	16,99
569,002	17,15
569,475	17,23
569,947	17,31
570,42	16,7
570,892	16,8
571,365	16,57
571,837	16,55
572,309	16,01
572,781	16,46
573,253	16,32
573,725	16,42
574,197	16,37
574,668	16,1
575,14	16,08
575,611	15,82
576,082	15,89
576,554	15,87
577,025	15,48
577,496	15,49
577,967	15,46
578,437	15,26
578,908	15,38
579,379	15,32
579,849	15,41
580,319	15,1
580,79	15,1
581,26	15,04
581,73	14,93
582,2	14,82
582,669	14,91
583,139	14,98
583,609	14,93
584,078	14,6
584,548	14,7
585,017	14,59
585,486	14,59
585,955	14,58
586,424	14,17
586,893	14,54
587,362	14,09
587,83	14,19
588,299	14,43
588,767	14,17
589,236	14,08
589,704	14,03
590,172	13,85
590,64	14,08
591,108	14
591,576	14,12
592,043	13,81
592,511	13,77
592,978	13,56
593,446	13,61
593,913	13,88
594,38	13,63
594,847	13,52
595,314	13,59
595,781	13,8
596,248	13,65
596,715	13,6
597,181	13,37
597,647	13,46
598,114	13,43
598,58	13,53
599,046	13,59
599,512	13,42
599,978	13,38
600,444	13,35
600,91	13,32
601,375	13,45
601,841	13,29
602,306	13,23
602,771	13,11
603,236	13,4
603,702	13,19
604,167	13,3
604,631	13,14
605,096	13,09
605,561	13,06
606,025	12,95
606,49	13,06
606,954	12,86
607,418	12,78
607,882	12,84
608,347	12,78
608,81	12,81
609,274	12,63
609,738	12,63
610,202	12,68
610,665	12,7
611,128	12,59
611,592	12,6
612,055	12,66
612,518	12,37
612,981	12,55
613,444	12,17
613,907	12,37
614,369	12,11
614,832	12,05
615,294	12,18
615,757	11,83
616,219	12,04
616,681	11,94
617,143	11,64
617,605	12,01
618,067	11,85
618,529	11,66
618,99	11,8
619,452	11,61
619,913	11,73
620,375	11,52
620,836	11,54
621,297	11,53
621,758	11,59
622,219	11,49
622,68	11,53
623,14	11,5
623,601	11,33
624,061	11,39
624,522	11,21
624,982	11,48
625,442	11,56
625,902	11,17
626,362	11,37
626,822	11,31
627,282	11,1
627,742	11,14
628,201	11,25
628,661	11,2
629,12	11,19
629,579	11,1
630,038	11,17
630,497	11,05
630,956	11,11
631,415	10,94
631,874	10,85
632,332	11,05
632,791	11,03
633,249	11,19
633,708	11,16
634,166	10,85
634,624	10,87
635,082	10,68
635,54	10,54
635,998	10,58
636,455	10,51
636,913	10,51
637,37	10,45
637,828	10,43
638,285	10,42
638,742	10,35
639,199	10,16
639,656	10,18
640,113	10,06
640,57	9,79
641,027	9,91
641,483	9,65
641,94	9,7
642,396	9,49
642,852	9,32
643,309	9,35
643,765	9,3
644,221	9,09
644,676	9,05
645,132	8,96
645,588	8,87
646,043	8,77
646,499	8,68
646,954	8,6
647,409	8,49
647,864	8,5
648,319	8,39
648,774	8,35
649,229	8,18
649,684	8,39
650,139	8,18
650,593	8,21
651,047	7,96
651,502	8,11
651,956	8,07
652,41	7,94
652,864	8,14
653,318	7,99
653,772	7,92
654,225	7,95
654,679	7,79
655,133	7,84
655,586	7,68
656,039	7,74
656,492	7,72
656,946	7,48
657,399	7,43
657,851	7,62
658,304	7,43
658,757	7,43
659,209	7,34
659,662	7,31
660,114	7,37
660,567	7,18
661,019	7,21
661,471	7
661,923	6,89
662,375	6,93
662,826	6,88
663,278	6,82
663,73	6,58
664,181	6,6
664,632	6,7
665,084	6,5
665,535	6,33
665,986	6,44
666,437	6,29
666,888	6,47
667,338	6,21
667,789	6,36
668,24	6,21
668,69	6,14
669,14	6,2
669,591	6,2
670,041	6,14
670,491	6,15
670,941	6,07
671,391	6,05
671,84	6,13
672,29	6,13
672,74	6,18
673,189	6,1
673,638	6,07
674,088	6,23
674,537	6,21
674,986	6,16
675,435	6,27
675,883	6,24
676,332	6,23
676,781	6,32
677,229	6,38
677,678	6,39
678,126	6,61
678,574	6,55
679,022	6,7
679,47	6,88
679,918	6,68
680,366	6,92
680,814	6,88
681,261	6,89
681,709	7,16
682,156	7
682,604	7,17
683,051	7,45
683,498	7,5
683,945	7,66
684,392	7,78
684,839	7,94
685,286	8,03
685,732	8,11
686,179	8,38
686,625	8,67
687,071	8,77
687,518	8,85
687,964	9,07
688,41	9,27
688,856	9,51
689,301	9,73
689,747	9,92
690,193	10,19
690,638	10,47
691,084	10,64
691,529	11
691,974	11,3
692,419	11,43
692,864	11,8
693,309	12,24
693,754	12,26
694,199	12,56
694,643	12,96
695,088	13,15
695,532	13,4
695,977	13,92
696,421	14,12
696,865	14,28
697,309	14,71
697,753	15,03
698,197	15,12
698,64	15,55
699,084	15,73
699,527	15,67
699,971	16,25
700,414	16,46
700,857	16,68
701,3	16,61
701,743	16,79
702,186	17,24
702,629	17,32
703,072	17,73
703,515	18,02
703,957	17,92
704,399	18,15
704,842	18,63
705,284	18,65
705,726	18,76
706,168	18,92
706,61	19,1
707,052	19,26
707,494	19,43
707,935	19,68
708,377	19,81
708,818	19,88
709,26	19,97
709,701	20,13
710,142	20,35
710,583	20,47
711,024	20,64
711,465	20,72
711,905	20,92
712,346	21,04
712,787	21,28
713,227	21,37
713,667	21,4
714,108	21,54
714,548	21,49
714,988	21,75
715,428	21,75
715,868	22
716,307	21,79
716,747	21,86
717,186	22,2
717,626	22,37
718,065	22,47
718,504	22,36
718,944	22,73
719,383	22,94
719,822	22,45
720,261	22,67
720,699	22,8
721,138	22,89
721,576	22,86
722,015	22,82
722,453	23,1
722,892	23,08
723,33	23,01
723,768	23,27
724,206	23,31
724,644	23,52
725,081	23,51
725,519	23,4
725,957	23,69
726,394	23,21
726,832	23,42
727,269	23,75
727,706	23,55
728,143	23,95
728,58	23,72
729,017	23,61
729,454	23,68
729,89	23,75
730,327	23,7
730,764	23,72
731,2	24,04
731,636	23,86
732,072	23,87
732,509	24,01
732,945	23,97
733,38	23,87
733,816	23,99
734,252	24,16
734,688	24,12
735,123	24,27
735,559	24,11
735,994	24,22
736,429	24,27
736,864	24,16
737,299	24,08
737,734	24,32
738,169	24,07
738,604	24,23
739,038	24,35
739,473	24,29
739,907	24,01
740,342	23,92
740,776	24,35
741,21	24,07
741,644	23,89
742,078	24,13
742,512	24,02
742,946	24,03
743,379	24,02
743,813	23,88
744,246	23,9
744,68	23,97
745,113	24,01
745,546	24,18
745,979	23,88
746,412	23,94
746,845	24,01
747,278	24,08
747,711	23,86
748,143	24,04
748,576	23,85
749,008	23,86
749,441	23,77
749,873	23,94
750,305	24,04
750,737	23,67
751,169	23,72
751,601	23,76
752,032	23,82
752,464	23,58
752,896	23,79
753,327	23,71
753,758	23,74
754,19	23,57
754,621	23,7
755,052	23,45
755,483	23,6
755,914	23,61
756,344	23,69
756,775	23,63
757,206	23,5
757,636	23,62
758,066	23,63
758,497	23,55
758,927	23,43
759,357	23,31
759,787	23,47
760,217	23,35
760,647	23,44
761,076	23,24
761,506	23,26
761,935	23,35
762,365	23,33
762,794	23,28
763,223	23,32
763,653	23,22
764,082	23,12
764,51	23,23
764,939	23,01
765,368	23,11
765,797	22,95
766,225	23,35
766,654	23,18
767,082	23,08
767,51	23,16
767,938	23,11
768,367	23,01
768,795	23,18
769,222	23
769,65	23,05
770,078	22,93
770,505	22,95
770,933	22,81
771,36	23,07
771,788	22,98
772,215	23,03
772,642	22,92
773,069	22,64
773,496	22,65
773,923	22,76
774,349	22,94
774,776	22,75
775,203	23,01
775,629	22,77
776,055	22,82
776,482	22,6
776,908	22,95
777,334	22,59
777,76	22,64
778,186	22,88
778,611	22,77
779,037	22,58
779,463	22,59
779,888	22,63
780,314	22,54
780,739	22,48
781,164	22,8
781,589	22,66
782,014	22,6
782,439	22,64
782,864	22,78
783,289	22,52
783,713	22,73
784,138	22,5
784,562	22,87
784,987	22,67
785,411	22,7
785,835	22,81
786,259	22,26
786,683	22,61
787,107	22,44
787,531	22,58
787,954	22,44
788,378	22,32
788,802	22,39
789,225	22,54
789,648	22,47
790,071	22,44
790,495	22,42
790,918	22,52
791,34	22,57
791,763	22,46
792,186	22,58
792,609	22,33
793,031	22,49
793,454	22,65
793,876	22,45
794,298	22,46
794,721	22,5
795,143	22,55
795,565	22,43
795,986	22,17
796,408	22,35
796,83	22,2
797,252	22,54
797,673	22,44
798,094	22,29
798,516	22,65
798,937	22,44
799,358	22,33
799,779	22,32
800,2	22,45
800,621	22,28
801,042	22,35
801,462	22,47
801,883	22,31
802,303	22,3
802,724	22,21
803,144	22,42
803,564	22,28
803,984	22,4
804,404	22,26
804,824	22,35
805,244	22,54
805,664	22,38
806,084	22,4
806,503	22,54
806,923	22,6
807,342	22,32
807,761	22,22
808,18	22,3
808,599	21,98
809,018	22,33
809,437	22,15
809,856	22,33
810,275	22,15
810,693	22,48
811,112	22,39
811,53	22,38
811,949	22,31
812,367	22,53
812,785	22,3
813,203	22,29
813,621	22,28
814,039	22,28
814,457	22,18
814,874	22,21
815,292	22,6
815,709	22,24
816,127	22,14
816,544	22,38
816,961	22,06
817,378	22,33
817,795	22,23
818,212	22,3
818,629	22,4
819,046	22,33
819,462	22,13
819,879	22,39
820,295	22,17
820,712	21,85
821,128	22,3
821,544	22,18
821,96	22,23
822,376	22,1
822,792	22,29
823,208	22,19
823,624	22,33
824,039	22,09
824,455	22,09
824,87	22,23
825,286	22,13
825,701	22,21
826,116	22,06
826,531	22,33
826,946	22,03
827,361	22,11
827,776	22,24
828,19	21,95
828,605	22,26
829,02	22,14
829,434	21,86
829,848	22
830,263	22,12
830,677	22,27
831,091	22,04
831,505	22,34
831,919	22,05
832,332	22,06
832,746	22,12
833,16	22,12
833,573	21,72
833,987	22,18
834,4	22,07
834,813	22,08
835,226	22,1
835,639	22,06
836,052	22,02
836,465	21,93
836,878	22,06
837,29	22,28
837,703	22,01
838,116	21,8
838,528	22,07
838,94	21,93
839,352	21,93
839,765	21,93
840,177	22,15
840,589	21,76
841	21,78
841,412	21,93
841,824	22,04
842,235	21,82
842,647	21,82
843,058	22,14
843,47	22,02
843,881	22,15
844,292	22,27
844,703	22
845,114	22,08
845,525	22,05
845,935	22,07
846,346	22,05
846,757	22,01
847,167	21,52
847,577	21,96
847,988	21,93
848,398	21,8
848,808	21,99
849,218	21,8
849,628	21,88
850,038	21,74
850,448	22,04
850,857	21,8
851,267	21,98
851,676	21,83
852,086	22,08
852,495	21,92
852,904	22,2
853,313	22,15
853,722	21,65
854,131	21,9
854,54	22,06
854,949	21,77
855,357	21,95
855,766	21,86
856,174	21,7
856,583	21,83
856,991	21,67
857,399	21,62
857,807	21,92
858,215	21,92
858,623	21,72
859,031	21,87
859,439	21,62
859,846	21,75
860,254	21,77
860,661	21,64
861,069	21,88
861,476	21,89
861,883	21,65
862,29	21,72
862,697	21,64
863,104	21,93
863,511	21,89
863,918	21,63
864,325	21,81
864,731	21,74
865,138	21,83
865,544	21,76
865,95	21,95
866,357	21,91
866,763	21,72
867,169	21,8
867,575	21,79
867,98	21,82
868,386	22,06
868,792	21,55
869,197	21,75
869,603	21,89
870,008	21,68
870,414	21,68
870,819	21,6
871,224	21,83
871,629	21,87
872,034	21,61
872,439	21,68
872,844	21,58
873,248	21,88
873,653	21,94
874,057	21,82
874,462	21,93
874,866	21,52
875,27	21,65
875,674	21,72
876,078	21,91
876,482	21,67
876,886	21,89
877,29	21,73
877,694	21,46
878,097	21,55
878,501	21,85
878,904	21,87
879,308	21,72
879,711	21,58
880,114	21,78
880,517	21,83
880,92	21,72
881,323	21,65
881,726	21,69
882,128	21,8
882,531	21,72
882,934	21,74
883,336	21,83
883,738	21,81
884,141	21,69
884,543	21,71
884,945	21,71
885,347	21,77
885,749	21,73
886,151	21,93
886,552	21,84
886,954	21,77
887,355	21,59
887,757	21,35
888,158	21,48
888,56	21,87
888,961	21,6
889,362	21,7
889,763	21,91
890,164	21,6
890,565	22,06
890,965	21,71
891,366	21,88
891,767	22,09
892,167	21,72
892,567	21,59
892,968	21,68
893,368	21,52
893,768	21,48
894,168	21,51
894,568	21,8
894,968	21,72
895,368	21,6
895,767	21,52
896,167	21,65
896,566	21,71
896,966	21,75
897,365	21,35
897,764	21,64
898,164	21,68
898,563	21,91
898,962	21,56
899,361	21,65
899,759	21,35
900,158	21,57
900,557	21,72
900,955	21,48
901,354	21,88
901,752	21,26
902,15	21,62
902,548	21,35
902,947	21,89
903,345	21,48
903,742	21,64
904,14	21,63
904,538	21,57
904,936	21,71
905,333	21,44
905,731	21,8
906,128	21,44
906,525	21,74
906,923	21,81
907,32	22,03
907,717	21,54
908,114	21,65
908,511	21,42
908,907	21,95
909,304	21,7
909,701	21,56
910,097	21,45
910,494	21,63
910,89	21,5
911,286	21,75
911,682	21,8
912,078	21,65
912,474	21,78
912,87	21,8
913,266	21,96
913,662	21,67
914,058	21,43
914,453	21,71
914,849	21,67
915,244	21,92
915,639	21,69
916,034	21,66
916,43	21,61
916,825	21,56
917,22	21,65
917,614	21,88
918,009	21,66
918,404	21,62
918,798	21,43
919,193	21,4
919,587	21,63
919,982	22,05
920,376	21,61
920,77	21,6
921,164	21,59
921,558	21,29
921,952	21,6
922,346	21,62
922,74	21,53
923,133	21,82
923,527	21,74
923,92	21,72
924,314	21,53
924,707	21,68
925,1	21,49
925,493	21,54
925,886	21,76
926,279	21,58
926,672	21,31
927,065	21,59
927,457	21,49
927,85	21,72
928,243	21,74
928,635	21,88
929,027	21,56
929,42	21,51
929,812	21,41
930,204	21,6
930,596	21,37
930,988	21,49
931,379	21,76
931,771	21,9
932,163	21,59
932,554	21,46
932,946	21,65
933,337	21,52
933,729	21,39
934,12	21,57
934,511	21,66
934,902	21,64
935,293	21,77
935,684	21,76
936,075	21,73
936,465	22,06
936,856	21,89
937,246	21,37
937,637	21,92
938,027	21,85
938,417	21,7
938,808	21,63
939,198	22,17
939,588	21,88
939,978	21,8
940,368	22,23
940,757	22,01
941,147	21,32
941,537	22
941,926	21,61
942,315	21,86
942,705	22,17
943,094	22,05
943,483	22,29
943,872	22,04
944,261	21,83
944,65	22,18
945,039	21,74
945,428	21,6
945,816	21,38
946,205	22,33
946,593	22,46
946,982	21,68
947,37	22,38
947,758	22,05
948,146	21,68
948,534	22,44
948,922	22,64
949,31	21,56
949,698	21,8
950,086	22,2
950,473	21,66
950,861	21,24
951,248	21,32
951,636	21,7
952,023	21,58
952,41	21,97
952,797	21,66
953,184	21,81
953,571	21,21
953,958	21,31
954,345	21,39
954,731	21,41
955,118	21,75
955,505	21,36
955,891	21,65
956,277	21,19
956,664	21,35
957,05	21,66
957,436	21,51
957,822	21,23
958,208	21,53
958,594	21,54
958,979	21,53
959,365	21,74
959,751	21,57
960,136	21,97
960,522	21,89
960,907	21,38
961,292	21,72
961,677	21,53
962,062	21,58
962,447	21,77
962,832	21,38
963,217	21,09
963,602	21,21
963,986	21,33
964,371	21,4
964,756	21,34
965,14	21,26
965,524	21,09
965,908	21,58
966,293	21,69
966,677	21,4
967,061	21,77
967,445	21,12
967,828	21,52
968,212	21,44
968,596	21,45
968,979	21,49
969,363	21,34
969,746	21,34
970,129	21,73
970,513	21,23
970,896	20,99
971,279	21,13
971,662	21,92
972,045	21,66
972,428	21,36
972,81	21,59
973,193	21,51
973,575	21,39
973,958	21,44
974,34	21,47
974,723	21,57
975,105	21,75
975,487	21,29
975,869	21,6
976,251	21,69
976,633	21,52
977,015	21,28
977,396	21,61
977,778	21,1
978,16	21,49
978,541	21
978,922	21,5
979,304	21,15
979,685	21,35
980,066	21,61
980,447	21,18
980,828	21,68
981,209	21,71
981,59	21,14
981,97	21,55
982,351	21,03
982,732	21,32
983,112	21,29
983,493	21,41
983,873	21,39
984,253	21,63
984,633	21,42
985,013	21,8
985,393	21,36
985,773	21,93
986,153	21,41
986,533	21,24
986,912	21,64
987,292	21,58
987,671	21,49
988,051	21,42
988,43	21,56
988,809	21,38
989,188	21,4
989,567	21,18
989,946	21,38
990,325	21,14
990,704	21,62
991,083	21,32
991,461	21,55
991,84	21,02
992,218	21,29
992,597	21,38
992,975	21,39
993,353	21,59
993,732	21,34
994,11	21,15
994,488	21,25
994,866	21,29
995,243	21,36
995,621	21,6
995,999	21,32
996,376	21,46
996,754	21,6
997,131	21,57
997,509	21,67
997,886	21,92
998,263	21,16
998,64	21,81
999,017	21,34
999,394	21,93
999,771	21,4
1000,148	21,27
1000,524	21,92
1000,901	21,76
1001,277	21,72
1001,654	21,84
1002,03	21,64
1002,406	21,55
1002,783	21,53
1003,159	22,04
1003,535	21,57
1003,911	20,94
1004,286	21,24
1004,662	21,51
1005,038	21,59
1005,414	21,65
1005,789	21,81
1006,164	21,83
1006,54	22,04
1006,915	22,27
1007,29	21,41
1007,665	22,18
1008,04	21,4
1008,415	21,57
1008,79	21,64
1009,165	21,58
1009,54	21,72
1009,914	21,46
1010,289	20,95
1010,663	21,5
1011,038	21,6
1011,412	21,54
1011,786	22,13
1012,16	22,2
1012,535	21,45
1012,909	21,46
1013,282	22,32
1013,656	21,38
1014,03	21,35
1014,404	22,02
1014,777	21,85
1015,151	21,76
1015,524	21,63
1015,897	21,58
1016,271	21,42
1016,644	21,87
1017,017	21,91
1017,39	21,58
1017,763	21,96
1018,136	21,79
1018,508	22,02
1018,881	21,79
1019,254	21,62
1019,626	22,09
1019,999	22,08
1020,371	21,78
1020,743	21,85
1021,116	21,62
1021,488	21,84
1021,86	21,77
1022,232	21,84
1022,604	21,71
1022,975	21,89
1023,347	21,83
1023,719	21,78
1024,09	21,86
1024,462	21,85
1024,833	22,89
1025,204	22,48
1025,576	22,8
1025,947	22,18
1026,318	22,28
1026,689	22,35
1027,06	22,3
1027,431	22,47
1027,801	22,36
1028,172	22,07
1028,543	22,35
1028,913	22,2
1029,284	22,15
1029,654	22,06
1030,024	21,27
1030,394	22,32
1030,764	22,33
1031,135	21,96
1031,504	22,6
1031,874	22,26
1032,244	22,57
1032,614	21,87
1032,983	22,27
1033,353	22,53
1033,722	22,23
1034,092	22,3
1034,461	21,78
1034,83	21,73
1035,2	22,61
1035,569	21,82
1035,938	22,66
1036,307	22,16
1036,675	22,05
1037,044	22,08
1037,413	22,46
1037,781	22,06
1038,15	22,38
1038,518	22,08
1038,887	22,43
1039,255	22,85
1039,623	22,37
1039,991	22,95
1040,359	21,93
1040,727	22,2
1041,095	22,03
1041,463	22,05
1041,831	22,29
1042,198	22,62
1042,566	22,6
1042,933	22,6
1043,301	22,76
1043,668	22,99
1044,035	21,85
1044,402	22,99
1044,77	22,72
1045,137	23,33
1045,503	22,33
1045,87	22,37
1046,237	22,53
1046,604	22,87
1046,97	23,18
1047,337	23,25
1047,703	23,11
1048,07	22,73
1048,436	21,74
1048,802	23,16
1049,168	23,29
1049,534	22,25
1049,9	23
1050,266	22,66
1050,632	23,34
1050,998	23,33
1051,364	22,73
1051,729	22,47
1052,095	23,24
1052,46	23,07
1052,825	23,8
1053,191	23,41
1053,556	23,59
1053,921	23,23
1054,286	23,02
1054,651	22,68
1055,016	22,72
1055,381	23,12
1055,745	23,67
1056,11	23,33
1056,475	23,23
1056,839	24,15
1057,203	23,07
1057,568	23,44
1057,932	23,72
1058,296	23,56
1058,66	23,43
1059,024	23,73
1059,388	23,93
1059,752	24,13
1060,116	23,44
1060,48	23,59
1060,843	23,29
1061,207	23,57
1061,57	23,51
1061,934	24,15
1062,297	23,75
1062,66	24,35
1063,023	24,41
1063,386	23,77
1063,749	23,96
1064,112	22,95
1064,475	23,33
1064,838	23,47
1065,201	23,46
1065,563	24,18
1065,926	24,37
1066,288	22,68
1066,651	24,48
1067,013	24,28
1067,375	22,86
1067,737	24,74
1068,099	23,45
1068,461	22,92
1068,823	24,17
1069,185	23,64
1069,547	23,85
1069,909	24,47
1070,27	24,02
1070,632	23,49
1070,993	24,61
1071,355	24,4
1071,716	23,94
1072,077	24,51
1072,438	24,44
1072,799	23,32
1073,16	23,78
1073,521	23,21
1073,882	23,59
1074,243	23,37
1074,603	23,16
1074,964	24,5
1075,325	25,12
1075,685	24,02
1076,045	23,31
1076,406	24,46
1076,766	24,52
1077,126	23,89
1077,486	24,95
1077,846	25,28
1078,206	25,58
1078,566	25,49
1078,925	24,06
1079,285	23,77
1079,645	24,69
1080,004	24,53
1080,364	25,81
1080,723	24,54
1081,082	25,14
1081,442	24,4
1081,801	24,18
1082,16	23,44
1082,519	27,78
1082,878	25,52
1083,237	24,25
1083,595	24,93
1083,954	26,14
1084,313	26,07
1084,671	23,96
1085,03	27,08
1085,388	25,11
1085,746	25,38
1086,104	25,76
1086,463	24,74
1086,821	27,08
1087,179	24,95
1087,537	25,3
1087,894	24,5
1088,252	24,78
1088,61	25,38
1088,967	25,64
1089,325	27,5
1089,682	25,39
1090,04	25,88
1090,397	25,94
1090,754	27,9
1091,111	26,07
1091,469	27,4
1091,826	24,88
1092,182	25,6
1092,539	27,11
1092,896	25,32
1093,253	25,21
1093,609	24,85
1093,966	28,45
1094,322	26,43
1094,679	26,95
1095,035	26,36
1095,391	26,84
1095,748	28,71
1096,104	27,05
1096,46	25,4
1096,816	26,17
1097,171	27,13
1097,527	26,55
1097,883	28,83
1098,239	26,67
1098,594	28,75
1098,95	26,2
1099,305	26,32
1099,66	29,2
1100,016	27,35
1100,371	28,15
1100,726	27,07
1101,081	28,54
1101,436	27,48
1101,791	27,03
1102,146	27,59
1102,5	28,33
1102,855	27,84
1103,21	29,62
1103,564	30,01
1103,918	27,7
1104,273	28,53
1104,627	28,5
1104,981	28,71
1105,335	30,27
1105,69	29,05
1106,043	30,56
1106,397	29,86
1106,751	29,45
1107,105	31,75
1107,459	29,52
1107,812	31,63
1108,166	31,51
1108,519	31,2
1108,873	30,19
1109,226	31,5
1109,579	31,47
1109,932	31,93
1110,285	31,42
1110,638	29,73
1110,991	29,82
1111,344	30,25
1111,697	27,59
1112,05	32,74
1112,402	31,28
1112,755	27,7
1113,107	29,24
1113,46	35,33
1113,812	33,79
1114,164	37,31
1114,517	36,12
1114,869	143,33
1115,221	114,75
1115,573	132,31
1115,924	125,35
