Data from A_2_Relative__3__00003.txt Node

Date: Tue Jan 30 09:45:06 CET 2024
User: diatiterra
Spectrometer: HDX00911
Trigger mode: 0
Integration Time (sec): 6,000000E-3
Scans to average: 2
Nonlinearity correction enabled: false
Boxcar width: 0
Storing dark spectrum: false
XAxis mode: Wavelengths
Number of Pixels in Spectrum: 2068
>>>>>Begin Spectral Data<<<<<
194,468	73,91
195,025	84,27
195,581	70,42
196,138	68,54
196,694	68,92
197,251	75,37
197,807	51,7
198,363	60,98
198,919	64,29
199,474	66,46
200,03	59,78
200,586	63,92
201,141	76,25
201,696	54,49
202,251	57,03
202,806	71,22
203,361	69,33
203,916	59,24
204,471	72,65
205,025	72,6
205,58	53,47
206,134	60,25
206,688	67,12
207,242	59,87
207,796	61,08
208,35	59,38
208,904	66,46
209,457	60,47
210,011	50
210,564	57,53
211,117	65,06
211,67	66,45
212,223	65,79
212,776	59,65
213,329	58,68
213,881	65,54
214,434	57,93
214,986	57,32
215,538	74,12
216,09	67,66
216,642	73,86
217,194	55,92
217,746	78,48
218,297	61,54
218,849	69,09
219,4	58,02
219,951	65,48
220,502	63,48
221,053	63,31
221,604	77,06
222,155	66,21
222,705	59,6
223,256	62,86
223,806	50,61
224,356	75,19
224,906	67,28
225,456	47,56
226,006	62,87
226,556	60,4
227,106	75
227,655	65,47
228,204	61,54
228,754	54,12
229,303	73,15
229,852	65,82
230,401	64,78
230,949	69,74
231,498	63,77
232,047	67,05
232,595	59,22
233,143	69,01
233,691	65,31
234,239	69,78
234,787	58,67
235,335	70,07
235,883	71,72
236,43	62,18
236,978	66,04
237,525	61,11
238,072	65,69
238,619	58,78
239,166	53,95
239,713	61,29
240,26	71,52
240,806	69,39
241,353	68,24
241,899	69,14
242,445	65,33
242,991	56,8
243,537	58,67
244,083	60,53
244,629	60,96
245,174	62,2
245,72	56,91
246,265	63,98
246,81	68,79
247,355	63,74
247,9	72,02
248,445	80,62
248,99	58,39
249,534	62,42
250,079	67,67
250,623	50,97
251,168	62,72
251,712	42,22
252,256	49,62
252,8	53,59
253,343	60,12
253,887	54,89
254,43	61,29
254,974	78,1
255,517	61,76
256,06	85,25
256,603	58,54
257,146	60,4
257,689	74,34
258,232	65,65
258,774	61,48
259,317	76,6
259,859	53,79
260,401	75,41
260,943	59,6
261,485	71,55
262,027	60,26
262,569	60,4
263,11	62,68
263,652	53,79
264,193	57,75
264,734	63,45
265,275	56,46
265,816	61,59
266,357	65,96
266,898	66,88
267,438	67,1
267,979	75,38
268,519	51,37
269,059	75,4
269,6	60
270,14	58,99
270,68	77,78
271,219	62,42
271,759	57,81
272,298	61,11
272,838	59,87
273,377	80,27
273,916	64,38
274,455	68,75
274,994	62,5
275,533	55,36
276,072	56,95
276,61	60,51
277,149	53,52
277,687	63,03
278,225	75,21
278,763	77,1
279,301	56,52
279,839	62,58
280,377	59,56
280,914	62,5
281,452	60,49
281,989	63,25
282,526	56,6
283,064	68,06
283,601	59,88
284,137	57,66
284,674	57,14
285,211	55,91
285,747	64,67
286,284	62,35
286,82	59,03
287,356	51,11
287,892	64,24
288,428	61,54
288,964	56,6
289,5	45,86
290,035	77,78
290,571	59,63
291,106	81,63
291,641	60
292,176	53,1
292,711	59,59
293,246	63,5
293,781	47,76
294,315	60,48
294,85	55,41
295,384	52,07
295,918	62,01
296,453	70,89
296,987	66,07
297,52	64,23
298,054	55,7
298,588	83,08
299,121	65,35
299,655	57,93
300,188	63,04
300,721	64,63
301,254	57,75
301,787	82,05
302,32	66,17
302,853	55,23
303,385	55,48
303,918	68,38
304,45	70,07
304,982	64,47
305,514	61,39
306,046	60,56
306,578	78,1
307,11	60,95
307,641	63,23
308,173	63,12
308,704	65,19
309,236	59,74
309,767	62,07
310,298	52
310,829	70,67
311,359	66,46
311,89	75
312,421	64,54
312,951	63,23
313,481	59,29
314,012	67,88
314,542	72,36
315,072	66,9
315,601	66,43
316,131	75,37
316,661	67,68
317,19	66,41
317,72	61,22
318,249	65,41
318,778	60,36
319,307	59,49
319,836	60
320,365	57,14
320,893	63,79
321,422	61,48
321,95	55,83
322,479	75,54
323,007	58,94
323,535	61,75
324,063	64,71
324,591	71,7
325,118	59,52
325,646	53,68
326,173	57,36
326,701	50,67
327,228	60,82
327,755	60
328,282	66,43
328,809	64,89
329,336	47,5
329,862	56,18
330,389	58,54
330,915	60,13
331,441	58,6
331,968	49,64
332,494	52,32
333,02	53,49
333,545	55,56
334,071	56,49
334,597	53,9
335,122	47,52
335,648	50,29
336,173	56,69
336,698	54,67
337,223	58,27
337,748	69,68
338,272	59,63
338,797	58,86
339,322	64,38
339,846	54,44
340,37	49,36
340,894	53,16
341,419	65,07
341,942	42,78
342,466	46,26
342,99	60,76
343,514	50,82
344,037	58,52
344,56	54,24
345,084	64,38
345,607	61,88
346,13	52,51
346,653	61,59
347,175	51,72
347,698	58,15
348,221	53,75
348,743	60,61
349,265	55,17
349,787	46,32
350,309	49,74
350,831	56,83
351,353	51,83
351,875	51,89
352,397	56,4
352,918	55,78
353,439	57,14
353,961	45,54
354,482	58,82
355,003	58,29
355,524	52,22
356,044	53,61
356,565	53,55
357,086	51,14
357,606	49,74
358,126	61,76
358,646	54,59
359,167	57,8
359,687	47,11
360,206	53,19
360,726	54,72
361,246	56,28
361,765	51,17
362,285	54,07
362,804	58,33
363,323	56,47
363,842	58,45
364,361	61,9
364,88	54,07
365,398	60,56
365,917	61,99
366,435	61,54
366,954	51,21
367,472	48,81
367,99	47,91
368,508	54,92
369,026	47,6
369,544	50,35
370,061	50,53
370,579	44,78
371,096	56,7
371,613	45,05
372,131	54,61
372,648	54,82
373,165	56,34
373,681	53,26
374,198	48,74
374,715	50,93
375,231	62,96
375,747	52,67
376,264	49,53
376,78	52,01
377,296	56,95
377,812	47,98
378,327	54,41
378,843	55,26
379,359	48,17
379,874	48,07
380,389	47,28
380,905	56,25
381,42	52,29
381,935	49,21
382,449	48,35
382,964	47,49
383,479	49,14
383,993	47,02
384,508	46,8
385,022	47,73
385,536	48,24
386,05	46,02
386,564	44,12
387,078	48,22
387,592	42,31
388,105	42,42
388,619	45,6
389,132	45,22
389,645	39,05
390,158	42,13
390,671	47,3
391,184	44,19
391,697	45,89
392,21	37,83
392,722	40,7
393,235	46,67
393,747	39,02
394,259	37,87
394,771	37,82
395,283	42,88
395,795	40,19
396,307	36,07
396,818	41,5
397,33	41,96
397,841	36,57
398,353	33,02
398,864	39,09
399,375	34,83
399,886	30,61
400,397	37,04
400,907	35,22
401,418	35,69
401,928	33,53
402,439	28,81
402,949	27,63
403,459	31,35
403,969	32,26
404,479	29,31
404,989	32,7
405,498	27,73
406,008	30,39
406,517	25,8
407,027	26,97
407,536	24,84
408,045	26,22
408,554	23,54
409,063	23,46
409,572	23,12
410,08	22,19
410,589	21,81
411,097	20,92
411,606	20,76
412,114	17,49
412,622	19,56
413,13	18,15
413,638	17,91
414,145	19,28
414,653	17,11
415,16	17,14
415,668	15,74
416,175	15,96
416,682	16,51
417,189	16,89
417,696	15,91
418,203	15,36
418,71	16,43
419,216	15,42
419,723	15,44
420,229	15,53
420,735	13,81
421,242	13,92
421,748	13,99
422,254	15,16
422,759	13,54
423,265	13,6
423,771	12,62
424,276	13,21
424,781	13,81
425,287	12,4
425,792	13,92
426,297	12,94
426,802	13,05
427,306	13,53
427,811	13,59
428,316	13,5
428,82	12,54
429,324	13,07
429,829	13,26
430,333	13,38
430,837	12,09
431,34	13,16
431,844	13,11
432,348	13,22
432,851	13,78
433,355	12,47
433,858	13
434,361	12,93
434,864	12,47
435,367	12,91
435,87	11,88
436,373	12,56
436,876	13,48
437,378	12,41
437,88	12,39
438,383	12,74
438,885	12,1
439,387	11,99
439,889	12,33
440,391	12,93
440,892	11,65
441,394	12,89
441,896	12,6
442,397	12,92
442,898	12,89
443,399	11,98
443,9	11,96
444,401	11,67
444,902	12,17
445,403	12,86
445,903	12,22
446,404	13,35
446,904	12,69
447,405	12,41
447,905	12,85
448,405	12,09
448,905	12,67
449,404	12,48
449,904	12,68
450,404	12,69
450,903	13,25
451,403	12,97
451,902	12,64
452,401	12,12
452,9	12,56
453,399	12,97
453,898	13,23
454,396	12,84
454,895	13,33
455,393	13,28
455,892	12,78
456,39	12,43
456,888	13,64
457,386	13,21
457,884	12,54
458,382	12,97
458,879	13,68
459,377	13,23
459,874	13,06
460,372	13,01
460,869	13,05
461,366	12,96
461,863	13,17
462,36	13,16
462,857	12,77
463,353	12,95
463,85	13,28
464,346	13,25
464,843	12,58
465,339	13,53
465,835	13,37
466,331	13,16
466,827	12,96
467,323	12,72
467,818	13,3
468,314	12,97
468,809	12,69
469,305	13,39
469,8	13,19
470,295	13,04
470,79	13,4
471,285	13,53
471,78	13,3
472,274	13,09
472,769	13,2
473,263	13,52
473,758	13,48
474,252	13,1
474,746	12,91
475,24	13,5
475,734	13,14
476,228	13,27
476,721	13,31
477,215	13,36
477,708	13,34
478,202	13,86
478,695	13,06
479,188	13,26
479,681	13,31
480,174	13,62
480,667	13,97
481,159	13,65
481,652	13,48
482,144	13,65
482,637	13,33
483,129	12,38
483,621	13,81
484,113	13,09
484,605	13,23
485,097	13,3
485,588	13,48
486,08	13,31
486,571	13,75
487,063	13,6
487,554	13,73
488,045	13,65
488,536	13,26
489,027	13,66
489,518	14,1
490,008	14,08
490,499	14,11
490,989	13,79
491,48	14,2
491,97	13,99
492,46	13,87
492,95	13,81
493,44	13,81
493,93	14,17
494,419	14,53
494,909	14,11
495,398	14,74
495,888	14,07
496,377	13,67
496,866	14,49
497,355	14,8
497,844	14,38
498,333	14,57
498,821	14,66
499,31	14,87
499,798	15,58
500,287	15,16
500,775	15,43
501,263	15,36
501,751	15,47
502,239	15,88
502,727	16,09
503,215	16,13
503,702	16,03
504,19	16,61
504,677	16,52
505,164	16,44
505,651	16,76
506,139	17,24
506,625	17,14
507,112	17,58
507,599	17,43
508,086	17,7
508,572	17,84
509,058	18,34
509,545	18,41
510,031	18,09
510,517	19,1
511,003	18,58
511,489	19,66
511,974	19,62
512,46	19,69
512,946	20,02
513,431	20,27
513,916	20,76
514,401	20,68
514,887	21,23
515,371	21,2
515,856	21,66
516,341	22,59
516,826	22,62
517,31	23,59
517,795	23,31
518,279	23,58
518,763	23,98
519,247	24,72
519,731	25,38
520,215	24,9
520,699	25,99
521,182	25,88
521,666	26,45
522,149	27,1
522,633	27,52
523,116	27,73
523,599	27,75
524,082	28,85
524,565	28,32
525,048	29,36
525,53	29,67
526,013	30,05
526,495	30,63
526,978	31,09
527,46	30,84
527,942	31,03
528,424	31,3
528,906	31,96
529,388	32,08
529,87	32,19
530,351	32,41
530,833	32,79
531,314	32,88
531,795	33,93
532,277	33,16
532,758	33,4
533,238	34,09
533,719	33,72
534,2	34,26
534,681	34,54
535,161	34,69
535,642	33,93
536,122	34,64
536,602	35,31
537,082	34,71
537,562	34,77
538,042	34,62
538,522	35,58
539,001	35,4
539,481	35,35
539,96	35,5
540,44	36,45
540,919	35,92
541,398	36,4
541,877	35,79
542,356	35,79
542,835	35,54
543,313	35,25
543,792	35,59
544,27	36,08
544,749	36,49
545,227	35,84
545,705	36,88
546,183	36,63
546,661	35,99
547,139	36,85
547,616	35,72
548,094	37,53
548,571	36,58
549,049	36,39
549,526	36,97
550,003	36,57
550,48	36,59
550,957	36,66
551,434	36,78
551,911	36,22
552,387	36,55
552,864	37,22
553,34	37,11
553,817	36,89
554,293	36,71
554,769	36,97
555,245	36,69
555,721	36,91
556,197	36,71
556,672	36,71
557,148	36,71
557,623	36,61
558,099	36,17
558,574	37,14
559,049	36,87
559,524	36,58
559,999	36,47
560,474	36,42
560,948	36,25
561,423	36,19
561,897	35,74
562,372	35,52
562,846	35,91
563,32	35,86
563,794	34,79
564,268	35,3
564,742	34,81
565,216	35,04
565,69	35,04
566,163	34,21
566,636	34,48
567,11	34,26
567,583	33,88
568,056	33,74
568,529	34,66
569,002	33,5
569,475	33,08
569,947	33,06
570,42	33,15
570,892	32,33
571,365	31,81
571,837	32,46
572,309	31,4
572,781	31,78
573,253	31,3
573,725	31,47
574,197	30,98
574,668	30,76
575,14	30,63
575,611	30,47
576,082	30,49
576,554	29,81
577,025	30,13
577,496	29,65
577,967	29,54
578,437	29,44
578,908	29,25
579,379	28,83
579,849	28,95
580,319	28,94
580,79	28,23
581,26	28,07
581,73	27,89
582,2	27,71
582,669	27,79
583,139	27,51
583,609	27,76
584,078	27,6
584,548	27,58
585,017	27,59
585,486	26,93
585,955	26,4
586,424	27,12
586,893	26,27
587,362	26,32
587,83	26,35
588,299	25,96
588,767	26,42
589,236	26,42
589,704	26,39
590,172	25,68
590,64	26,03
591,108	25,85
591,576	25,6
592,043	25,85
592,511	26,06
592,978	25,74
593,446	24,96
593,913	25,76
594,38	25,47
594,847	25,35
595,314	25,48
595,781	25,44
596,248	24,99
596,715	25,33
597,181	25,02
597,647	25,33
598,114	25,79
598,58	25,26
599,046	25,19
599,512	25,06
599,978	24,74
600,444	24,52
600,91	24,72
601,375	24,7
601,841	24,92
602,306	24,6
602,771	24,68
603,236	24,4
603,702	24,33
604,167	24,38
604,631	24,68
605,096	24,17
605,561	23,87
606,025	23,99
606,49	23,94
606,954	23,71
607,418	23,74
607,882	23,63
608,347	23,29
608,81	23,51
609,274	23,41
609,738	23,27
610,202	22,85
610,665	22,87
611,128	22,85
611,592	22,67
612,055	22,26
612,518	22,88
612,981	22,33
613,444	22,51
613,907	22,23
614,369	21,92
614,832	21,7
615,294	21,85
615,757	21,69
616,219	21,59
616,681	21,58
617,143	21,31
617,605	21,38
618,067	20,76
618,529	21,06
618,99	20,94
619,452	21
619,913	21,32
620,375	20,84
620,836	20,75
621,297	20,46
621,758	20,42
622,219	20,39
622,68	20,78
623,14	20,5
623,601	20,72
624,061	20,47
624,522	20,39
624,982	20,2
625,442	20,26
625,902	20,18
626,362	20,05
626,822	20,21
627,282	20,28
627,742	19,7
628,201	20,15
628,661	20,19
629,12	20,2
629,579	20,16
630,038	19,99
630,497	19,72
630,956	20
631,415	19,92
631,874	19,74
632,332	19,64
632,791	19,65
633,249	19,53
633,708	19,85
634,166	19,55
634,624	19,65
635,082	19,23
635,54	19,31
635,998	19,05
636,455	19
636,913	19,46
637,37	18,93
637,828	18,95
638,285	18,82
638,742	18,6
639,199	18,56
639,656	18,57
640,113	18,32
640,57	18,1
641,027	17,68
641,483	17,96
641,94	17,95
642,396	17,78
642,852	17,95
643,309	17,4
643,765	17,43
644,221	17,2
644,676	16,93
645,132	16,75
645,588	16,77
646,043	16,55
646,499	16,55
646,954	16,55
647,409	16,53
647,864	16,05
648,319	16,01
648,774	15,86
649,229	15,92
649,684	16,2
650,139	15,99
650,593	15,68
651,047	15,68
651,502	15,24
651,956	15,16
652,41	15,55
652,864	15,47
653,318	15,33
653,772	15,25
654,225	15,06
654,679	15,16
655,133	15,11
655,586	14,78
656,039	14,8
656,492	14,78
656,946	14,63
657,399	14,74
657,851	14,36
658,304	14,45
658,757	14,34
659,209	14,33
659,662	14,22
660,114	13,96
660,567	13,77
661,019	13,77
661,471	13,85
661,923	13,8
662,375	13,5
662,826	13,53
663,278	13,61
663,73	13,46
664,181	13,52
664,632	13,44
665,084	13,16
665,535	13,09
665,986	13,26
666,437	13,25
666,888	13,01
667,338	13,17
667,789	12,88
668,24	12,98
668,69	12,96
669,14	13,08
669,591	13,14
670,041	13,02
670,491	13,03
670,941	12,99
671,391	13,03
671,84	13,1
672,29	13,04
672,74	12,87
673,189	13,08
673,638	12,91
674,088	13,17
674,537	13,36
674,986	13,08
675,435	13,24
675,883	13,54
676,332	13,49
676,781	13,55
677,229	13,7
677,678	13,76
678,126	13,76
678,574	13,62
679,022	14,15
679,47	14,06
679,918	13,88
680,366	14,01
680,814	14,39
681,261	14,4
681,709	14,55
682,156	14,69
682,604	14,35
683,051	14,83
683,498	15,03
683,945	15,2
684,392	15,16
684,839	15,19
685,286	15,29
685,732	15,6
686,179	15,66
686,625	16,04
687,071	16,21
687,518	16,28
687,964	16,39
688,41	16,5
688,856	16,93
689,301	17,41
689,747	17,54
690,193	17,78
690,638	18,31
691,084	18,88
691,529	19,1
691,974	19,56
692,419	19,96
692,864	20,56
693,309	20,99
693,754	21,53
694,199	22,1
694,643	22,89
695,088	23,61
695,532	24,32
695,977	24,72
696,421	25,41
696,865	26,07
697,309	26,82
697,753	27,64
698,197	28,34
698,64	28,82
699,084	29,67
699,527	30,37
699,971	30,91
700,414	31,81
700,857	32,37
701,3	33,16
701,743	33,7
702,186	34,3
702,629	35,07
703,072	35,79
703,515	36,1
703,957	37,01
704,399	38,07
704,842	38,44
705,284	39,31
705,726	39,52
706,168	39,99
706,61	40,68
707,052	41,45
707,494	42,4
707,935	42,64
708,377	43,24
708,818	43,74
709,26	44,41
709,701	45,12
710,142	45,6
710,583	46,1
711,024	46,46
711,465	47,02
711,905	47,94
712,346	47,97
712,787	48,72
713,227	49,14
713,667	49,81
714,108	50,39
714,548	50,44
714,988	51,57
715,428	51,41
715,868	52,58
716,307	52,68
716,747	53,01
717,186	53,69
717,626	54,24
718,065	53,98
718,504	54,65
718,944	55,81
719,383	55,51
719,822	56,2
720,261	57,09
720,699	56,89
721,138	57,77
721,576	57,07
722,015	58,89
722,453	58,55
722,892	59,11
723,33	59,46
723,768	60,21
724,206	60,08
724,644	60,22
725,081	60,72
725,519	61,22
725,957	61,19
726,394	61,53
726,832	61,41
727,269	61,87
727,706	62,25
728,143	61,91
728,58	62,93
729,017	62,9
729,454	63,13
729,89	62,74
730,327	63,34
730,764	63,63
731,2	63,95
731,636	64,28
732,072	63,99
732,509	64,55
732,945	64,85
733,38	64,41
733,816	64,82
734,252	65,12
734,688	65,37
735,123	65,29
735,559	64,96
735,994	65,53
736,429	65,56
736,864	65,57
737,299	65,46
737,734	66,01
738,169	65,83
738,604	66,12
739,038	66,31
739,473	66,78
739,907	66,93
740,342	66,36
740,776	66,57
741,21	65,98
741,644	65,77
742,078	66,6
742,512	66,53
742,946	66,76
743,379	66,69
743,813	66,61
744,246	66,45
744,68	66,4
745,113	66,58
745,546	67,04
745,979	66,81
746,412	66,86
746,845	66,61
747,278	66,41
747,711	66,99
748,143	65,92
748,576	66,83
749,008	67,3
749,441	66,72
749,873	66,54
750,305	66,26
750,737	66,22
751,169	66,77
751,601	66,53
752,032	66,25
752,464	66,43
752,896	66,75
753,327	65,95
753,758	66,23
754,19	66,21
754,621	66,32
755,052	65,85
755,483	66,2
755,914	65,93
756,344	65,95
756,775	66,04
757,206	65,81
757,636	65,76
758,066	65,76
758,497	65,94
758,927	66,06
759,357	66,32
759,787	65,58
760,217	65,86
760,647	66,17
761,076	66,09
761,506	65,52
761,935	64,92
762,365	65,52
762,794	66,07
763,223	65,72
763,653	65,21
764,082	65,69
764,51	65,36
764,939	65,71
765,368	65,26
765,797	64,99
766,225	65,12
766,654	65,31
767,082	65,28
767,51	64,9
767,938	64,76
768,367	64,89
768,795	64,77
769,222	65,15
769,65	64,31
770,078	64,53
770,505	65,12
770,933	64,38
771,36	64,96
771,788	64,72
772,215	64,8
772,642	64,56
773,069	64,6
773,496	64,29
773,923	64,48
774,349	64,24
774,776	65,19
775,203	64,31
775,629	64,6
776,055	64,35
776,482	64,47
776,908	64,62
777,334	64,52
777,76	64,19
778,186	64,52
778,611	64,05
779,037	64,16
779,463	64,11
779,888	63,81
780,314	64,46
780,739	64,54
781,164	64,5
781,589	64,17
782,014	64,23
782,439	64,72
782,864	64,07
783,289	63,78
783,713	63,51
784,138	64,34
784,562	63,8
784,987	63,77
785,411	64,08
785,835	64,29
786,259	64,41
786,683	64,25
787,107	63,72
787,531	63,78
787,954	63,54
788,378	63,81
788,802	64,41
789,225	63,94
789,648	63,73
790,071	63,84
790,495	63,5
790,918	63,95
791,34	63,73
791,763	63,94
792,186	63,68
792,609	63,5
793,031	63,76
793,454	63,59
793,876	63,87
794,298	63,86
794,721	63,06
795,143	63,81
795,565	63,57
795,986	63,94
796,408	63,95
796,83	64,01
797,252	64,22
797,673	63,64
798,094	63,89
798,516	63,2
798,937	63,58
799,358	64
799,779	63,52
800,2	63,98
800,621	62,95
801,042	63,65
801,462	63,24
801,883	64,33
802,303	63,58
802,724	63,23
803,144	63,86
803,564	62,85
803,984	63,52
804,404	63,67
804,824	63,83
805,244	63,63
805,664	63,37
806,084	63,29
806,503	63,51
806,923	63,24
807,342	62,98
807,761	63,56
808,18	63,35
808,599	63,63
809,018	63,75
809,437	63,21
809,856	63,48
810,275	63,3
810,693	63,4
811,112	63,51
811,53	62,78
811,949	63,43
812,367	63,22
812,785	63,48
813,203	63,7
813,621	63,06
814,039	63,17
814,457	63,26
814,874	63,41
815,292	63,33
815,709	63,11
816,127	63
816,544	63,28
816,961	63,16
817,378	62,58
817,795	63,68
818,212	62,95
818,629	63,17
819,046	63,18
819,462	63,15
819,879	63,5
820,295	63,51
820,712	63,27
821,128	63,09
821,544	63,39
821,96	63,15
822,376	62,96
822,792	63,28
823,208	63,02
823,624	63,09
824,039	62,99
824,455	63,05
824,87	63,53
825,286	62,42
825,701	63,62
826,116	63,59
826,531	63,35
826,946	62,72
827,361	63,36
827,776	62,94
828,19	63,05
828,605	63,03
829,02	63,43
829,434	62,66
829,848	63
830,263	63,41
830,677	62,66
831,091	62,84
831,505	63,15
831,919	62,91
832,332	62,63
832,746	62,9
833,16	62,63
833,573	63,24
833,987	63,14
834,4	63,12
834,813	62,83
835,226	62,66
835,639	62,69
836,052	62,76
836,465	63,05
836,878	62,75
837,29	62,93
837,703	63,13
838,116	63,22
838,528	62,67
838,94	62,92
839,352	62,62
839,765	63,57
840,177	63,26
840,589	62,77
841	62,92
841,412	62,77
841,824	62,66
842,235	62,58
842,647	62,87
843,058	62,08
843,47	62,74
843,881	62,74
844,292	62,58
844,703	62,4
845,114	63,19
845,525	62,58
845,935	62,43
846,346	63,29
846,757	63,07
847,167	62,69
847,577	63,05
847,988	62,93
848,398	62,92
848,808	62,82
849,218	62,12
849,628	62,89
850,038	63,15
850,448	62,51
850,857	62,7
851,267	61,89
851,676	62,85
852,086	62,89
852,495	62,97
852,904	62,94
853,313	62,44
853,722	62,83
854,131	62,78
854,54	62,93
854,949	62,58
855,357	62,81
855,766	62,82
856,174	62,89
856,583	62,86
856,991	63,08
857,399	62,2
857,807	62,61
858,215	63,06
858,623	62,4
859,031	62,45
859,439	62,65
859,846	62,38
860,254	62,59
860,661	62,6
861,069	63,07
861,476	61,98
861,883	62,89
862,29	62,26
862,697	62,46
863,104	62,61
863,511	62,79
863,918	62,49
864,325	63,16
864,731	62,77
865,138	62,88
865,544	63,15
865,95	62,48
866,357	62,6
866,763	62,45
867,169	62,87
867,575	62,88
867,98	62,66
868,386	62,59
868,792	63,22
869,197	62,7
869,603	62,62
870,008	62,95
870,414	62,51
870,819	63,09
871,224	63,19
871,629	62,56
872,034	62,68
872,439	62,36
872,844	63,29
873,248	63,09
873,653	62,78
874,057	62,28
874,462	62,26
874,866	62,85
875,27	62,86
875,674	62,92
876,078	61,82
876,482	62,79
876,886	62,54
877,29	62,76
877,694	63,23
878,097	62,24
878,501	62,13
878,904	62,75
879,308	62,14
879,711	62,72
880,114	62,43
880,517	62,48
880,92	62,83
881,323	62,48
881,726	62,01
882,128	62,3
882,531	62,9
882,934	62
883,336	62,74
883,738	62,86
884,141	62,5
884,543	61,84
884,945	62,86
885,347	62,48
885,749	62,12
886,151	62,74
886,552	62,4
886,954	62,3
887,355	61,95
887,757	62,38
888,158	62,12
888,56	62,18
888,961	62,51
889,362	62,22
889,763	62,28
890,164	62,62
890,565	62,67
890,965	62,66
891,366	62,14
891,767	62,32
892,167	62,54
892,567	62,44
892,968	62,44
893,368	62,54
893,768	62,01
894,168	62,3
894,568	62,63
894,968	62,5
895,368	62,79
895,767	62,71
896,167	62,91
896,566	62,85
896,966	62,53
897,365	62,53
897,764	62,24
898,164	62,43
898,563	63,07
898,962	62,44
899,361	62,66
899,759	61,99
900,158	62,39
900,557	62,79
900,955	62,63
901,354	62,99
901,752	62,68
902,15	62,2
902,548	62,38
902,947	62,59
903,345	62,51
903,742	62,97
904,14	62,82
904,538	62,59
904,936	61,74
905,333	62,96
905,731	62,1
906,128	62,08
906,525	62,25
906,923	62,44
907,32	62,81
907,717	62,5
908,114	62,25
908,511	62,55
908,907	63,19
909,304	62,58
909,701	62,25
910,097	61,99
910,494	61,91
910,89	62,72
911,286	62,43
911,682	62,06
912,078	61,86
912,474	61,6
912,87	62,6
913,266	62,95
913,662	62,78
914,058	62,23
914,453	62,41
914,849	62,03
915,244	62,42
915,639	62,37
916,034	62,45
916,43	63,1
916,825	62,21
917,22	62,22
917,614	62,1
918,009	61,93
918,404	62,22
918,798	62,56
919,193	62,56
919,587	62,48
919,982	62,52
920,376	63,12
920,77	62,37
921,164	62,76
921,558	62,17
921,952	62,86
922,346	62,38
922,74	61,74
923,133	62,06
923,527	61,68
923,92	62,28
924,314	61,74
924,707	62,35
925,1	62,17
925,493	61,78
925,886	62,29
926,279	62,09
926,672	61,78
927,065	61,9
927,457	62,68
927,85	62,64
928,243	61,72
928,635	62,21
929,027	61,61
929,42	62,51
929,812	61,67
930,204	62,4
930,596	62,44
930,988	61,55
931,379	61,72
931,771	61,98
932,163	61,88
932,554	61,28
932,946	61,1
933,337	62,65
933,729	61,49
934,12	61,8
934,511	62,64
934,902	61,54
935,293	61,34
935,684	62,06
936,075	60,85
936,465	61,71
936,856	61,56
937,246	62,4
937,637	60,96
938,027	61,5
938,417	61,63
938,808	62,08
939,198	61,55
939,588	60,7
939,978	60,84
940,368	61,1
940,757	61,58
941,147	62,21
941,537	60,43
941,926	60,63
942,315	62,47
942,705	61,79
943,094	61,07
943,483	60,65
943,872	61,74
944,261	60,96
944,65	60,73
945,039	61,49
945,428	61,05
945,816	62,41
946,205	60,55
946,593	60,41
946,982	60,61
947,37	60,04
947,758	61,36
948,146	60,39
948,534	59,67
948,922	61,53
949,31	60,18
949,698	60,35
950,086	61,75
950,473	60,35
950,861	60,01
951,248	59,79
951,636	59,49
952,023	59,24
952,41	60,28
952,797	60,57
953,184	61,12
953,571	60,99
953,958	59,98
954,345	59,64
954,731	58,72
955,118	60,09
955,505	60,09
955,891	60,41
956,277	58,5
956,664	59,88
957,05	59,95
957,436	59,1
957,822	58,64
958,208	59
958,594	59,49
958,979	58,38
959,365	59,79
959,751	58,54
960,136	59,38
960,522	60,01
960,907	59,74
961,292	59,54
961,677	59,05
962,062	59,28
962,447	60,67
962,832	58,94
963,217	60,19
963,602	59,19
963,986	58,81
964,371	58,63
964,756	59,97
965,14	59,58
965,524	59,03
965,908	59,98
966,293	59,42
966,677	59,03
967,061	59,25
967,445	59,88
967,828	58,87
968,212	58,63
968,596	59,46
968,979	59,39
969,363	58,84
969,746	58,37
970,129	59,82
970,513	58,33
970,896	59,36
971,279	59,2
971,662	58,87
972,045	59,54
972,428	58,87
972,81	58,37
973,193	58,77
973,575	59,16
973,958	58,66
974,34	59,04
974,723	59,22
975,105	60,25
975,487	59,6
975,869	59,81
976,251	59,46
976,633	59,89
977,015	59,21
977,396	59,13
977,778	59,24
978,16	59,3
978,541	59,14
978,922	58,98
979,304	59,15
979,685	59,36
980,066	58,48
980,447	59,57
980,828	59,27
981,209	59,57
981,59	58,57
981,97	58,79
982,351	59,55
982,732	58,88
983,112	59,41
983,493	59,6
983,873	58,86
984,253	58,91
984,633	59,03
985,013	58,67
985,393	58,91
985,773	60,16
986,153	59,83
986,533	58,9
986,912	59,61
987,292	58,84
987,671	58,82
988,051	59,56
988,43	60,2
988,809	59,39
989,188	59,55
989,567	59,22
989,946	59,18
990,325	59,88
990,704	59,7
991,083	59,14
991,461	59,5
991,84	59,02
992,218	60,85
992,597	60,4
992,975	59,52
993,353	59,61
993,732	59,5
994,11	59,57
994,488	58,97
994,866	59,73
995,243	59,39
995,621	59,74
995,999	59,73
996,376	59,41
996,754	59,52
997,131	60,74
997,509	60,11
997,886	59,74
998,263	59,93
998,64	60,28
999,017	59,62
999,394	59,99
999,771	60,56
1000,148	60,41
1000,524	59,87
1000,901	59,65
1001,277	59,62
1001,654	60,14
1002,03	60,68
1002,406	60,26
1002,783	60,14
1003,159	60,81
1003,535	59,63
1003,911	60,38
1004,286	59,53
1004,662	60,29
1005,038	59,93
1005,414	59,37
1005,789	60,09
1006,164	59,28
1006,54	59,5
1006,915	59,99
1007,29	60,06
1007,665	59,9
1008,04	60,19
1008,415	60,08
1008,79	60,23
1009,165	59,99
1009,54	60,65
1009,914	59,75
1010,289	59,96
1010,663	60
1011,038	60,06
1011,412	60,26
1011,786	60,11
1012,16	60,49
1012,535	60,46
1012,909	60,79
1013,282	60,38
1013,656	60,66
1014,03	59,96
1014,404	60,72
1014,777	60,69
1015,151	60,06
1015,524	59,88
1015,897	60,69
1016,271	59,92
1016,644	60,12
1017,017	61,52
1017,39	61,41
1017,763	60,08
1018,136	61
1018,508	59,78
1018,881	61,41
1019,254	60,37
1019,626	61,9
1019,999	59,82
1020,371	61,47
1020,743	61,77
1021,116	59,95
1021,488	59,72
1021,86	60,87
1022,232	59,99
1022,604	60,55
1022,975	60,27
1023,347	59,99
1023,719	59,96
1024,09	60,13
1024,462	60,33
1024,833	60,41
1025,204	61,83
1025,576	60,54
1025,947	60,36
1026,318	59,25
1026,689	61,79
1027,06	61,68
1027,431	60,91
1027,801	59,98
1028,172	60,73
1028,543	60,96
1028,913	61,89
1029,284	60,79
1029,654	60,38
1030,024	60,17
1030,394	61,82
1030,764	61,63
1031,135	59,62
1031,504	61,15
1031,874	61,2
1032,244	60,09
1032,614	60,11
1032,983	61,95
1033,353	61,6
1033,722	60,04
1034,092	61,3
1034,461	60,87
1034,83	61,99
1035,2	60,59
1035,569	59,65
1035,938	62,07
1036,307	60,37
1036,675	60,7
1037,044	63,04
1037,413	61,39
1037,781	60,96
1038,15	61,82
1038,518	61,21
1038,887	62,84
1039,255	60,99
1039,623	61,53
1039,991	60,3
1040,359	62,07
1040,727	61,56
1041,095	59,74
1041,463	62,94
1041,831	62,18
1042,198	62,42
1042,566	61,63
1042,933	61,98
1043,301	62,39
1043,668	62,56
1044,035	61,31
1044,402	62,63
1044,77	60,58
1045,137	60,64
1045,503	62,66
1045,87	59,81
1046,237	62,07
1046,604	61,36
1046,97	60,98
1047,337	61,12
1047,703	62,07
1048,07	60,17
1048,436	61,59
1048,802	61,17
1049,168	60,81
1049,534	64,09
1049,9	60,74
1050,266	62,26
1050,632	61,5
1050,998	63,04
1051,364	62,9
1051,729	62,53
1052,095	62,64
1052,46	62,46
1052,825	61,61
1053,191	60,24
1053,556	60,78
1053,921	61,68
1054,286	62,28
1054,651	62,65
1055,016	62,9
1055,381	60,94
1055,745	60,77
1056,11	59,33
1056,475	64,11
1056,839	63,26
1057,203	59,83
1057,568	60,15
1057,932	61,76
1058,296	60,8
1058,66	60,93
1059,024	62,17
1059,388	63,41
1059,752	59,97
1060,116	61,06
1060,48	61,62
1060,843	60,87
1061,207	62,08
1061,57	62,14
1061,934	61,56
1062,297	60,15
1062,66	61,57
1063,023	63,18
1063,386	62,28
1063,749	61,41
1064,112	62,05
1064,475	62,1
1064,838	63,39
1065,201	62,78
1065,563	63,89
1065,926	63,26
1066,288	59,72
1066,651	61,27
1067,013	60,91
1067,375	60,97
1067,737	63,27
1068,099	62,25
1068,461	61,88
1068,823	61,65
1069,185	61,14
1069,547	63,32
1069,909	62,81
1070,27	61,82
1070,632	60,81
1070,993	61,9
1071,355	60,14
1071,716	62,33
1072,077	60,25
1072,438	63,71
1072,799	59,66
1073,16	58,07
1073,521	59,01
1073,882	60,21
1074,243	60,16
1074,603	64,71
1074,964	63,44
1075,325	61,88
1075,685	61,47
1076,045	62,49
1076,406	61,52
1076,766	59,96
1077,126	63,35
1077,486	62,64
1077,846	62,09
1078,206	60,49
1078,566	62,96
1078,925	61,25
1079,285	61,08
1079,645	61,12
1080,004	62,58
1080,364	62,11
1080,723	60,82
1081,082	60,64
1081,442	60,4
1081,801	62,17
1082,16	62,71
1082,519	61,89
1082,878	59,48
1083,237	60,57
1083,595	59,03
1083,954	63,65
1084,313	62,1
1084,671	63,49
1085,03	59,67
1085,388	62,96
1085,746	58,57
1086,104	60,95
1086,463	61,26
1086,821	60,22
1087,179	60,74
1087,537	64,41
1087,894	60,13
1088,252	62,51
1088,61	61,19
1088,967	64,48
1089,325	60,63
1089,682	65,46
1090,04	62,1
1090,397	59,94
1090,754	59,38
1091,111	61,74
1091,469	61,41
1091,826	62,21
1092,182	60,53
1092,539	62,86
1092,896	61,34
1093,253	61,01
1093,609	58,83
1093,966	57,82
1094,322	61,9
1094,679	63,06
1095,035	60,2
1095,391	59,12
1095,748	61,78
1096,104	61,54
1096,46	60,23
1096,816	62,53
1097,171	64,52
1097,527	59,54
1097,883	58,57
1098,239	61,19
1098,594	63,31
1098,95	57,99
1099,305	65,83
1099,66	58,92
1100,016	58,81
1100,371	62,15
1100,726	58,08
1101,081	56,3
1101,436	64,05
1101,791	61,22
1102,146	59,86
1102,5	61,03
1102,855	65,99
1103,21	61,42
1103,564	62,29
1103,918	64,61
1104,273	62,1
1104,627	62,19
1104,981	63,43
1105,335	59,4
1105,69	63
1106,043	60,58
1106,397	62,34
1106,751	62,31
1107,105	61,95
1107,459	59,51
1107,812	55,75
1108,166	62,23
1108,519	59,78
1108,873	63,11
1109,226	61,65
1109,579	62,27
1109,932	62,02
1110,285	63,4
1110,638	62,33
1110,991	59,47
1111,344	59,47
1111,697	59,39
1112,05	66,93
1112,402	61,83
1112,755	55,84
1113,107	61,76
1113,46	63,95
1113,812	62,04
1114,164	63,46
1114,517	60,38
1114,869	102,82
1115,221	92
1115,573	75
1115,924	78,31
