Data from C_2_Relative__1__00033.txt Node

Date: Tue Jan 30 09:51:51 CET 2024
User: diatiterra
Spectrometer: HDX00911
Trigger mode: 0
Integration Time (sec): 6,000000E-3
Scans to average: 2
Nonlinearity correction enabled: false
Boxcar width: 0
Storing dark spectrum: false
XAxis mode: Wavelengths
Number of Pixels in Spectrum: 2068
>>>>>Begin Spectral Data<<<<<
194,468	114,13
195,025	83,15
195,581	116,9
196,138	107,87
196,694	79,73
197,251	92,54
197,807	80,68
198,363	85,37
198,919	84,52
199,474	99,37
200,03	73,74
200,586	89,24
201,141	87,5
201,696	89,1
202,251	88,28
202,806	93,53
203,361	87,73
203,916	91,72
204,471	94,02
205,025	85,62
205,58	82,64
206,134	80,75
206,688	86,3
207,242	88,54
207,796	83,83
208,35	86,25
208,904	74,39
209,457	83,72
210,011	83,54
210,564	90,41
211,117	90,36
211,67	84,21
212,223	89,47
212,776	88,89
213,329	76,05
213,881	87,84
214,434	74,39
214,986	76,43
215,538	83,53
216,09	88,02
216,642	87,58
217,194	91,45
217,746	90,51
218,297	86,54
218,849	89,09
219,4	80,25
219,951	82,74
220,502	90,45
221,053	83,43
221,604	89,41
222,155	88,97
222,705	95,36
223,256	80,57
223,806	79,27
224,356	95,35
224,906	83,33
225,456	77,44
226,006	83,83
226,556	87,92
227,106	106,62
227,655	79,86
228,204	91,67
228,754	77,06
229,303	86,58
229,852	89,87
230,401	83,02
230,949	104,61
231,498	97,83
232,047	73,41
232,595	77,09
233,143	79,53
233,691	81,63
234,239	80,77
234,787	74,67
235,335	92,7
235,883	92,41
236,43	86,54
236,978	92,45
237,525	83,33
238,072	93,43
238,619	89,31
239,166	72,37
239,713	97,42
240,26	82,42
240,806	91,16
241,353	76,47
241,899	88,89
242,445	84,67
242,991	82,25
243,537	83,33
244,083	77,63
244,629	64,38
245,174	74,39
245,72	71,28
246,265	75,16
246,81	88,54
247,355	83,04
247,9	89,88
248,445	97,67
248,99	94,16
249,534	75,15
250,079	98,5
250,623	76,13
251,168	97,63
251,712	77,04
252,256	76,34
252,8	82,35
253,343	77,46
253,887	72,28
254,43	84,95
254,974	110,22
255,517	79,41
256,06	95,9
256,603	87,8
257,146	95,97
257,689	84,87
258,232	94,66
258,774	107,38
259,317	94,33
259,859	80
260,401	103,28
260,943	90,73
261,485	107,76
262,027	80,79
262,569	77,85
263,11	79,58
263,652	76,55
264,193	90,14
264,734	82,07
265,275	91,16
265,816	79,71
266,357	86,52
266,898	86,62
267,438	93,55
267,979	92,31
268,519	71,23
269,059	82,54
269,6	74,19
270,14	95,68
270,68	86,81
271,219	79,87
271,759	81,25
272,298	76,54
272,838	84,71
273,377	101,36
273,916	85
274,455	97,92
274,994	71,32
275,533	80,95
276,072	84,11
276,61	88,54
277,149	104,93
277,687	85,45
278,225	100
278,763	101,53
279,301	83,23
279,839	96,77
280,377	94,12
280,914	88,28
281,452	83,33
281,989	77,11
282,526	68,55
283,064	95,83
283,601	73,84
284,137	94,16
284,674	87,01
285,211	111,81
285,747	97,6
286,284	77,16
286,82	94,44
287,356	85,19
287,892	72,19
288,428	76,22
288,964	90,57
289,5	77,44
290,035	103,17
290,571	82,61
291,106	116,33
291,641	102,5
292,176	80
292,711	79,45
293,246	109,49
293,781	79,85
294,315	84,68
294,85	81,08
295,384	91,74
295,918	72,63
296,453	86,71
296,987	103,57
297,52	74,45
298,054	66,44
298,588	87,69
299,121	88,19
299,655	68,28
300,188	89,86
300,721	92,52
301,254	74,65
301,787	100
302,32	96,24
302,853	79,07
303,385	90,32
303,918	94,87
304,45	74,15
304,982	68,42
305,514	82,28
306,046	88,03
306,578	89,05
307,11	86,39
307,641	70,97
308,173	72,5
308,704	74,03
309,236	88,31
309,767	82,07
310,298	81,71
310,829	83,33
311,359	71,43
311,89	84,46
312,421	67,38
312,951	78,06
313,481	79,29
314,012	81,21
314,542	73,98
315,072	71,13
315,601	80
316,131	89,55
316,661	75
317,19	86,72
317,72	75,51
318,249	79,7
318,778	82,25
319,307	77,22
319,836	75,48
320,365	91,16
320,893	79,89
321,422	74,07
321,95	81,6
322,479	91,37
323,007	85,43
323,535	85,25
324,063	86,27
324,591	78,62
325,118	80,16
325,646	95,59
326,173	93,02
326,701	76,67
327,228	77,78
327,755	74,07
328,282	95,8
328,809	92,37
329,336	92,5
329,862	78,65
330,389	70,12
330,915	83,66
331,441	70,43
331,968	76,64
332,494	80,79
333,02	69,77
333,545	80,86
334,071	90,91
334,597	74,68
335,122	80,14
335,648	80,35
336,173	82,8
336,698	82
337,223	84,17
337,748	83,23
338,272	81,99
338,797	80
339,322	90,62
339,846	75,15
340,37	80,13
340,894	84,18
341,419	93,84
341,942	71,12
342,466	65,99
342,99	90,51
343,514	80,33
344,037	91,48
344,56	79,66
345,084	78,12
345,607	75,69
346,13	77,09
346,653	74,17
347,175	59,77
347,698	73,91
348,221	95
348,743	78,28
349,265	77,59
349,787	65,37
350,309	64,1
350,831	70,49
351,353	77,44
351,875	74,59
352,397	69,19
352,918	72,86
353,439	81,99
353,961	71,29
354,482	69,12
355,003	71,56
355,524	76,85
356,044	70,1
356,565	67,77
357,086	70,32
357,606	70,68
358,126	70,1
358,646	53,14
359,167	71,1
359,687	61,78
360,206	74,89
360,726	77,83
361,246	70,45
361,765	67,61
362,285	68,9
362,804	65,69
363,323	70,69
363,842	72,15
364,361	64,5
364,88	73,98
365,398	71,83
365,917	68,33
366,435	66,4
366,954	59,27
367,472	61,11
367,99	56,27
368,508	63,64
369,026	57,88
369,544	66,43
370,061	60,35
370,579	70,9
371,096	56,7
371,613	62,64
372,131	58,36
372,648	64,45
373,165	70,42
373,681	66,67
374,198	57,23
374,715	64,68
375,231	63,64
375,747	64
376,264	53,63
376,78	61,61
377,296	59,93
377,812	50,29
378,327	60,59
378,843	55,26
379,359	55,21
379,874	50,39
380,389	53,01
380,905	53,12
381,42	60
381,935	53,16
382,449	51,65
382,964	55,53
383,479	43,49
383,993	53,22
384,508	50
385,022	47,5
385,536	54,35
386,05	44,47
386,564	52,26
387,078	54,09
387,592	48,38
388,105	47,16
388,619	48,26
389,132	48,8
389,645	43,43
390,158	43,83
390,671	44,13
391,184	45,62
391,697	44,52
392,21	41,65
392,722	43,89
393,235	43,33
393,747	40,49
394,259	38,9
394,771	38,96
395,283	44,1
395,795	41,76
396,307	41,8
396,818	40,33
397,33	39,55
397,841	42,72
398,353	40,31
398,864	40,03
399,375	36,94
399,886	36,01
400,397	36,16
400,907	34,38
401,418	39,03
401,928	34,86
402,439	31,93
402,949	30,86
403,459	31,47
403,969	30,65
404,479	32,38
404,989	29,8
405,498	28,34
406,008	28,73
406,517	28,61
407,027	26,39
407,536	26,38
408,045	28,29
408,554	24,85
409,063	23,79
409,572	21,36
410,08	22,86
410,589	20,88
411,097	21,41
411,606	22,28
412,114	18,15
412,622	19,31
413,13	19,71
413,638	17,97
414,145	18,93
414,653	16,11
415,16	16,65
415,668	17,9
416,175	15,4
416,682	14,12
417,189	15,51
417,696	15,07
418,203	14,19
418,71	14,74
419,216	14,67
419,723	14,62
420,229	13,85
420,735	13,05
421,242	13,8
421,748	13,24
422,254	14,15
422,759	13,96
423,265	12,55
423,771	12,13
424,276	12,01
424,781	12,11
425,287	11,53
425,792	12,86
426,297	11,5
426,802	12,34
427,306	11,51
427,811	13,19
428,316	13,07
428,82	11,39
429,324	11,05
429,829	11,97
430,333	11,83
430,837	11,94
431,34	12,41
431,844	11
432,348	12,14
432,851	12,42
433,355	11,02
433,858	11,76
434,361	10,6
434,864	11,36
435,367	11,73
435,87	11,37
436,373	10,88
436,876	11,42
437,378	11,15
437,88	11,02
438,383	11,12
438,885	11,3
439,387	10,75
439,889	11,1
440,391	11,08
440,892	10,8
441,394	11,26
441,896	11,59
442,397	11,41
442,898	11,1
443,399	11,2
443,9	10,57
444,401	10,8
444,902	11,21
445,403	10,46
445,903	11,29
446,404	12
446,904	10,91
447,405	11,69
447,905	10,33
448,405	10,52
448,905	11
449,404	11,52
449,904	10,74
450,404	11,21
450,903	11,3
451,403	10,72
451,902	10,71
452,401	11,44
452,9	11,14
453,399	11,36
453,898	10,98
454,396	12,55
454,895	11,7
455,393	12,06
455,892	11,33
456,39	11,77
456,888	11,63
457,386	11,45
457,884	11,68
458,382	11,55
458,879	11,45
459,377	11,6
459,874	12,3
460,372	12,22
460,869	11,38
461,366	11,4
461,863	11,72
462,36	11,95
462,857	11,3
463,353	11,3
463,85	11,66
464,346	11,67
464,843	11,53
465,339	11,55
465,835	11,45
466,331	10,94
466,827	11,5
467,323	11,58
467,818	11,98
468,314	12,15
468,809	11,29
469,305	11,7
469,8	11,93
470,295	11,54
470,79	11,65
471,285	11,96
471,78	11,94
472,274	11,51
472,769	11,81
473,263	11,25
473,758	12,04
474,252	11,31
474,746	11,57
475,24	11,45
475,734	11,53
476,228	11,55
476,721	12,57
477,215	11,78
477,708	11,63
478,202	11,91
478,695	12,11
479,188	11,73
479,681	11,37
480,174	11,49
480,667	11,55
481,159	11,38
481,652	11,51
482,144	11,68
482,637	11,65
483,129	11,55
483,621	11,74
484,113	11,71
484,605	11,66
485,097	11,62
485,588	12,12
486,08	11,85
486,571	12,17
487,063	11,73
487,554	11,51
488,045	11,78
488,536	11,78
489,027	11,98
489,518	12,06
490,008	12,35
490,499	12,45
490,989	12,69
491,48	12,15
491,97	12,34
492,46	11,68
492,95	12,64
493,44	12,79
493,93	12,18
494,419	12,61
494,909	12,44
495,398	12,48
495,888	12,93
496,377	12,94
496,866	13,18
497,355	13,15
497,844	13,11
498,333	12,9
498,821	13,47
499,31	13,9
499,798	13,88
500,287	14,01
500,775	13,72
501,263	14,26
501,751	14,32
502,239	14,73
502,727	15
503,215	15,02
503,702	15,22
504,19	15,28
504,677	16,09
505,164	15,64
505,651	15,96
506,139	16,26
506,625	16,42
507,112	17,2
507,599	17,33
508,086	17,01
508,572	17,6
509,058	17,95
509,545	18,41
510,031	18,25
510,517	18,75
511,003	18,63
511,489	19,24
511,974	20,12
512,46	20,56
512,946	20,98
513,431	20,67
513,916	20,95
514,401	21,85
514,887	21,44
515,371	22,52
515,856	22,8
516,341	23,82
516,826	23,55
517,31	24,45
517,795	24,44
518,279	24,73
518,763	25,54
519,247	25,58
519,731	26,19
520,215	26,78
520,699	27,48
521,182	27,7
521,666	27,99
522,149	28,92
522,633	28,79
523,116	29,69
523,599	29,89
524,082	30,4
524,565	30,3
525,048	31,06
525,53	31,69
526,013	32,57
526,495	32,61
526,978	32,74
527,46	32,79
527,942	33,46
528,424	33,82
528,906	33,87
529,388	34,48
529,87	34,32
530,351	34,63
530,833	35,75
531,314	35,97
531,795	36,29
532,277	35,68
532,758	36,31
533,238	36,37
533,719	36,3
534,2	36,66
534,681	37,37
535,161	37,15
535,642	36,64
536,122	37,28
536,602	38,2
537,082	37,83
537,562	37,38
538,042	37,13
538,522	37,57
539,001	37,71
539,481	37,62
539,96	38,21
540,44	38,93
540,919	38,55
541,398	38,74
541,877	38,62
542,356	38,2
542,835	38,24
543,313	38,1
543,792	38,37
544,27	38,87
544,749	38,92
545,227	38,76
545,705	39,06
546,183	38,43
546,661	38,59
547,139	38,88
547,616	39,45
548,094	39,11
548,571	39,32
549,049	39,51
549,526	39,45
550,003	39,69
550,48	38,95
550,957	39,14
551,434	39,32
551,911	39,4
552,387	39,13
552,864	38,91
553,34	39,57
553,817	39,76
554,293	39,52
554,769	39,23
555,245	39,37
555,721	39,13
556,197	39,54
556,672	39,64
557,148	39,2
557,623	39,39
558,099	38,97
558,574	39,22
559,049	39,43
559,524	38,85
559,999	38,97
560,474	38,9
560,948	38,79
561,423	38,72
561,897	38,15
562,372	37,88
562,846	38,04
563,32	38,51
563,794	38,11
564,268	38,04
564,742	37,98
565,216	37,63
565,69	37,69
566,163	36,97
566,636	37,04
567,11	37,26
567,583	36,19
568,056	36,19
568,529	36,07
569,002	36,01
569,475	35,54
569,947	35,33
570,42	35,28
570,892	34,36
571,365	34,5
571,837	33,97
572,309	34,04
572,781	33,78
573,253	33,15
573,725	32,73
574,197	32,84
574,668	32,82
575,14	32,75
575,611	32,17
576,082	32,48
576,554	31,82
577,025	31,92
577,496	31,73
577,967	31,42
578,437	31,29
578,908	30,98
579,379	31
579,849	30,23
580,319	31,1
580,79	30,27
581,26	30,11
581,73	29,77
582,2	29,76
582,669	29,26
583,139	29,07
583,609	29,08
584,078	29,24
584,548	28,72
585,017	28,69
585,486	28,38
585,955	28,43
586,424	28,27
586,893	27,96
587,362	27,91
587,83	28,15
588,299	27,88
588,767	27,55
589,236	27,36
589,704	27,44
590,172	27,89
590,64	27,73
591,108	27,61
591,576	27,04
592,043	27,04
592,511	26,8
592,978	26,64
593,446	26,37
593,913	26,74
594,38	26,48
594,847	26,67
595,314	26,6
595,781	26,79
596,248	26,48
596,715	26,21
597,181	26,02
597,647	26,27
598,114	26,45
598,58	26,34
599,046	26,44
599,512	26,33
599,978	25,82
600,444	25,94
600,91	25,83
601,375	25,97
601,841	25,63
602,306	25,44
602,771	26,19
603,236	25,56
603,702	25,53
604,167	25,61
604,631	25,71
605,096	25,28
605,561	25,24
606,025	25,47
606,49	24,9
606,954	25,04
607,418	24,84
607,882	24,69
608,347	24,45
608,81	24,56
609,274	24,46
609,738	24,36
610,202	23,82
610,665	23,86
611,128	23,94
611,592	23,73
612,055	23,42
612,518	23,33
612,981	23,08
613,444	23,08
613,907	23,4
614,369	22,7
614,832	22,94
615,294	22,41
615,757	22,14
616,219	22,15
616,681	22,07
617,143	21,96
617,605	22,02
618,067	21,79
618,529	21,5
618,99	21,59
619,452	21,69
619,913	21,59
620,375	21,41
620,836	21,59
621,297	21,31
621,758	21,15
622,219	21
622,68	21,15
623,14	20,8
623,601	21,09
624,061	20,94
624,522	20,72
624,982	20,54
625,442	20,78
625,902	20,62
626,362	20,66
626,822	20,51
627,282	20,44
627,742	20,16
628,201	20,39
628,661	20,48
629,12	20,45
629,579	20,39
630,038	20,25
630,497	20,12
630,956	20,09
631,415	20,29
631,874	19,93
632,332	20,2
632,791	20,2
633,249	19,66
633,708	20,25
634,166	19,71
634,624	19,53
635,082	19,7
635,54	19,11
635,998	19,52
636,455	19,2
636,913	19,46
637,37	19,09
637,828	19
638,285	18,67
638,742	18,59
639,199	18,38
639,656	18,42
640,113	18,2
640,57	17,99
641,027	17,73
641,483	17,69
641,94	17,33
642,396	17,43
642,852	17,14
643,309	16,82
643,765	16,6
644,221	16,61
644,676	16,42
645,132	16,2
645,588	16,12
646,043	15,86
646,499	16,02
646,954	15,52
647,409	15,41
647,864	15,5
648,319	15,27
648,774	14,91
649,229	15
649,684	14,93
650,139	14,53
650,593	14,76
651,047	14,56
651,502	14,08
651,956	14,36
652,41	14,37
652,864	14,28
653,318	14,16
653,772	13,86
654,225	14,35
654,679	13,98
655,133	13,75
655,586	13,71
656,039	13,63
656,492	13,74
656,946	13,49
657,399	13,59
657,851	13,2
658,304	13,4
658,757	12,94
659,209	13
659,662	12,82
660,114	12,77
660,567	12,63
661,019	12,64
661,471	12,45
661,923	12,38
662,375	12,08
662,826	12,19
663,278	12,09
663,73	11,89
664,181	11,8
664,632	11,87
665,084	11,72
665,535	11,77
665,986	11,52
666,437	11,34
666,888	11,47
667,338	11,46
667,789	11,43
668,24	11,53
668,69	11,31
669,14	11,38
669,591	11,55
670,041	11,26
670,491	11,43
670,941	11,5
671,391	11,37
671,84	11,49
672,29	11,56
672,74	11,39
673,189	11,68
673,638	11,67
674,088	11,87
674,537	12,06
674,986	11,87
675,435	12,08
675,883	12,26
676,332	12,33
676,781	12,35
677,229	12,46
677,678	12,67
678,126	12,76
678,574	12,86
679,022	13,02
679,47	12,93
679,918	13,15
680,366	13,37
680,814	13,5
681,261	13,55
681,709	13,92
682,156	14,1
682,604	14,14
683,051	14,47
683,498	14,37
683,945	14,58
684,392	14,98
684,839	15,03
685,286	15,24
685,732	15,39
686,179	15,84
686,625	15,83
687,071	16,36
687,518	16,56
687,964	16,8
688,41	17,08
688,856	17,71
689,301	18,03
689,747	18,48
690,193	18,84
690,638	19,41
691,084	19,7
691,529	20,26
691,974	21,02
692,419	21,35
692,864	22,2
693,309	23,17
693,754	23,52
694,199	24,2
694,643	25,29
695,088	26,16
695,532	26,65
695,977	27,21
696,421	28,23
696,865	28,77
697,309	29,73
697,753	30,26
698,197	31,18
698,64	31,96
699,084	32,82
699,527	33,43
699,971	34,21
700,414	35,07
700,857	35,9
701,3	36,03
701,743	37,27
702,186	37,88
702,629	38,8
703,072	39,39
703,515	39,78
703,957	40,68
704,399	41,63
704,842	42,18
705,284	42,8
705,726	43,4
706,168	44,28
706,61	44,63
707,052	45,42
707,494	46,28
707,935	46,77
708,377	47,05
708,818	47,71
709,26	48,35
709,701	48,9
710,142	49,54
710,583	50,03
711,024	50,65
711,465	50,99
711,905	51,68
712,346	51,89
712,787	52,62
713,227	53,24
713,667	53,96
714,108	54,27
714,548	54,47
714,988	55,13
715,428	55,87
715,868	55,71
716,307	56,48
716,747	56,9
717,186	57,35
717,626	57,57
718,065	57,7
718,504	58,67
718,944	59,37
719,383	59,77
719,822	59,95
720,261	60,31
720,699	60,59
721,138	61,33
721,576	61,23
722,015	62,05
722,453	61,93
722,892	62,47
723,33	62,63
723,768	63,06
724,206	63,11
724,644	63,73
725,081	64,11
725,519	64,1
725,957	64,51
726,394	65,52
726,832	65,29
727,269	65,33
727,706	65,77
728,143	65,63
728,58	66,39
729,017	66,23
729,454	66,55
729,89	66,55
730,327	66,58
730,764	66,67
731,2	67,44
731,636	68,05
732,072	67,44
732,509	68,07
732,945	68,2
733,38	67,59
733,816	68,44
734,252	67,71
734,688	68,01
735,123	68,79
735,559	68,01
735,994	68,7
736,429	68,92
736,864	68,87
737,299	69,13
737,734	69,19
738,169	69,31
738,604	69,36
739,038	69,43
739,473	69,5
739,907	69,76
740,342	69,23
740,776	69,7
741,21	69,46
741,644	69,29
742,078	69,51
742,512	70,04
742,946	69,72
743,379	69,84
743,813	69,76
744,246	69,44
744,68	70,21
745,113	69,79
745,546	69,55
745,979	70,08
746,412	69,94
746,845	70,07
747,278	69,95
747,711	69,85
748,143	69,67
748,576	69,68
749,008	69,97
749,441	69,46
749,873	69,97
750,305	69,64
750,737	69,25
751,169	69,32
751,601	69,54
752,032	68,79
752,464	69,23
752,896	69,51
753,327	69,44
753,758	68,91
754,19	69,17
754,621	69,27
755,052	69,03
755,483	69,1
755,914	68,92
756,344	68,64
756,775	69,1
757,206	68,85
757,636	68,86
758,066	68,42
758,497	68,83
758,927	69,04
759,357	69,33
759,787	68,18
760,217	69,05
760,647	69,07
761,076	68,9
761,506	68,82
761,935	68,07
762,365	68,72
762,794	68,27
763,223	68,72
763,653	68,54
764,082	68,19
764,51	67,96
764,939	68,04
765,368	67,96
765,797	67,83
766,225	67,71
766,654	68,06
767,082	68
767,51	67,92
767,938	67,83
768,367	68,05
768,795	67,9
769,222	67,8
769,65	67,48
770,078	67,25
770,505	68,07
770,933	68
771,36	67,81
771,788	67,46
772,215	67,98
772,642	67,19
773,069	67,27
773,496	67,79
773,923	66,89
774,349	67,36
774,776	67,82
775,203	67,52
775,629	67,65
776,055	67,34
776,482	67,4
776,908	66,83
777,334	67,47
777,76	66,9
778,186	67,36
778,611	66,8
779,037	66,45
779,463	66,81
779,888	66,21
780,314	67,12
780,739	67,67
781,164	67,05
781,589	67,02
782,014	66,87
782,439	66,64
782,864	66,91
783,289	66,92
783,713	66,43
784,138	66,95
784,562	66,52
784,987	66,77
785,411	66,64
785,835	66,84
786,259	66,57
786,683	66,83
787,107	66,64
787,531	66,45
787,954	66,58
788,378	66,34
788,802	66,66
789,225	66,61
789,648	66,55
790,071	66,45
790,495	66,59
790,918	67
791,34	66,55
791,763	66,6
792,186	66,52
792,609	66,22
793,031	66,6
793,454	66,42
793,876	66,56
794,298	66,77
794,721	66,15
795,143	66,39
795,565	66,36
795,986	66,32
796,408	66,67
796,83	66,44
797,252	66,34
797,673	66,58
798,094	66,1
798,516	66,33
798,937	66,16
799,358	66,4
799,779	66,02
800,2	66,21
800,621	65,96
801,042	66,61
801,462	66,2
801,883	66,77
802,303	65,99
802,724	65,42
803,144	66,24
803,564	65,89
803,984	66,02
804,404	66,18
804,824	66,38
805,244	66,22
805,664	66,16
806,084	66,42
806,503	66,12
806,923	65,96
807,342	65,55
807,761	66,29
808,18	66,3
808,599	66,29
809,018	66,86
809,437	66,14
809,856	66,4
810,275	65,97
810,693	65,86
811,112	65,98
811,53	65,74
811,949	66,1
812,367	66,1
812,785	66,36
813,203	65,88
813,621	66,03
814,039	66,11
814,457	65,64
814,874	65,67
815,292	65,73
815,709	66,26
816,127	66,51
816,544	65,76
816,961	66,43
817,378	65,19
817,795	66,15
818,212	66,08
818,629	65,89
819,046	65,6
819,462	65,88
819,879	66,19
820,295	66,09
820,712	66,1
821,128	65,8
821,544	66,47
821,96	65,9
822,376	66,05
822,792	65,85
823,208	65,67
823,624	65,41
824,039	66,21
824,455	65,97
824,87	65,77
825,286	65,45
825,701	66,1
826,116	66,22
826,531	65,69
826,946	65,83
827,361	65,88
827,776	65,87
828,19	65,55
828,605	65,86
829,02	66,19
829,434	65,8
829,848	66,04
830,263	66,19
830,677	65,4
831,091	65,93
831,505	65,73
831,919	66,1
832,332	65,85
832,746	66,04
833,16	65,65
833,573	65,96
833,987	66,11
834,4	65,68
834,813	65,64
835,226	65,64
835,639	65,71
836,052	65,36
836,465	65,87
836,878	65,8
837,29	65,32
837,703	65,69
838,116	65,52
838,528	65,57
838,94	65,33
839,352	65,22
839,765	65,86
840,177	65,84
840,589	65,87
841	65,85
841,412	65,04
841,824	65,56
842,235	65,62
842,647	65,38
843,058	65,57
843,47	65,47
843,881	65,23
844,292	64,9
844,703	65,7
845,114	65,84
845,525	65,37
845,935	65,6
846,346	65,68
846,757	65,89
847,167	65,63
847,577	65,42
847,988	65,65
848,398	65,15
848,808	65,61
849,218	65,2
849,628	65,48
850,038	65,91
850,448	65,54
850,857	64,99
851,267	65,28
851,676	65,28
852,086	65,41
852,495	65,58
852,904	65,55
853,313	65,66
853,722	65,73
854,131	65,79
854,54	65,47
854,949	65,26
855,357	65,55
855,766	65,87
856,174	65,9
856,583	65,45
856,991	65,66
857,399	65,27
857,807	65,74
858,215	65,78
858,623	65,37
859,031	65,68
859,439	65,78
859,846	64,93
860,254	65,34
860,661	65,48
861,069	65,49
861,476	65,24
861,883	65,52
862,29	65,89
862,697	65,61
863,104	65,56
863,511	65,48
863,918	65,31
864,325	65,41
864,731	65,47
865,138	65,2
865,544	65,55
865,95	65,07
866,357	65,21
866,763	65,2
867,169	65,4
867,575	65,75
867,98	64,79
868,386	65,76
868,792	65,19
869,197	65,4
869,603	65,67
870,008	65,08
870,414	65,22
870,819	65,34
871,224	65,35
871,629	65,74
872,034	65,61
872,439	64,91
872,844	65,63
873,248	65,85
873,653	65,53
874,057	65,72
874,462	64,53
874,866	65,27
875,27	65,85
875,674	65,66
876,078	65,17
876,482	65,62
876,886	64,97
877,29	65,96
877,694	65,18
878,097	65,58
878,501	65,5
878,904	65,24
879,308	65
879,711	65,16
880,114	65,22
880,517	65,09
880,92	65,5
881,323	65
881,726	65,19
882,128	65,15
882,531	65,84
882,934	64,81
883,336	65
883,738	65,6
884,141	65,43
884,543	65,26
884,945	65,2
885,347	65,12
885,749	65,56
886,151	65,11
886,552	65,94
886,954	65,61
887,355	65
887,757	65,62
888,158	65,36
888,56	64,56
888,961	65,51
889,362	65,17
889,763	65,72
890,164	65,31
890,565	65,35
890,965	65,07
891,366	65,47
891,767	65,24
892,167	65,55
892,567	65,45
892,968	64,88
893,368	65,02
893,768	65,21
894,168	65,07
894,568	64,68
894,968	65,42
895,368	64,75
895,767	65,74
896,167	65,56
896,566	65,73
896,966	64,83
897,365	65,77
897,764	65,18
898,164	65,08
898,563	64,97
898,962	64,74
899,361	65,84
899,759	64,89
900,158	64,96
900,557	65,45
900,955	64,68
901,354	64,75
901,752	65,61
902,15	64,97
902,548	65,22
902,947	65,17
903,345	65,15
903,742	65,15
904,14	64,69
904,538	64,41
904,936	64,84
905,333	65,72
905,731	65,04
906,128	65,2
906,525	65,53
906,923	65,39
907,32	65,47
907,717	65,01
908,114	65,76
908,511	65,33
908,907	65,17
909,304	65,77
909,701	65,27
910,097	65,13
910,494	65,24
910,89	65,52
911,286	65,4
911,682	65,1
912,078	64,76
912,474	64,83
912,87	65,51
913,266	65,61
913,662	65,61
914,058	64,79
914,453	65,63
914,849	65,02
915,244	65,06
915,639	64,97
916,034	65,56
916,43	65,16
916,825	65,69
917,22	64,55
917,614	65,04
918,009	65,15
918,404	65,43
918,798	65,23
919,193	64,88
919,587	65,41
919,982	65,78
920,376	65,03
920,77	65,07
921,164	65,62
921,558	65,44
921,952	65,45
922,346	65,52
922,74	65,14
923,133	64,68
923,527	65,59
923,92	65,9
924,314	65,02
924,707	65,91
925,1	64,79
925,493	65,28
925,886	64,6
926,279	65,01
926,672	64,67
927,065	64,7
927,457	65,33
927,85	65,28
928,243	65,03
928,635	64,37
929,027	64,88
929,42	64,83
929,812	65,08
930,204	65,33
930,596	65,16
930,988	64,78
931,379	65,25
931,771	65
932,163	64,68
932,554	64,33
932,946	64,77
933,337	64,53
933,729	64,79
934,12	64,92
934,511	64,71
934,902	64,73
935,293	64,55
935,684	65,69
936,075	64,56
936,465	65,03
936,856	65,01
937,246	65,41
937,637	65,37
938,027	64,7
938,417	64,09
938,808	64,75
939,198	63,48
939,588	64,16
939,978	64,25
940,368	63,87
940,757	64,7
941,147	64,83
941,537	64,1
941,926	63,89
942,315	64,55
942,705	63,72
943,094	64,93
943,483	63,51
943,872	64,39
944,261	64,85
944,65	65,23
945,039	64,97
945,428	64,23
945,816	64,76
946,205	64,92
946,593	64,59
946,982	64,33
947,37	62,41
947,758	64,25
948,146	64,48
948,534	62,93
948,922	63,42
949,31	63,19
949,698	64,02
950,086	64,22
950,473	63,95
950,861	64,1
951,248	62,81
951,636	64,16
952,023	63,41
952,41	64,05
952,797	63,7
953,184	64,26
953,571	64,54
953,958	65,37
954,345	63,84
954,731	64,47
955,118	64,65
955,505	63,28
955,891	64,44
956,277	62,84
956,664	63,5
957,05	63,79
957,436	63,09
957,822	62,33
958,208	62,87
958,594	63,05
958,979	63,71
959,365	64,03
959,751	62,85
960,136	63,63
960,522	62,83
960,907	62,59
961,292	63,27
961,677	63,05
962,062	62,91
962,447	63,59
962,832	62,41
963,217	62,82
963,602	62,65
963,986	63,02
964,371	62,3
964,756	63,3
965,14	62,31
965,524	62,89
965,908	63,09
966,293	62,49
966,677	63,07
967,061	62,62
967,445	63,26
967,828	62,79
968,212	62,99
968,596	63,2
968,979	62,97
969,363	62,25
969,746	63,28
970,129	63,56
970,513	62,7
970,896	62,66
971,279	62,7
971,662	62,64
972,045	62,36
972,428	62,44
972,81	62,48
973,193	62,41
973,575	63,62
973,958	62,47
974,34	62,58
974,723	62,22
975,105	63,72
975,487	62,91
975,869	63,07
976,251	63,13
976,633	64,38
977,015	63,43
977,396	62,91
977,778	63,69
978,16	62,46
978,541	63,26
978,922	62,85
979,304	63,09
979,685	62,9
980,066	62,78
980,447	63,1
980,828	62,55
981,209	63,11
981,59	62,6
981,97	62,72
982,351	63,02
982,732	63,17
983,112	63,52
983,493	63,63
983,873	62,69
984,253	62,24
984,633	62,7
985,013	62,96
985,393	63,06
985,773	63,5
986,153	61,98
986,533	62,56
986,912	63,89
987,292	62,91
987,671	62,66
988,051	63,31
988,43	64,59
988,809	62,49
989,188	62,7
989,567	62,98
989,946	62,53
990,325	62,48
990,704	63,37
991,083	62,7
991,461	63,15
991,84	63,51
992,218	63,95
992,597	63,06
992,975	62,98
993,353	63,65
993,732	63,99
994,11	62,97
994,488	62,87
994,866	63,2
995,243	63,45
995,621	63,68
995,999	62,96
996,376	63,73
996,754	63,25
997,131	64,06
997,509	63,23
997,886	63,45
998,263	62,78
998,64	63,26
999,017	64,13
999,394	63,91
999,771	62,75
1000,148	63,83
1000,524	63,04
1000,901	63,67
1001,277	63,67
1001,654	63,11
1002,03	63,94
1002,406	63,94
1002,783	63,99
1003,159	63,53
1003,535	63,46
1003,911	62,77
1004,286	63,72
1004,662	64,44
1005,038	63,08
1005,414	63,59
1005,789	64,89
1006,164	63,68
1006,54	64,37
1006,915	64,16
1007,29	63,85
1007,665	63,8
1008,04	63,01
1008,415	64,17
1008,79	63,54
1009,165	63,37
1009,54	64,35
1009,914	63,93
1010,289	64,08
1010,663	63,92
1011,038	62,86
1011,412	63,47
1011,786	63,1
1012,16	64,28
1012,535	65,11
1012,909	64,62
1013,282	64,56
1013,656	65,01
1014,03	64,47
1014,404	64,15
1014,777	64,33
1015,151	65,41
1015,524	62,42
1015,897	64,16
1016,271	63,46
1016,644	63,51
1017,017	64,83
1017,39	64,42
1017,763	64,08
1018,136	64,29
1018,508	64,64
1018,881	65,08
1019,254	63,66
1019,626	64,8
1019,999	63,66
1020,371	66,01
1020,743	64,41
1021,116	63
1021,488	64,28
1021,86	63,7
1022,232	64,49
1022,604	63,42
1022,975	64,49
1023,347	65,2
1023,719	65,5
1024,09	65,66
1024,462	63,94
1024,833	64,21
1025,204	64,7
1025,576	64,15
1025,947	64,13
1026,318	63,47
1026,689	66,12
1027,06	65,05
1027,431	64,86
1027,801	65,13
1028,172	64,64
1028,543	63,55
1028,913	64,99
1029,284	64,36
1029,654	64,71
1030,024	65,08
1030,394	66,47
1030,764	63,94
1031,135	63,67
1031,504	65,43
1031,874	64,52
1032,244	63,71
1032,614	64,24
1032,983	65,7
1033,353	66,16
1033,722	64,47
1034,092	64,5
1034,461	65,39
1034,83	65,51
1035,2	64,99
1035,569	64,57
1035,938	65,69
1036,307	65,1
1036,675	66,51
1037,044	66,1
1037,413	64,47
1037,781	65,45
1038,15	65,46
1038,518	64,86
1038,887	64,98
1039,255	65,5
1039,623	65,9
1039,991	65,82
1040,359	64,13
1040,727	66,24
1041,095	64,68
1041,463	67,38
1041,831	64,93
1042,198	65,78
1042,566	64,82
1042,933	65,68
1043,301	65,39
1043,668	65,22
1044,035	65,94
1044,402	66,16
1044,77	65,09
1045,137	65,4
1045,503	66,3
1045,87	63,93
1046,237	64,72
1046,604	66,67
1046,97	65,75
1047,337	65,69
1047,703	66,08
1048,07	66,22
1048,436	65,53
1048,802	66,53
1049,168	65,11
1049,534	67,01
1049,9	68,2
1050,266	65,59
1050,632	65,6
1050,998	65,35
1051,364	67,14
1051,729	65,74
1052,095	66,5
1052,46	66,36
1052,825	66,06
1053,191	66,33
1053,556	64,74
1053,921	67,35
1054,286	67,85
1054,651	68
1055,016	67,68
1055,381	65,81
1055,745	65,54
1056,11	64,19
1056,475	67,43
1056,839	65,25
1057,203	65,09
1057,568	65,73
1057,932	65,93
1058,296	66,24
1058,66	67,58
1059,024	67,04
1059,388	67,87
1059,752	63,79
1060,116	68,63
1060,48	67,35
1060,843	67,27
1061,207	66,79
1061,57	66,34
1061,934	65,95
1062,297	65,4
1062,66	68,24
1063,023	68,51
1063,386	67,37
1063,749	67,35
1064,112	67,82
1064,475	67,77
1064,838	67,92
1065,201	66,5
1065,563	65,78
1065,926	69,45
1066,288	64,27
1066,651	68,89
1067,013	66,02
1067,375	64,75
1067,737	67,61
1068,099	66,38
1068,461	67,43
1068,823	67,18
1069,185	64,79
1069,547	67,77
1069,909	66,27
1070,27	66,61
1070,632	67,56
1070,993	68,54
1071,355	66,69
1071,716	66,79
1072,077	64,09
1072,438	64,6
1072,799	65,35
1073,16	64,25
1073,521	66,16
1073,882	67,24
1074,243	65,62
1074,603	66,22
1074,964	68,17
1075,325	68,32
1075,685	68,47
1076,045	68,18
1076,406	66,91
1076,766	68,33
1077,126	68,3
1077,486	67,43
1077,846	66,52
1078,206	67,12
1078,566	67,47
1078,925	70,35
1079,285	66,96
1079,645	67,99
1080,004	67,69
1080,364	68,84
1080,723	65,86
1081,082	69,54
1081,442	65,21
1081,801	71,4
1082,16	66,32
1082,519	68,74
1082,878	68,27
1083,237	67,16
1083,595	67,34
1083,954	68,2
1084,313	70,06
1084,671	67,23
1085,03	65,72
1085,388	68,34
1085,746	68
1086,104	65,75
1086,463	65,35
1086,821	65,77
1087,179	68,73
1087,537	68,21
1087,894	66,56
1088,252	64,05
1088,61	67,07
1088,967	69,35
1089,325	69,04
1089,682	70,06
1090,04	67,54
1090,397	66,48
1090,754	68,08
1091,111	67,54
1091,469	68,09
1091,826	67,59
1092,182	70,17
1092,539	67,59
1092,896	68,28
1093,253	71,02
1093,609	66,91
1093,966	66,44
1094,322	70,15
1094,679	70,43
1095,035	67,29
1095,391	64,36
1095,748	69,15
1096,104	66,88
1096,46	68,48
1096,816	70,75
1097,171	71,47
1097,527	67,06
1097,883	62,6
1098,239	69,78
1098,594	71,66
1098,95	67,15
1099,305	71,93
1099,66	68,52
1100,016	65,38
1100,371	72,24
1100,726	65,94
1101,081	70,31
1101,436	70,24
1101,791	69,88
1102,146	64,72
1102,5	64,64
1102,855	68,64
1103,21	71,95
1103,564	69,46
1103,918	68,89
1104,273	69,11
1104,627	67,71
1104,981	70,2
1105,335	66,99
1105,69	69,75
1106,043	66,95
1106,397	66,82
1106,751	73,06
1107,105	68,24
1107,459	68,21
1107,812	67,6
1108,166	71,14
1108,519	67,57
1108,873	69,89
1109,226	71,18
1109,579	70,63
1109,932	66,62
1110,285	69,97
1110,638	69,94
1110,991	69,08
1111,344	67,46
1111,697	70,31
1112,05	75,68
1112,402	68,34
1112,755	69,8
1113,107	69,2
1113,46	68,19
1113,812	69,42
1114,164	72,55
1114,517	70,51
1114,869	140,85
1115,221	125,33
1115,573	131,94
1115,924	124,1
