Data from C_2_Relative__3__00035.txt Node

Date: Tue Jan 30 09:52:03 CET 2024
User: diatiterra
Spectrometer: HDX00911
Trigger mode: 0
Integration Time (sec): 6,000000E-3
Scans to average: 2
Nonlinearity correction enabled: false
Boxcar width: 0
Storing dark spectrum: false
XAxis mode: Wavelengths
Number of Pixels in Spectrum: 2068
>>>>>Begin Spectral Data<<<<<
194,468	106,52
195,025	100
195,581	118,31
196,138	111,24
196,694	84,46
197,251	88,06
197,807	73,86
198,363	76,22
198,919	75,6
199,474	83,54
200,03	77,65
200,586	67,72
201,141	76,88
201,696	73,72
202,251	96,09
202,806	91,37
203,361	87,73
203,916	75,16
204,471	81,2
205,025	93,15
205,58	82,64
206,134	75,78
206,688	82,19
207,242	70,7
207,796	64,67
208,35	93,12
208,904	84,15
209,457	88,95
210,011	69,51
210,564	85,62
211,117	77,11
211,67	92,76
212,223	80,26
212,776	77,19
213,329	85,03
213,881	87,84
214,434	79,27
214,986	78,34
215,538	71,18
216,09	79,64
216,642	79,08
217,194	85,53
217,746	91,77
218,297	87,82
218,849	80
219,4	76,54
219,951	80,36
220,502	89,33
221,053	82,84
221,604	89,41
222,155	92,41
222,705	83,44
223,256	84
223,806	70,12
224,356	95,35
224,906	85,19
225,456	67,68
226,006	70,06
226,556	89,93
227,106	94,12
227,655	84,89
228,204	82,05
228,754	76,47
229,303	83,22
229,852	88,61
230,401	79,25
230,949	88,82
231,498	81,88
232,047	76,88
232,595	89,94
233,143	68,42
233,691	77,55
234,239	81,32
234,787	84,67
235,335	89,05
235,883	95,86
236,43	73,72
236,978	75,47
237,525	82,1
238,072	88,32
238,619	75,57
239,166	75,66
239,713	85,16
240,26	73,94
240,806	89,8
241,353	79,41
241,899	75,93
242,445	84,67
242,991	73,37
243,537	84,67
244,083	86,84
244,629	78,77
245,174	75,61
245,72	64,36
246,265	68,32
246,81	86,62
247,355	84,21
247,9	80,95
248,445	82,17
248,99	81,75
249,534	70,3
250,079	95,49
250,623	77,42
251,168	86,98
251,712	77,78
252,256	86,26
252,8	86,93
253,343	77,46
253,887	73,37
254,43	82,26
254,974	99,27
255,517	91,91
256,06	79,51
256,603	90,24
257,146	93,29
257,689	76,97
258,232	75,57
258,774	85,25
259,317	91,49
259,859	80,69
260,401	99,18
260,943	93,38
261,485	98,28
262,027	75,5
262,569	85,23
263,11	85,92
263,652	79,31
264,193	80,28
264,734	96,55
265,275	87,76
265,816	84,78
266,357	100,71
266,898	92,99
267,438	96,77
267,979	77,69
268,519	71,23
269,059	90,48
269,6	89,03
270,14	84,17
270,68	95,83
271,219	76,51
271,759	94,53
272,298	82,1
272,838	92,36
273,377	89,12
273,916	80
274,455	80,56
274,994	81,62
275,533	79,76
276,072	90,73
276,61	80,25
277,149	83,1
277,687	80
278,225	95,87
278,763	100,76
279,301	76,4
279,839	94,84
280,377	83,09
280,914	78,12
281,452	83,33
281,989	81,33
282,526	71,07
283,064	93,75
283,601	81,4
284,137	72,99
284,674	77,92
285,211	96,06
285,747	77,84
286,284	81,48
286,82	88,19
287,356	80
287,892	74,17
288,428	78,32
288,964	79,25
289,5	73,68
290,035	92,06
290,571	86,96
291,106	102,04
291,641	89,17
292,176	89,66
292,711	86,3
293,246	83,21
293,781	84,33
294,315	75
294,85	81,76
295,384	95,87
295,918	67,6
296,453	88,61
296,987	100
297,52	82,48
298,054	76,51
298,588	94,62
299,121	85,83
299,655	77,24
300,188	87,68
300,721	77,55
301,254	75,35
301,787	99,15
302,32	87,22
302,853	72,09
303,385	87,1
303,918	89,74
304,45	80,27
304,982	84,21
305,514	76,58
306,046	69,01
306,578	83,21
307,11	76,92
307,641	73,55
308,173	78,12
308,704	77,35
309,236	72,08
309,767	76,55
310,298	72
310,829	84
311,359	70,81
311,89	80,41
312,421	80,14
312,951	72,26
313,481	86,43
314,012	73,33
314,542	83,74
315,072	83,1
315,601	96,43
316,131	93,28
316,661	79,27
317,19	84,38
317,72	74,15
318,249	86,47
318,778	74,56
319,307	78,48
319,836	76,77
320,365	72,79
320,893	83,33
321,422	68,89
321,95	78,53
322,479	89,93
323,007	74,17
323,535	83,06
324,063	81,05
324,591	80,5
325,118	80,95
325,646	75,74
326,173	88,37
326,701	71,33
327,228	75,44
327,755	64,44
328,282	83,22
328,809	85,5
329,336	69,38
329,862	84,27
330,389	68,9
330,915	79,74
331,441	70,97
331,968	80,29
332,494	65,56
333,02	72,09
333,545	59,88
334,071	81,17
334,597	75,97
335,122	73,76
335,648	75,14
336,173	84,08
336,698	73,33
337,223	84,89
337,748	76,77
338,272	66,46
338,797	74,29
339,322	76,25
339,846	72,78
340,37	72,44
340,894	60,13
341,419	92,47
341,942	70,05
342,466	66,67
342,99	75,32
343,514	63,93
344,037	74,43
344,56	71,75
345,084	80,62
345,607	59,67
346,13	73,18
346,653	68,87
347,175	60,92
347,698	77,17
348,221	75,62
348,743	71,21
349,265	64,94
349,787	62,34
350,309	68,72
350,831	68,85
351,353	71,95
351,875	76,22
352,397	65,4
352,918	66,33
353,439	72,05
353,961	72,77
354,482	69,61
355,003	79,62
355,524	72,91
356,044	77,84
356,565	67,77
357,086	64,38
357,606	68,59
358,126	69,12
358,646	62,32
359,167	65,14
359,687	60,44
360,206	69,79
360,726	74,06
361,246	58,7
361,765	75,59
362,285	67,94
362,804	68,14
363,323	74,14
363,842	75,34
364,361	71
364,88	66,26
365,398	67,14
365,917	75,57
366,435	72,47
366,954	66,94
367,472	66,27
367,99	63,12
368,508	67,8
369,026	68,84
369,544	62,24
370,061	59,65
370,579	70,15
371,096	69,76
371,613	66,67
372,131	63,14
372,648	64,45
373,165	71,13
373,681	75,48
374,198	57,86
374,715	61,71
375,231	67,34
375,747	63,33
376,264	59,31
376,78	61,92
377,296	63,25
377,812	50,29
378,327	59,41
378,843	58,56
379,359	60
379,874	57,07
380,389	57,88
380,905	63,92
381,42	58,29
381,935	61,58
382,449	57,78
382,964	58,04
383,479	52,83
383,993	54,18
384,508	50,99
385,022	50,45
385,536	55,53
386,05	52,21
386,564	47,29
387,078	54,51
387,592	51,21
388,105	50,38
388,619	46,22
389,132	50,8
389,645	48,72
390,158	48,58
390,671	52,14
391,184	52,42
391,697	48,97
392,21	45,02
392,722	44,72
393,235	46,67
393,747	42,76
394,259	44,41
394,771	45,94
395,283	47,92
395,795	42,07
396,307	42,57
396,818	45,17
397,33	43,41
397,841	41,75
398,353	38,45
398,864	41,76
399,375	40,09
399,886	38,23
400,397	38,56
400,907	38,12
401,418	38,29
401,928	34,26
402,439	36,49
402,949	34,33
403,459	35,48
403,969	36,85
404,479	32,93
404,989	37,39
405,498	33,2
406,008	34,51
406,517	31,23
407,027	29,5
407,536	28,64
408,045	28,48
408,554	28,5
409,063	26,71
409,572	25,8
410,08	26,69
410,589	24,77
411,097	23,09
411,606	24,48
412,114	20,38
412,622	21,95
413,13	19,65
413,638	21,52
414,145	20,63
414,653	17,62
415,16	19,2
415,668	19,35
416,175	19,72
416,682	18,37
417,189	17,38
417,696	17,55
418,203	17,24
418,71	17,39
419,216	16,43
419,723	16,31
420,229	15,95
420,735	14,48
421,242	16,58
421,748	15,13
422,254	16,32
422,759	15,13
423,265	14,34
423,771	13,9
424,276	15,15
424,781	15,43
425,287	15,26
425,792	15,02
426,297	14,78
426,802	14
427,306	14,17
427,811	13,62
428,316	14,31
428,82	12,66
429,324	14,11
429,829	14,65
430,333	14
430,837	13,83
431,34	13,22
431,844	13,29
432,348	13,75
432,851	14,05
433,355	12,45
433,858	12,77
434,361	13,1
434,864	12,55
435,367	13,86
435,87	13,11
436,373	12,51
436,876	13,22
437,378	12,43
437,88	13,09
438,383	13,66
438,885	12,56
439,387	12,8
439,889	13,47
440,391	12,48
440,892	12,73
441,394	12,79
441,896	13,35
442,397	13,56
442,898	12,51
443,399	12,76
443,9	12,48
444,401	12,63
444,902	12,67
445,403	12,79
445,903	13,32
446,404	12,85
446,904	12,52
447,405	13,12
447,905	12,06
448,405	12,61
448,905	12,46
449,404	12,4
449,904	12,32
450,404	13,06
450,903	12,83
451,403	12,89
451,902	12,46
452,401	13,01
452,9	12,9
453,399	12,68
453,898	12,49
454,396	12,92
454,895	12,63
455,393	12,86
455,892	13,65
456,39	12,33
456,888	13,42
457,386	12,86
457,884	13,34
458,382	13,18
458,879	13,47
459,377	13,37
459,874	13,06
460,372	13,48
460,869	13,09
461,366	12,56
461,863	13,64
462,36	12,72
462,857	12,62
463,353	12,97
463,85	13,67
464,346	13,2
464,843	13,5
465,339	13,02
465,835	13,34
466,331	12,52
466,827	12,9
467,323	13,01
467,818	13,06
468,314	13,25
468,809	13,17
469,305	12,77
469,8	12,46
470,295	13,04
470,79	13,13
471,285	13,08
471,78	12,97
472,274	13,27
472,769	13,45
473,263	12,7
473,758	13,05
474,252	12,3
474,746	12,98
475,24	13,11
475,734	13,07
476,228	12,8
476,721	13,1
477,215	13,05
477,708	13,27
478,202	13,44
478,695	12,89
479,188	13,04
479,681	12,76
480,174	13,15
480,667	13,23
481,159	12,76
481,652	12,83
482,144	12,9
482,637	13,3
483,129	12,56
483,621	13,64
484,113	12,97
484,605	12,86
485,097	13,11
485,588	12,93
486,08	13,19
486,571	12,84
487,063	13,65
487,554	12,87
488,045	13,74
488,536	13,59
489,027	13,58
489,518	13,71
490,008	13,34
490,499	13,76
490,989	13,21
491,48	13,56
491,97	13,59
492,46	13,61
492,95	13,79
493,44	13,62
493,93	13,45
494,419	14,16
494,909	14,01
495,398	14,27
495,888	14,24
496,377	13,98
496,866	14,6
497,355	14,48
497,844	14,58
498,333	14,14
498,821	14,87
499,31	15,09
499,798	15,6
500,287	15,48
500,775	15,02
501,263	15,55
501,751	15,75
502,239	16,05
502,727	15,38
503,215	16,07
503,702	16,38
504,19	16,12
504,677	16,93
505,164	17,01
505,651	17,35
506,139	17,19
506,625	17,36
507,112	18,25
507,599	17,86
508,086	18,66
508,572	18,96
509,058	18,95
509,545	19,47
510,031	19,45
510,517	19,25
511,003	19,84
511,489	20,28
511,974	20,65
512,46	20,15
512,946	21,02
513,431	21,05
513,916	21,9
514,401	22,36
514,887	22,28
515,371	23,11
515,856	23,39
516,341	23,65
516,826	23,68
517,31	24,49
517,795	25,3
518,279	24,66
518,763	25,99
519,247	25,69
519,731	26,27
520,215	26,21
520,699	26,97
521,182	27,08
521,666	27,62
522,149	28,57
522,633	28,59
523,116	29,19
523,599	29,17
524,082	30,68
524,565	30,09
525,048	30,36
525,53	30,87
526,013	31,22
526,495	31,53
526,978	32,27
527,46	32,17
527,942	32,52
528,424	32,74
528,906	32,59
529,388	33,38
529,87	33,83
530,351	33,77
530,833	34,39
531,314	34,63
531,795	34,85
532,277	35,18
532,758	35,18
533,238	34,85
533,719	35,27
534,2	36,23
534,681	35,93
535,161	36,24
535,642	36
536,122	36,29
536,602	36,76
537,082	35,99
537,562	35,37
538,042	36,19
538,522	36,91
539,001	36,67
539,481	36,55
539,96	36,7
540,44	36,73
540,919	37,48
541,398	37,13
541,877	37,08
542,356	37,79
542,835	36,7
543,313	37,17
543,792	37,81
544,27	37,12
544,749	37,01
545,227	37,08
545,705	37,66
546,183	37,35
546,661	37,45
547,139	38,37
547,616	37,09
548,094	37,77
548,571	37,96
549,049	37,36
549,526	37,51
550,003	37,93
550,48	37,86
550,957	37,88
551,434	37,83
551,911	37,74
552,387	37,48
552,864	38
553,34	37,46
553,817	37,8
554,293	37,36
554,769	37,57
555,245	38,39
555,721	37,64
556,197	37,6
556,672	37,88
557,148	37,83
557,623	37,42
558,099	37,63
558,574	37,63
559,049	38,05
559,524	37,24
559,999	37,13
560,474	37,79
560,948	36,82
561,423	37,82
561,897	36,86
562,372	36,56
562,846	36,75
563,32	37,17
563,794	36,98
564,268	36,36
564,742	36,6
565,216	35,78
565,69	36,44
566,163	35,38
566,636	35,78
567,11	35,26
567,583	35,45
568,056	35,25
568,529	35,13
569,002	35,1
569,475	34,63
569,947	34,53
570,42	33,93
570,892	33,49
571,365	32,95
571,837	33,52
572,309	32,81
572,781	32,64
573,253	32,44
573,725	32,29
574,197	32,32
574,668	31,73
575,14	31,76
575,611	31,55
576,082	31,5
576,554	31,13
577,025	31,01
577,496	30,69
577,967	30,88
578,437	30,36
578,908	30,39
579,379	30,22
579,849	30,28
580,319	29,84
580,79	29,57
581,26	29,28
581,73	29,27
582,2	29,43
582,669	29,16
583,139	28,58
583,609	28,58
584,078	28,67
584,548	28,51
585,017	28,64
585,486	28,15
585,955	28,03
586,424	27,51
586,893	27,45
587,362	27,43
587,83	27,38
588,299	27,45
588,767	27,51
589,236	27,06
589,704	27,47
590,172	26,96
590,64	27,22
591,108	26,99
591,576	26,87
592,043	26,29
592,511	26,6
592,978	26,05
593,446	26,34
593,913	26,49
594,38	26,29
594,847	26,11
595,314	26,33
595,781	26,41
596,248	26,09
596,715	26,03
597,181	26,19
597,647	25,7
598,114	26,22
598,58	25,76
599,046	25,84
599,512	25,96
599,978	25,66
600,444	25,58
600,91	25,63
601,375	25,71
601,841	25,11
602,306	25,59
602,771	25,81
603,236	25,24
603,702	25,22
604,167	25,27
604,631	25,29
605,096	24,87
605,561	24,97
606,025	24,78
606,49	24,66
606,954	24,71
607,418	24,15
607,882	24,19
608,347	24,17
608,81	24,08
609,274	23,57
609,738	23,7
610,202	23,42
610,665	23,8
611,128	23,54
611,592	23,54
612,055	23,14
612,518	23,31
612,981	23,19
613,444	22,97
613,907	22,6
614,369	22,62
614,832	22,81
615,294	22,76
615,757	22,34
616,219	22,16
616,681	21,85
617,143	21,78
617,605	22,07
618,067	21,71
618,529	21,56
618,99	21,57
619,452	21,67
619,913	21,43
620,375	21,33
620,836	21,27
621,297	21,41
621,758	21,12
622,219	21,02
622,68	20,9
623,14	20,94
623,601	20,93
624,061	20,79
624,522	20,93
624,982	20,29
625,442	20,67
625,902	20,48
626,362	20,64
626,822	20,67
627,282	20,45
627,742	20,45
628,201	20,53
628,661	20,39
629,12	20,5
629,579	20,62
630,038	20,37
630,497	20,1
630,956	20,03
631,415	20,19
631,874	19,8
632,332	20,26
632,791	19,87
633,249	19,89
633,708	19,97
634,166	19,98
634,624	19,76
635,082	20
635,54	19,55
635,998	19,59
636,455	19,31
636,913	19,65
637,37	19,22
637,828	18,93
638,285	19,07
638,742	18,98
639,199	19,05
639,656	18,87
640,113	18,57
640,57	18,27
641,027	17,93
641,483	18,06
641,94	18,09
642,396	17,7
642,852	17,83
643,309	17,51
643,765	17,19
644,221	17,02
644,676	17
645,132	16,83
645,588	16,82
646,043	16,33
646,499	16,58
646,954	16,35
647,409	15,98
647,864	15,89
648,319	15,85
648,774	15,41
649,229	15,67
649,684	15,45
650,139	15,55
650,593	15,3
651,047	15,41
651,502	15,03
651,956	15,22
652,41	15
652,864	15,04
653,318	14,81
653,772	14,88
654,225	14,8
654,679	14,51
655,133	14,64
655,586	14,49
656,039	14,53
656,492	14,55
656,946	14,36
657,399	14,36
657,851	14,41
658,304	14,04
658,757	13,94
659,209	14,03
659,662	13,87
660,114	13,59
660,567	13,79
661,019	13,21
661,471	13,43
661,923	13,2
662,375	13,03
662,826	13,03
663,278	13,11
663,73	12,8
664,181	12,96
664,632	12,79
665,084	12,77
665,535	12,78
665,986	12,61
666,437	12,79
666,888	12,74
667,338	12,68
667,789	12,68
668,24	12,68
668,69	12,51
669,14	12,45
669,591	12,66
670,041	12,75
670,491	12,52
670,941	12,62
671,391	12,59
671,84	12,71
672,29	12,73
672,74	12,76
673,189	12,9
673,638	13,22
674,088	12,93
674,537	13,27
674,986	13,31
675,435	13,46
675,883	13,64
676,332	13,68
676,781	13,86
677,229	13,98
677,678	13,97
678,126	14,06
678,574	14
679,022	14,45
679,47	14,51
679,918	14,65
680,366	14,61
680,814	15,07
681,261	15,19
681,709	15,19
682,156	15,34
682,604	15,53
683,051	15,75
683,498	15,77
683,945	16,02
684,392	16,24
684,839	16,14
685,286	16,49
685,732	16,62
686,179	16,81
686,625	16,99
687,071	17,33
687,518	17,3
687,964	17,51
688,41	17,79
688,856	18,11
689,301	18,64
689,747	19,04
690,193	19,35
690,638	19,87
691,084	20,16
691,529	20,73
691,974	21,41
692,419	22
692,864	22,3
693,309	22,88
693,754	23,04
694,199	24,01
694,643	24,83
695,088	25,15
695,532	26,05
695,977	26,57
696,421	27,41
696,865	28,46
697,309	28,5
697,753	29,32
698,197	29,98
698,64	30,9
699,084	31,34
699,527	31,96
699,971	32,6
700,414	33,21
700,857	33,96
701,3	34,59
701,743	35,16
702,186	35,61
702,629	36,72
703,072	37,1
703,515	37,24
703,957	38,47
704,399	38,77
704,842	39,25
705,284	40,03
705,726	40,47
706,168	41,1
706,61	41,65
707,052	42,2
707,494	42,83
707,935	43,46
708,377	43,54
708,818	43,92
709,26	44,69
709,701	45,06
710,142	45,39
710,583	46,06
711,024	46,2
711,465	46,92
711,905	47,03
712,346	47,74
712,787	47,81
713,227	48,48
713,667	49,63
714,108	49,44
714,548	50,02
714,988	50,35
715,428	50,78
715,868	50,73
716,307	51,96
716,747	52,04
717,186	52,51
717,626	52,49
718,065	52,7
718,504	53,4
718,944	54,06
719,383	54,1
719,822	54,45
720,261	54,6
720,699	55,28
721,138	55,58
721,576	55,37
722,015	56,12
722,453	56,16
722,892	56,44
723,33	56,72
723,768	57,51
724,206	57,29
724,644	57,74
725,081	58,15
725,519	58,15
725,957	58,4
726,394	58,81
726,832	58,55
727,269	59,48
727,706	59,26
728,143	59,74
728,58	59,77
729,017	60,07
729,454	59,95
729,89	60,34
730,327	60,72
730,764	60,37
731,2	61,17
731,636	61,08
732,072	61,17
732,509	61,38
732,945	61,54
733,38	61,33
733,816	61,54
734,252	61,8
734,688	61,81
735,123	61,95
735,559	61,7
735,994	61,88
736,429	62,5
736,864	61,81
737,299	62,17
737,734	62,52
738,169	62,67
738,604	62,91
739,038	62,48
739,473	62,58
739,907	62,86
740,342	62,39
740,776	63,04
741,21	62,51
741,644	62,42
742,078	62,84
742,512	62,76
742,946	62,85
743,379	62,41
743,813	63,32
744,246	62,74
744,68	62,54
745,113	63,21
745,546	63,28
745,979	63,09
746,412	62,75
746,845	63,24
747,278	62,98
747,711	63,18
748,143	62,81
748,576	63,07
749,008	63,14
749,441	63
749,873	62,79
750,305	62,65
750,737	62,5
751,169	62,99
751,601	62,78
752,032	62,54
752,464	62,57
752,896	62,54
753,327	62,74
753,758	61,97
754,19	62,35
754,621	62,52
755,052	62,35
755,483	62,46
755,914	62,03
756,344	62,18
756,775	62,14
757,206	62,03
757,636	61,96
758,066	61,91
758,497	62,18
758,927	62,1
759,357	62,03
759,787	61,82
760,217	61,62
760,647	62,05
761,076	61,86
761,506	61,8
761,935	61,64
762,365	61,65
762,794	61,97
763,223	61,51
763,653	61,36
764,082	61,84
764,51	61,37
764,939	61,57
765,368	61,21
765,797	61,35
766,225	61,06
766,654	60,98
767,082	61,5
767,51	61,14
767,938	61,08
768,367	60,88
768,795	61,14
769,222	61,01
769,65	60,68
770,078	60,5
770,505	60,71
770,933	60,92
771,36	60,76
771,788	60,65
772,215	61,04
772,642	60,83
773,069	60,75
773,496	60,67
773,923	60,37
774,349	60,39
774,776	60,7
775,203	60,31
775,629	60,32
776,055	60,67
776,482	60,47
776,908	60,26
777,334	60,47
777,76	60,18
778,186	60,25
778,611	59,9
779,037	59,66
779,463	59,71
779,888	60,16
780,314	60,38
780,739	60,48
781,164	60,32
781,589	59,69
782,014	60,34
782,439	59,85
782,864	59,79
783,289	59,74
783,713	59,51
784,138	59,94
784,562	59,61
784,987	59,97
785,411	60,08
785,835	59,74
786,259	60,05
786,683	59,69
787,107	59,7
787,531	59,82
787,954	59,95
788,378	59,56
788,802	60
789,225	59,34
789,648	59,59
790,071	59,75
790,495	59,18
790,918	59,74
791,34	59,53
791,763	59,82
792,186	59,57
792,609	59,32
793,031	59,33
793,454	59,52
793,876	59,85
794,298	59,82
794,721	59,37
795,143	59,87
795,565	59,48
795,986	59,21
796,408	59,54
796,83	59,58
797,252	59,25
797,673	59,41
798,094	59,43
798,516	59,36
798,937	59,56
799,358	60
799,779	59,33
800,2	59,56
800,621	58,89
801,042	59,31
801,462	58,87
801,883	59,24
802,303	59,75
802,724	59,11
803,144	59,48
803,564	58,64
803,984	59,43
804,404	59,23
804,824	59,01
805,244	59,57
805,664	59,34
806,084	59,01
806,503	59,43
806,923	59,34
807,342	58,98
807,761	59,71
808,18	59,32
808,599	59
809,018	59,38
809,437	59,34
809,856	58,85
810,275	59,32
810,693	58,92
811,112	58,82
811,53	58,35
811,949	59,01
812,367	58,81
812,785	59,07
813,203	59,18
813,621	58,94
814,039	58,86
814,457	58,92
814,874	59,02
815,292	59,29
815,709	58,96
816,127	59,62
816,544	58,93
816,961	58,98
817,378	58,68
817,795	59,48
818,212	59,07
818,629	58,86
819,046	58,81
819,462	59,19
819,879	59,4
820,295	59,34
820,712	58,54
821,128	58,7
821,544	58,93
821,96	58,5
822,376	58,45
822,792	58,85
823,208	58,99
823,624	58,61
824,039	58,68
824,455	59,06
824,87	59,09
825,286	58,13
825,701	58,84
826,116	59,2
826,531	58,57
826,946	58,61
827,361	59,27
827,776	58,93
828,19	58,33
828,605	58,86
829,02	58,89
829,434	58,58
829,848	58,53
830,263	58,85
830,677	58,47
831,091	58,73
831,505	58,76
831,919	58,93
832,332	58,41
832,746	58,33
833,16	58,43
833,573	58,75
833,987	58,97
834,4	58,32
834,813	58,52
835,226	58,54
835,639	58,41
836,052	58,42
836,465	58,67
836,878	58,62
837,29	58,66
837,703	58,39
838,116	58,48
838,528	58,71
838,94	58,71
839,352	58,76
839,765	58,57
840,177	58,25
840,589	58,42
841	58,57
841,412	58,52
841,824	58,3
842,235	58,28
842,647	58,24
843,058	58,76
843,47	58,55
843,881	58,23
844,292	57,9
844,703	58,83
845,114	58,28
845,525	58,56
845,935	58,26
846,346	59
846,757	58,5
847,167	58,48
847,577	58,33
847,988	59,19
848,398	58,4
848,808	58,57
849,218	58,02
849,628	58,09
850,038	58,44
850,448	58,17
850,857	58,41
851,267	58,37
851,676	58,5
852,086	58,58
852,495	58,11
852,904	58,18
853,313	58,31
853,722	58,87
854,131	58,81
854,54	58,01
854,949	57,96
855,357	58,34
855,766	58,79
856,174	58,12
856,583	58,28
856,991	58,2
857,399	58,24
857,807	57,95
858,215	58,61
858,623	58,36
859,031	58,57
859,439	58,08
859,846	57,51
860,254	58,53
860,661	57,98
861,069	57,77
861,476	58,41
861,883	57,74
862,29	58,3
862,697	57,69
863,104	58,18
863,511	57,8
863,918	58,75
864,325	58,7
864,731	58,4
865,138	58,21
865,544	57,98
865,95	57,9
866,357	58,06
866,763	58,38
867,169	57,95
867,575	58,63
867,98	57,74
868,386	58,26
868,792	58,7
869,197	57,81
869,603	57,93
870,008	58,11
870,414	58,13
870,819	57,88
871,224	58,38
871,629	57,9
872,034	58,08
872,439	57,96
872,844	58,6
873,248	58,75
873,653	58,08
874,057	58,3
874,462	57,64
874,866	57,9
875,27	58,47
875,674	57,27
876,078	57,57
876,482	58,21
876,886	57,87
877,29	58,48
877,694	58,03
878,097	57,68
878,501	57,35
878,904	58,06
879,308	57,79
879,711	58,2
880,114	58,08
880,517	58,25
880,92	58,02
881,323	57,8
881,726	57,96
882,128	57,74
882,531	58,21
882,934	57,88
883,336	57,7
883,738	57,91
884,141	58,37
884,543	57,92
884,945	57,58
885,347	57,23
885,749	58,15
886,151	57,47
886,552	57,97
886,954	58,02
887,355	57,75
887,757	58,17
888,158	57,8
888,56	57,57
888,961	57,97
889,362	57,73
889,763	57,97
890,164	57,48
890,565	58,1
890,965	57,65
891,366	57,86
891,767	57,87
892,167	58,44
892,567	57,77
892,968	57,77
893,368	57,88
893,768	58,04
894,168	57,96
894,568	57,56
894,968	57,37
895,368	58,01
895,767	57,93
896,167	58,14
896,566	58,58
896,966	57,75
897,365	57,86
897,764	57,85
898,164	57,98
898,563	57,98
898,962	57,74
899,361	58,15
899,759	57,24
900,158	57,95
900,557	57,95
900,955	57,51
901,354	57,72
901,752	58
902,15	58,08
902,548	57,85
902,947	57,82
903,345	57,47
903,742	58,47
904,14	57,74
904,538	57,86
904,936	57,7
905,333	57,57
905,731	57,88
906,128	57,56
906,525	58,09
906,923	57,8
907,32	58,03
907,717	57,88
908,114	58,09
908,511	57,29
908,907	57,48
909,304	58,1
909,701	58,27
910,097	57,36
910,494	57,88
910,89	57,82
911,286	58,27
911,682	57,23
912,078	57,57
912,474	56,95
912,87	58,98
913,266	58,18
913,662	57,98
914,058	57,76
914,453	58,24
914,849	57,46
915,244	58,48
915,639	57,58
916,034	57,78
916,43	58,07
916,825	58,15
917,22	57,36
917,614	57,57
918,009	57,77
918,404	57,51
918,798	57,93
919,193	57,82
919,587	57,66
919,982	57,8
920,376	58,43
920,77	57,93
921,164	58,34
921,558	57,5
921,952	58,08
922,346	58,03
922,74	57,77
923,133	57,48
923,527	57,81
923,92	57,52
924,314	57,67
924,707	57,78
925,1	57,54
925,493	56,97
925,886	57,92
926,279	57,85
926,672	56,9
927,065	57,44
927,457	57,89
927,85	57,54
928,243	57,34
928,635	58,11
929,027	56,92
929,42	57,51
929,812	57,8
930,204	58,13
930,596	57,51
930,988	56,39
931,379	57,36
931,771	57,1
932,163	57,56
932,554	57,04
932,946	57,7
933,337	56,92
933,729	57,52
934,12	56,6
934,511	57,55
934,902	57,13
935,293	56,65
935,684	57,52
936,075	56,87
936,465	57,59
936,856	57,46
937,246	57,08
937,637	56,85
938,027	56,91
938,417	56,09
938,808	56,93
939,198	56,98
939,588	57,06
939,978	56,47
940,368	56,12
940,757	57,64
941,147	56,99
941,537	56,33
941,926	57,63
942,315	58,07
942,705	58,14
943,094	58,25
943,483	56,92
943,872	57,13
944,261	57,36
944,65	56,21
945,039	58,27
945,428	57,31
945,816	57,24
946,205	56,77
946,593	57,31
946,982	56,48
947,37	56,38
947,758	56,85
948,146	56,08
948,534	56,33
948,922	57,36
949,31	56,19
949,698	56,45
950,086	56,78
950,473	56,54
950,861	56,11
951,248	55,99
951,636	56,86
952,023	57,48
952,41	55,61
952,797	56,22
953,184	55,61
953,571	56,55
953,958	56,16
954,345	55,82
954,731	56,55
955,118	56,2
955,505	55,55
955,891	57,13
956,277	55,35
956,664	56,28
957,05	56,56
957,436	55,45
957,822	55,14
958,208	55,66
958,594	55,62
958,979	55,27
959,365	56,11
959,751	56,31
960,136	55,51
960,522	56,7
960,907	55,62
961,292	56,11
961,677	55,26
962,062	55,39
962,447	55,92
962,832	55,06
963,217	55,99
963,602	54,84
963,986	55,14
964,371	54,57
964,756	55,47
965,14	54,91
965,524	55,51
965,908	55,76
966,293	55,67
966,677	55,45
967,061	55,79
967,445	55,07
967,828	55,02
968,212	54,9
968,596	55,84
968,979	55,22
969,363	54,75
969,746	55,62
970,129	55,72
970,513	55,2
970,896	55,76
971,279	55,66
971,662	55,25
972,045	55,53
972,428	55,71
972,81	55,99
973,193	55,57
973,575	55,67
973,958	54,79
974,34	55,84
974,723	55,66
975,105	56,11
975,487	55,32
975,869	55,87
976,251	54,97
976,633	56,18
977,015	56,09
977,396	55,08
977,778	56,61
978,16	55,48
978,541	55,69
978,922	55,79
979,304	55,37
979,685	55,72
980,066	55,56
980,447	56,08
980,828	55,18
981,209	55,64
981,59	55,89
981,97	54,98
982,351	55,74
982,732	56,39
983,112	55,76
983,493	55,87
983,873	55,49
984,253	55,57
984,633	55,16
985,013	55,83
985,393	55,19
985,773	55,9
986,153	55,69
986,533	55,24
986,912	56,3
987,292	55,02
987,671	55,16
988,051	56,04
988,43	56,37
988,809	55,63
989,188	55,55
989,567	55,49
989,946	55,04
990,325	55,44
990,704	55,95
991,083	55,48
991,461	55,82
991,84	55,61
992,218	56,23
992,597	56,72
992,975	56,41
993,353	55,97
993,732	56,41
994,11	56,44
994,488	55,18
994,866	56,1
995,243	56,34
995,621	55,85
995,999	55,18
996,376	55,62
996,754	56,18
997,131	57
997,509	55,96
997,886	55,97
998,263	56,33
998,64	56,33
999,017	55,51
999,394	56,57
999,771	56,07
1000,148	56,5
1000,524	55,62
1000,901	56,29
1001,277	54,94
1001,654	56,37
1002,03	56,04
1002,406	56,16
1002,783	56,82
1003,159	55,64
1003,535	56,34
1003,911	55,27
1004,286	56,08
1004,662	56,22
1005,038	57,35
1005,414	55,26
1005,789	55,99
1006,164	56,7
1006,54	55,25
1006,915	56,51
1007,29	56,21
1007,665	56,71
1008,04	56,04
1008,415	56,76
1008,79	55,65
1009,165	55,6
1009,54	56,31
1009,914	56,17
1010,289	55,81
1010,663	56,2
1011,038	56,91
1011,412	57,34
1011,786	57,03
1012,16	57,1
1012,535	56,84
1012,909	56,35
1013,282	56,84
1013,656	56,87
1014,03	55,76
1014,404	56,09
1014,777	56,44
1015,151	58,22
1015,524	55,87
1015,897	56,8
1016,271	56,56
1016,644	56,54
1017,017	56,85
1017,39	57,04
1017,763	56,57
1018,136	57,38
1018,508	57,27
1018,881	56,85
1019,254	55,66
1019,626	56,79
1019,999	57,01
1020,371	57,05
1020,743	57,79
1021,116	56,32
1021,488	56,47
1021,86	57,67
1022,232	58,36
1022,604	57,17
1022,975	56,84
1023,347	57,68
1023,719	57,5
1024,09	56,22
1024,462	56,41
1024,833	56,39
1025,204	57,51
1025,576	56,74
1025,947	56,54
1026,318	57,08
1026,689	55,84
1027,06	57,7
1027,431	57,2
1027,801	57,16
1028,172	57,12
1028,543	56,18
1028,913	57,33
1029,284	57,44
1029,654	57,47
1030,024	56,71
1030,394	57,8
1030,764	57,56
1031,135	56,35
1031,504	58,12
1031,874	57,97
1032,244	56,84
1032,614	56,85
1032,983	57,4
1033,353	57,68
1033,722	56,59
1034,092	58,22
1034,461	57,5
1034,83	57,35
1035,2	57,59
1035,569	57,34
1035,938	57,73
1036,307	56,95
1036,675	57,58
1037,044	58,9
1037,413	58,02
1037,781	57,68
1038,15	58,03
1038,518	58,11
1038,887	57,72
1039,255	57,95
1039,623	57,33
1039,991	56,74
1040,359	57,64
1040,727	58,56
1041,095	56,65
1041,463	59,44
1041,831	59,06
1042,198	57,98
1042,566	57,39
1042,933	58,24
1043,301	58,12
1043,668	57,15
1044,035	57,72
1044,402	58,11
1044,77	57,78
1045,137	56,85
1045,503	56,95
1045,87	57,29
1046,237	58,01
1046,604	57,85
1046,97	57,68
1047,337	58,35
1047,703	58,3
1048,07	56,87
1048,436	57,81
1048,802	58,21
1049,168	58,56
1049,534	59,38
1049,9	59,88
1050,266	58,1
1050,632	59,51
1050,998	59,06
1051,364	57,55
1051,729	58,31
1052,095	56,92
1052,46	58,26
1052,825	59,85
1053,191	58,42
1053,556	56,86
1053,921	58,07
1054,286	58,47
1054,651	59,06
1055,016	59,69
1055,381	58,06
1055,745	57,23
1056,11	57,22
1056,475	60,24
1056,839	59,83
1057,203	57,32
1057,568	58,16
1057,932	57,42
1058,296	58,95
1058,66	58,21
1059,024	58,54
1059,388	59,12
1059,752	56,63
1060,116	57,93
1060,48	56,67
1060,843	58,73
1061,207	59,93
1061,57	56,49
1061,934	58,04
1062,297	59,15
1062,66	60,96
1063,023	59,11
1063,386	58,9
1063,749	61,11
1064,112	58,59
1064,475	59,53
1064,838	60,51
1065,201	58,57
1065,563	58,42
1065,926	58,96
1066,288	58,49
1066,651	59,11
1067,013	59,39
1067,375	59,4
1067,737	61,23
1068,099	57,22
1068,461	58,85
1068,823	58,85
1069,185	59,76
1069,547	61,59
1069,909	61,08
1070,27	61,27
1070,632	57,56
1070,993	59,48
1071,355	57,94
1071,716	57,04
1072,077	57,76
1072,438	61,44
1072,799	58,17
1073,16	57,95
1073,521	57,72
1073,882	55,6
1074,243	58,82
1074,603	59,18
1074,964	59,07
1075,325	58,14
1075,685	58,07
1076,045	60,54
1076,406	60,03
1076,766	60,74
1077,126	57,82
1077,486	58,48
1077,846	59,66
1078,206	58,88
1078,566	58,7
1078,925	60,33
1079,285	57,67
1079,645	58,63
1080,004	60,75
1080,364	60,51
1080,723	58,14
1081,082	58,34
1081,442	58,63
1081,801	63,3
1082,16	58,32
1082,519	60,45
1082,878	59,99
1083,237	58,41
1083,595	59,6
1083,954	62,29
1084,313	63,68
1084,671	60,71
1085,03	59,85
1085,388	57,75
1085,746	60,27
1086,104	57,73
1086,463	59,47
1086,821	61,13
1087,179	60,41
1087,537	60,55
1087,894	60,19
1088,252	59,55
1088,61	60,52
1088,967	60,57
1089,325	59,97
1089,682	61,14
1090,04	56,72
1090,397	61,25
1090,754	57,95
1091,111	59,9
1091,469	59,7
1091,826	59,87
1092,182	59,09
1092,539	60,9
1092,896	59,97
1093,253	62
1093,609	58,9
1093,966	58,12
1094,322	64,1
1094,679	62,35
1095,035	60,51
1095,391	59,35
1095,748	59,13
1096,104	57,8
1096,46	62,79
1096,816	64,5
1097,171	63,5
1097,527	60,47
1097,883	57,5
1098,239	63,61
1098,594	63,22
1098,95	58,08
1099,305	65,11
1099,66	60,27
1100,016	58,54
1100,371	61,96
1100,726	61,16
1101,081	58,54
1101,436	61,1
1101,791	60,83
1102,146	59,67
1102,5	60,55
1102,855	63,44
1103,21	64,55
1103,564	60,47
1103,918	63,15
1104,273	60,08
1104,627	58,13
1104,981	60,48
1105,335	60,26
1105,69	62,79
1106,043	61,23
1106,397	63,38
1106,751	64,97
1107,105	59,37
1107,459	56,5
1107,812	63,3
1108,166	59,86
1108,519	60,89
1108,873	62,74
1109,226	66,17
1109,579	65,27
1109,932	62,55
1110,285	66,22
1110,638	66,48
1110,991	64,76
1111,344	63,81
1111,697	63,76
1112,05	69,48
1112,402	61,39
1112,755	59,33
1113,107	64,64
1113,46	61,99
1113,812	64,15
1114,164	64,35
1114,517	62,83
1114,869	108,45
1115,221	118,67
1115,573	120,83
1115,924	107,23
