Data from C_4_Relative__3__00046.txt Node

Date: Tue Jan 30 09:53:23 CET 2024
User: diatiterra
Spectrometer: HDX00911
Trigger mode: 0
Integration Time (sec): 6,000000E-3
Scans to average: 2
Nonlinearity correction enabled: false
Boxcar width: 0
Storing dark spectrum: false
XAxis mode: Wavelengths
Number of Pixels in Spectrum: 2068
>>>>>Begin Spectral Data<<<<<
194,468	119,57
195,025	104,49
195,581	100
196,138	98,88
196,694	79,05
197,251	97,76
197,807	73,3
198,363	85,37
198,919	91,67
199,474	84,18
200,03	76,54
200,586	89,87
201,141	88,75
201,696	85,9
202,251	91,41
202,806	93,53
203,361	87,73
203,916	79,62
204,471	88,03
205,025	94,52
205,58	81,94
206,134	83,85
206,688	77,4
207,242	86,62
207,796	75,45
208,35	91,25
208,904	76,83
209,457	84,3
210,011	76,83
210,564	81,51
211,117	83,73
211,67	80,26
212,223	94,08
212,776	97,08
213,329	82,04
213,881	91,22
214,434	79,88
214,986	86,62
215,538	87,65
216,09	93,41
216,642	90,85
217,194	88,82
217,746	89,87
218,297	78,21
218,849	89,09
219,4	86,42
219,951	81,55
220,502	103,37
221,053	88,76
221,604	94,12
222,155	97,93
222,705	94,7
223,256	84
223,806	84,15
224,356	100
224,906	87,04
225,456	78,66
226,006	73,65
226,556	83,89
227,106	105,15
227,655	92,09
228,204	75,64
228,754	87,65
229,303	94,63
229,852	94,94
230,401	87,42
230,949	103,95
231,498	106,52
232,047	91,91
232,595	79,89
233,143	85,38
233,691	83,67
234,239	86,26
234,787	97,33
235,335	101,46
235,883	100,69
236,43	91,67
236,978	89,31
237,525	87,04
238,072	87,59
238,619	91,6
239,166	89,47
239,713	88,39
240,26	86,67
240,806	90,48
241,353	77,65
241,899	84,57
242,445	96
242,991	89,94
243,537	86
244,083	86,18
244,629	93,84
245,174	89,02
245,72	71,28
246,265	75,78
246,81	93,63
247,355	98,83
247,9	89,88
248,445	98,45
248,99	93,43
249,534	103,03
250,079	104,51
250,623	96,77
251,168	101,78
251,712	79,26
252,256	104,58
252,8	90,85
253,343	86,71
253,887	70,65
254,43	82,8
254,974	102,92
255,517	91,91
256,06	101,64
256,603	92,68
257,146	100
257,689	82,24
258,232	103,82
258,774	118,85
259,317	102,84
259,859	91,72
260,401	105,74
260,943	94,04
261,485	104,31
262,027	87,42
262,569	89,26
263,11	95,77
263,652	82,76
264,193	88,73
264,734	99,31
265,275	102,72
265,816	93,48
266,357	112,77
266,898	87,26
267,438	91,61
267,979	96,92
268,519	85,62
269,059	107,14
269,6	86,45
270,14	86,33
270,68	100
271,219	85,23
271,759	102,34
272,298	85,8
272,838	95,54
273,377	100
273,916	93,12
274,455	90,28
274,994	94,12
275,533	80,95
276,072	88,08
276,61	89,17
277,149	100,7
277,687	97,58
278,225	101,65
278,763	96,95
279,301	90,68
279,839	98,06
280,377	88,97
280,914	90,62
281,452	84,57
281,989	84,94
282,526	81,76
283,064	117,36
283,601	83,14
284,137	91,24
284,674	87,01
285,211	99,21
285,747	97,01
286,284	79,63
286,82	98,61
287,356	87,41
287,892	74,17
288,428	86,01
288,964	90,57
289,5	92,48
290,035	115,87
290,571	94,41
291,106	126,53
291,641	103,33
292,176	95,86
292,711	93,84
293,246	105,84
293,781	102,24
294,315	93,55
294,85	107,43
295,384	100
295,918	88,27
296,453	81,65
296,987	110,71
297,52	84,67
298,054	77,85
298,588	93,85
299,121	96,06
299,655	84,14
300,188	95,65
300,721	93,2
301,254	92,25
301,787	98,29
302,32	103,76
302,853	87,79
303,385	78,71
303,918	103,42
304,45	93,88
304,982	89,47
305,514	91,77
306,046	98,59
306,578	97,81
307,11	85,8
307,641	71,61
308,173	73,75
308,704	77,35
309,236	79,22
309,767	86,9
310,298	77,14
310,829	86,67
311,359	76,4
311,89	93,24
312,421	86,52
312,951	81,94
313,481	78,57
314,012	82,42
314,542	93,5
315,072	88,03
315,601	100,71
316,131	90,3
316,661	89,63
317,19	96,09
317,72	83,67
318,249	104,51
318,778	88,17
319,307	88,61
319,836	84,52
320,365	75,51
320,893	85,06
321,422	92,59
321,95	83,44
322,479	97,12
323,007	78,81
323,535	85,25
324,063	101,96
324,591	96,86
325,118	87,3
325,646	99,26
326,173	87,6
326,701	99,33
327,228	78,95
327,755	74,81
328,282	97,9
328,809	95,42
329,336	78,12
329,862	98,31
330,389	79,88
330,915	90,85
331,441	81,72
331,968	97,08
332,494	82,78
333,02	88,95
333,545	75,93
334,071	74,03
334,597	82,47
335,122	99,29
335,648	73,41
336,173	82,8
336,698	83,33
337,223	92,09
337,748	94,19
338,272	77,02
338,797	82,86
339,322	83,75
339,846	75,74
340,37	77,56
340,894	99,37
341,419	96,58
341,942	73,26
342,466	70,07
342,99	93,04
343,514	81,97
344,037	79,55
344,56	69,49
345,084	83,12
345,607	84,53
346,13	77,65
346,653	88,74
347,175	79,31
347,698	79,89
348,221	86,88
348,743	77,78
349,265	80,46
349,787	74,03
350,309	80
350,831	79,23
351,353	78,66
351,875	83,78
352,397	74,88
352,918	83,92
353,439	88,82
353,961	75,74
354,482	80,39
355,003	91,47
355,524	85,22
356,044	70,1
356,565	78,2
357,086	74,89
357,606	80,63
358,126	80,88
358,646	65,22
359,167	68,35
359,687	68,89
360,206	75,74
360,726	76,89
361,246	72,06
361,765	78,4
362,285	78,95
362,804	76,96
363,323	78,02
363,842	73,06
364,361	70,56
364,88	79,27
365,398	77
365,917	76,47
366,435	74,49
366,954	66,94
367,472	59,92
367,99	70,72
368,508	71,97
369,026	67,81
369,544	64,34
370,061	61,75
370,579	72,39
371,096	67,35
371,613	65,93
372,131	66,55
372,648	66,11
373,165	70,42
373,681	67,43
374,198	59,75
374,715	71
375,231	70,03
375,747	72
376,264	68,14
376,78	67,18
377,296	68,87
377,812	57,23
378,327	65,88
378,843	60,06
379,359	60,56
379,874	56,56
380,389	55,59
380,905	70,45
381,42	60,57
381,935	61,84
382,449	57,78
382,964	58,29
383,479	51,35
383,993	59,9
384,508	56,16
385,022	60,91
385,536	56,71
386,05	59,07
386,564	52,71
387,078	56,39
387,592	53,85
388,105	49,43
388,619	52,56
389,132	49,4
389,645	50,36
390,158	54,46
390,671	54,38
391,184	48,3
391,697	47,6
392,21	45,64
392,722	46,57
393,235	48,17
393,747	44,55
394,259	42,34
394,771	48,05
395,283	45,49
395,795	46,78
396,307	42,57
396,818	50
397,33	45,34
397,841	43,53
398,353	42,33
398,864	43,01
399,375	41,89
399,886	41,55
400,397	42,98
400,907	37,76
401,418	42,38
401,928	39,81
402,439	37,45
402,949	37,68
403,459	37,79
403,969	35,71
404,479	37,1
404,989	38,28
405,498	31,28
406,008	34,02
406,517	33,37
407,027	30,96
407,536	32,7
408,045	30,73
408,554	30,41
409,063	29,88
409,572	26,49
410,08	27,51
410,589	26,35
411,097	27,71
411,606	25,86
412,114	24,06
412,622	23,46
413,13	24,89
413,638	22,86
414,145	23,86
414,653	20,92
415,16	23,1
415,668	23,23
416,175	20,39
416,682	19,39
417,189	22,19
417,696	19,93
418,203	19,94
418,71	18,85
419,216	18,72
419,723	18,79
420,229	19,11
420,735	18,74
421,242	18,29
421,748	18,45
422,254	19,5
422,759	18,71
423,265	17,23
423,771	17,42
424,276	17,63
424,781	17,78
425,287	17,64
425,792	16,63
426,297	16,97
426,802	17,48
427,306	17,05
427,811	17,75
428,316	17,38
428,82	17,58
429,324	16,91
429,829	17,08
430,333	17,01
430,837	16,38
431,34	17,08
431,844	16,72
432,348	16,49
432,851	17,12
433,355	15,45
433,858	17,1
434,361	16,98
434,864	16,14
435,367	16,7
435,87	15,96
436,373	16,87
436,876	15,73
437,378	15,47
437,88	15,52
438,383	16,51
438,885	16,79
439,387	16,06
439,889	16,07
440,391	15,61
440,892	15,46
441,394	16,46
441,896	16,71
442,397	15,5
442,898	16,65
443,399	15,88
443,9	15,78
444,401	16,01
444,902	15,29
445,403	16,08
445,903	15,64
446,404	15,99
446,904	15,91
447,405	16,12
447,905	16,14
448,405	16,59
448,905	17,05
449,404	16,67
449,904	16,44
450,404	16,45
450,903	17,05
451,403	15,76
451,902	16,88
452,401	15,91
452,9	16,35
453,399	16,35
453,898	16,78
454,396	16,86
454,895	16,83
455,393	17,23
455,892	16,83
456,39	16,72
456,888	16,74
457,386	16,81
457,884	16,91
458,382	16,87
458,879	17,07
459,377	17,08
459,874	16,95
460,372	17,44
460,869	17,2
461,366	16,71
461,863	17,32
462,36	16,72
462,857	16,92
463,353	17,16
463,85	16,94
464,346	16,82
464,843	17,55
465,339	17,57
465,835	16,92
466,331	16,72
466,827	16,65
467,323	16,74
467,818	17,02
468,314	16,57
468,809	16,48
469,305	17,13
469,8	16,79
470,295	17,6
470,79	17,13
471,285	17,11
471,78	16,75
472,274	17,34
472,769	17,55
473,263	16,69
473,758	17,25
474,252	16,47
474,746	17,25
475,24	17
475,734	16,82
476,228	16,73
476,721	17,13
477,215	17,45
477,708	17,02
478,202	17,6
478,695	16,68
479,188	17,13
479,681	17,08
480,174	17,21
480,667	17,61
481,159	16,82
481,652	17,29
482,144	16,96
482,637	16,98
483,129	16,91
483,621	17,79
484,113	17,27
484,605	17,65
485,097	16,86
485,588	17,29
486,08	17,5
486,571	17,21
487,063	18,04
487,554	17,46
488,045	17,61
488,536	17,76
489,027	18,22
489,518	17,58
490,008	18,09
490,499	18,25
490,989	19,06
491,48	18,14
491,97	18,28
492,46	18,38
492,95	18,23
493,44	18,32
493,93	18,69
494,419	18,9
494,909	18,93
495,398	19,29
495,888	18,63
496,377	19,18
496,866	19,4
497,355	19,27
497,844	19,57
498,333	19,45
498,821	20,34
499,31	20,59
499,798	20,21
500,287	20,71
500,775	20,7
501,263	21,09
501,751	21,69
502,239	21,37
502,727	21,64
503,215	21,73
503,702	21,85
504,19	22,37
504,677	22,62
505,164	22,97
505,651	23,18
506,139	23,34
506,625	23,39
507,112	24,19
507,599	23,97
508,086	24,74
508,572	24,67
509,058	26,02
509,545	25,35
510,031	26,05
510,517	26,7
511,003	26,51
511,489	27,39
511,974	27,06
512,46	27,78
512,946	28,05
513,431	27,96
513,916	28,6
514,401	29,21
514,887	30,08
515,371	29,43
515,856	30,61
516,341	31,4
516,826	31,25
517,31	31,76
517,795	31,93
518,279	31,54
518,763	33,48
519,247	33,08
519,731	33,37
520,215	33,82
520,699	35,06
521,182	34,91
521,666	34,95
522,149	35,77
522,633	35,76
523,116	36,16
523,599	36,37
524,082	37,06
524,565	37,15
525,048	38,03
525,53	38,3
526,013	38,2
526,495	39,57
526,978	39,11
527,46	39,93
527,942	40,06
528,424	39,95
528,906	40,51
529,388	40,57
529,87	40,23
530,351	41,44
530,833	41,87
531,314	42,62
531,795	42,13
532,277	42,07
532,758	41,97
533,238	42,3
533,719	42,35
534,2	43,53
534,681	42,98
535,161	42,66
535,642	42,77
536,122	43,27
536,602	43,33
537,082	43,34
537,562	43,35
538,042	43,26
538,522	44,23
539,001	43,45
539,481	44,31
539,96	43,94
540,44	44,69
540,919	44,7
541,398	44,18
541,877	44,13
542,356	44,34
542,835	44,03
543,313	44,04
543,792	44,29
544,27	44,94
544,749	44,84
545,227	44,18
545,705	45,22
546,183	44,92
546,661	44,49
547,139	44,51
547,616	44,25
548,094	45,31
548,571	45,31
549,049	45,48
549,526	45,25
550,003	45,6
550,48	45,13
550,957	45,09
551,434	45,29
551,911	45,93
552,387	45,68
552,864	45,46
553,34	45,84
553,817	45,52
554,293	45,51
554,769	45,47
555,245	45,9
555,721	44,85
556,197	45,28
556,672	46,16
557,148	44,77
557,623	44,88
558,099	45,44
558,574	45,58
559,049	45,4
559,524	44,58
559,999	45,21
560,474	45,45
560,948	44,81
561,423	44,7
561,897	44,59
562,372	44,28
562,846	44,26
563,32	44,03
563,794	44,43
564,268	43,56
564,742	43,68
565,216	43,86
565,69	43,86
566,163	43,48
566,636	43,49
567,11	43,31
567,583	43,16
568,056	43,34
568,529	42,95
569,002	42,35
569,475	41,8
569,947	42,38
570,42	41,84
570,892	41,5
571,365	41,23
571,837	41,83
572,309	40,36
572,781	40,46
573,253	40,15
573,725	39,82
574,197	40,22
574,668	39,95
575,14	39,66
575,611	39,47
576,082	39,69
576,554	39,29
577,025	38,98
577,496	38,86
577,967	38,45
578,437	38,72
578,908	38,25
579,379	37,8
579,849	37,94
580,319	38,07
580,79	37,65
581,26	37,41
581,73	37,58
582,2	36,94
582,669	37,42
583,139	37,06
583,609	36,32
584,078	36,4
584,548	36,53
585,017	36,27
585,486	36,27
585,955	36,06
586,424	35,57
586,893	35,46
587,362	35,65
587,83	35,64
588,299	35,54
588,767	35,17
589,236	35,39
589,704	35,39
590,172	34,91
590,64	35,36
591,108	34,74
591,576	34,78
592,043	34,76
592,511	34,84
592,978	34,69
593,446	34,55
593,913	34,56
594,38	34,48
594,847	34,01
595,314	34,32
595,781	34,58
596,248	34,01
596,715	34,18
597,181	33,54
597,647	34,33
598,114	33,96
598,58	33,98
599,046	34,24
599,512	34,27
599,978	33,8
600,444	33,85
600,91	33,82
601,375	33,98
601,841	33,95
602,306	33,51
602,771	33,51
603,236	32,98
603,702	33,58
604,167	32,84
604,631	33,67
605,096	33,08
605,561	32,72
606,025	32,9
606,49	32,9
606,954	32,49
607,418	32,54
607,882	32,42
608,347	32,42
608,81	32,23
609,274	32,18
609,738	31,94
610,202	31,48
610,665	31,7
611,128	31,36
611,592	31,71
612,055	31,61
612,518	31,65
612,981	31,51
613,444	31,2
613,907	30,96
614,369	30,54
614,832	30,64
615,294	30,32
615,757	30,17
616,219	30,21
616,681	30,33
617,143	30,03
617,605	29,96
618,067	29,76
618,529	29,24
618,99	29,7
619,452	29,33
619,913	29,72
620,375	29,21
620,836	29,67
621,297	29,62
621,758	29,09
622,219	28,89
622,68	29,13
623,14	28,82
623,601	28,65
624,061	29,06
624,522	28,84
624,982	28,4
625,442	28,5
625,902	28,66
626,362	28,61
626,822	28,78
627,282	28,7
627,742	28,4
628,201	28,3
628,661	28,63
629,12	28,21
629,579	28,26
630,038	28,56
630,497	28,24
630,956	28,19
631,415	28,26
631,874	27,89
632,332	28,4
632,791	28,06
633,249	27,82
633,708	28,1
634,166	28,01
634,624	27,79
635,082	27,69
635,54	27,45
635,998	27,36
636,455	27,68
636,913	27,5
637,37	27,12
637,828	27,23
638,285	27,18
638,742	26,57
639,199	26,68
639,656	26,25
640,113	26,46
640,57	26,07
641,027	26,12
641,483	25,61
641,94	25,34
642,396	25,54
642,852	24,83
643,309	24,85
643,765	24,72
644,221	24,18
644,676	24,26
645,132	24,07
645,588	23,79
646,043	23,72
646,499	23,63
646,954	23,42
647,409	23,01
647,864	22,99
648,319	22,62
648,774	22,44
649,229	22,42
649,684	22,62
650,139	22,77
650,593	22,4
651,047	21,99
651,502	22,04
651,956	21,86
652,41	22,08
652,864	22,04
653,318	21,69
653,772	21,42
654,225	21,71
654,679	21,15
655,133	21,39
655,586	21,18
656,039	21,23
656,492	21,27
656,946	20,89
657,399	20,69
657,851	20,72
658,304	20,8
658,757	20,39
659,209	20,16
659,662	20,29
660,114	19,67
660,567	19,88
661,019	19,65
661,471	19,59
661,923	19,23
662,375	19,05
662,826	19,21
663,278	18,86
663,73	18,83
664,181	18,77
664,632	18,5
665,084	18,42
665,535	18,23
665,986	18,21
666,437	18,14
666,888	18,23
667,338	17,83
667,789	17,93
668,24	17,95
668,69	17,64
669,14	17,44
669,591	17,47
670,041	17,39
670,491	17,68
670,941	17,82
671,391	17,38
671,84	17,33
672,29	17,61
672,74	17,46
673,189	17,82
673,638	17,63
674,088	17,67
674,537	17,87
674,986	17,99
675,435	18,02
675,883	18,29
676,332	17,97
676,781	18,13
677,229	18,18
677,678	18,37
678,126	18,39
678,574	18,78
679,022	19
679,47	18,77
679,918	18,89
680,366	19,03
680,814	19,41
681,261	19,6
681,709	19,76
682,156	19,85
682,604	20,09
683,051	20,27
683,498	20,33
683,945	20,84
684,392	20,78
684,839	21,18
685,286	21,36
685,732	21,75
686,179	22,06
686,625	22,42
687,071	22,85
687,518	22,85
687,964	23,37
688,41	23,86
688,856	24,33
689,301	24,91
689,747	25,23
690,193	26,07
690,638	26,44
691,084	27,24
691,529	27,61
691,974	28,28
692,419	28,85
692,864	29,64
693,309	30,52
693,754	31,07
694,199	31,51
694,643	32,19
695,088	33,21
695,532	33,89
695,977	34,6
696,421	35,44
696,865	35,9
697,309	36,68
697,753	37,25
698,197	38,19
698,64	38,59
699,084	39,49
699,527	40,22
699,971	40,17
700,414	41,17
700,857	41,88
701,3	42,34
701,743	43,31
702,186	43,65
702,629	44,02
703,072	45,01
703,515	44,83
703,957	46,18
704,399	46,65
704,842	46,89
705,284	47,61
705,726	47,76
706,168	48,43
706,61	49,14
707,052	49,55
707,494	50,36
707,935	51,01
708,377	50,72
708,818	51,35
709,26	51,49
709,701	52,26
710,142	52,73
710,583	53,03
711,024	53,46
711,465	54,09
711,905	54,13
712,346	54,65
712,787	54,81
713,227	55,45
713,667	56,21
714,108	56,01
714,548	56,58
714,988	57,4
715,428	56,65
715,868	57,55
716,307	58,06
716,747	58,22
717,186	58,74
717,626	58,84
718,065	59,07
718,504	59,38
718,944	60,02
719,383	59,93
719,822	60,2
720,261	60,58
720,699	61,39
721,138	61,65
721,576	61,13
722,015	62,18
722,453	61,55
722,892	62,26
723,33	62,48
723,768	63,01
724,206	62,59
724,644	63
725,081	63,86
725,519	63,66
725,957	63,68
726,394	63,69
726,832	64,44
727,269	64,51
727,706	64,67
728,143	64,3
728,58	64,69
729,017	65,19
729,454	64,62
729,89	64,96
730,327	65,35
730,764	65,64
731,2	65,7
731,636	65,63
732,072	65,32
732,509	65,54
732,945	66,2
733,38	65,97
733,816	66,2
734,252	66,23
734,688	66,46
735,123	66,5
735,559	66,3
735,994	66,68
736,429	66,69
736,864	66,42
737,299	66,48
737,734	66,54
738,169	67,17
738,604	66,88
739,038	67,02
739,473	66,85
739,907	67,45
740,342	66,68
740,776	67,19
741,21	66,64
741,644	66,94
742,078	67,23
742,512	67,41
742,946	67,09
743,379	66,98
743,813	67,54
744,246	67,25
744,68	67,03
745,113	67,25
745,546	67,33
745,979	67,14
746,412	67,29
746,845	67,08
747,278	67,28
747,711	67,34
748,143	67,15
748,576	67,32
749,008	67,41
749,441	66,84
749,873	66,99
750,305	66,54
750,737	66,64
751,169	66,79
751,601	66,82
752,032	66,43
752,464	66,72
752,896	66,74
753,327	66,71
753,758	66,81
754,19	66,25
754,621	67,13
755,052	66,42
755,483	66,34
755,914	66,68
756,344	66,21
756,775	66,74
757,206	66,26
757,636	66,22
758,066	66,35
758,497	66,76
758,927	66,23
759,357	66,66
759,787	65,93
760,217	66,43
760,647	66,28
761,076	66,42
761,506	66,35
761,935	66,24
762,365	66,29
762,794	65,58
763,223	66,19
763,653	65,56
764,082	66,55
764,51	65,75
764,939	66,11
765,368	65,31
765,797	65,74
766,225	65,57
766,654	65,9
767,082	65,65
767,51	65,87
767,938	65,73
768,367	65,51
768,795	65,74
769,222	65,81
769,65	65,32
770,078	65,17
770,505	65,67
770,933	65,84
771,36	65,48
771,788	65,26
772,215	65,43
772,642	65,21
773,069	65,51
773,496	65,22
773,923	65,43
774,349	65,25
774,776	65,4
775,203	65,52
775,629	65,43
776,055	65,18
776,482	65,45
776,908	65,42
777,334	65,44
777,76	64,96
778,186	64,76
778,611	65,45
779,037	64,08
779,463	64,84
779,888	64,56
780,314	65,32
780,739	65,49
781,164	65,22
781,589	65
782,014	65,09
782,439	64,7
782,864	65,06
783,289	64,86
783,713	64,48
784,138	64,92
784,562	64,75
784,987	64,86
785,411	65,11
785,835	64,89
786,259	65,02
786,683	65,14
787,107	64,96
787,531	64,66
787,954	64,79
788,378	64,81
788,802	64,84
789,225	64,15
789,648	64,35
790,071	64,24
790,495	63,99
790,918	65,28
791,34	64,52
791,763	65,18
792,186	64,28
792,609	64,37
793,031	64,75
793,454	64,26
793,876	64,99
794,298	64,38
794,721	63,7
795,143	64,27
795,565	64,78
795,986	64,51
796,408	64,67
796,83	65,49
797,252	64,67
797,673	64,8
798,094	64,48
798,516	64,6
798,937	64,07
799,358	64,39
799,779	64,51
800,2	64,4
800,621	64,06
801,042	64,36
801,462	64,18
801,883	64,4
802,303	64,09
802,724	63,92
803,144	64,97
803,564	64,08
803,984	64,39
804,404	64,15
804,824	64,52
805,244	64,63
805,664	64,21
806,084	64,46
806,503	64,22
806,923	64,66
807,342	63,96
807,761	63,91
808,18	64,02
808,599	64,43
809,018	64,47
809,437	64,08
809,856	63,9
810,275	64,11
810,693	64,27
811,112	64,42
811,53	63,77
811,949	64,45
812,367	64,29
812,785	64,02
813,203	63,91
813,621	63,74
814,039	64,08
814,457	64,09
814,874	64,07
815,292	63,89
815,709	64,48
816,127	64,58
816,544	64,07
816,961	63,94
817,378	63,44
817,795	64,13
818,212	64,19
818,629	64,32
819,046	64,24
819,462	64,56
819,879	64,79
820,295	64,43
820,712	63,96
821,128	64,37
821,544	64,13
821,96	63,96
822,376	64,06
822,792	63,86
823,208	63,59
823,624	63,61
824,039	64,66
824,455	64,18
824,87	64
825,286	63,88
825,701	64
826,116	64,47
826,531	64,19
826,946	63,48
827,361	64,3
827,776	64,09
828,19	63,72
828,605	63,9
829,02	63,45
829,434	63,8
829,848	63,89
830,263	63,9
830,677	63,88
831,091	64,07
831,505	64,02
831,919	64,35
832,332	63,69
832,746	63,96
833,16	63,55
833,573	63,8
833,987	63,47
834,4	64,19
834,813	63,38
835,226	63,74
835,639	63,77
836,052	63,38
836,465	63,41
836,878	63,62
837,29	64,14
837,703	63,62
838,116	63,94
838,528	64,27
838,94	63,87
839,352	63,72
839,765	63,97
840,177	63,76
840,589	63,31
841	63,41
841,412	63,53
841,824	64,06
842,235	63,59
842,647	63,46
843,058	63,87
843,47	64,1
843,881	63,36
844,292	63,24
844,703	63,86
845,114	63,45
845,525	63,36
845,935	63,74
846,346	64,01
846,757	64,39
847,167	63,37
847,577	63,93
847,988	64,04
848,398	63,37
848,808	63,85
849,218	63,51
849,628	64,18
850,038	64,1
850,448	63,94
850,857	63,64
851,267	63,45
851,676	63,5
852,086	63,76
852,495	64,16
852,904	63,48
853,313	63,77
853,722	63,67
854,131	63,89
854,54	63,46
854,949	63,7
855,357	63,96
855,766	63,6
856,174	63,85
856,583	63,15
856,991	63,52
857,399	63,41
857,807	63,72
858,215	63,96
858,623	63,51
859,031	63,76
859,439	63,84
859,846	63,22
860,254	63,92
860,661	63,86
861,069	63,49
861,476	62,95
861,883	63,53
862,29	63,54
862,697	63,32
863,104	63,87
863,511	63,63
863,918	63,58
864,325	64,33
864,731	63,45
865,138	63,8
865,544	63,26
865,95	63,64
866,357	63,12
866,763	63,87
867,169	63,23
867,575	63,92
867,98	63,4
868,386	63,94
868,792	63,8
869,197	63,44
869,603	63,41
870,008	63,29
870,414	62,93
870,819	63,93
871,224	63,9
871,629	62,71
872,034	63,68
872,439	62,95
872,844	63,4
873,248	64,58
873,653	63,87
874,057	64,15
874,462	63,02
874,866	63,41
875,27	63,67
875,674	64,06
876,078	63,49
876,482	63,68
876,886	63,24
877,29	63,75
877,694	64,04
878,097	63,47
878,501	63,59
878,904	64,04
879,308	63,7
879,711	63,83
880,114	63,06
880,517	63,2
880,92	63,56
881,323	63,04
881,726	63,28
882,128	63,77
882,531	63,94
882,934	63,36
883,336	63,68
883,738	63,69
884,141	63,22
884,543	64
884,945	62,95
885,347	63,72
885,749	64,27
886,151	62,96
886,552	63,62
886,954	63,88
887,355	63,34
887,757	63,48
888,158	63,16
888,56	63,05
888,961	63,1
889,362	63,56
889,763	63,77
890,164	63,55
890,565	63,77
890,965	63,35
891,366	63,56
891,767	63,4
892,167	63,8
892,567	63,88
892,968	63,03
893,368	63,6
893,768	63,33
894,168	63,46
894,568	63,43
894,968	63,82
895,368	63,3
895,767	63,88
896,167	63,51
896,566	64,19
896,966	63,08
897,365	63,8
897,764	63,55
898,164	63,54
898,563	63,95
898,962	63,36
899,361	64,18
899,759	63,61
900,158	63,62
900,557	63,5
900,955	63,77
901,354	63,37
901,752	64,35
902,15	63,85
902,548	63,37
902,947	63,82
903,345	63,52
903,742	63,69
904,14	63,76
904,538	63,47
904,936	63,65
905,333	64,21
905,731	63,57
906,128	63,45
906,525	63,57
906,923	63,84
907,32	63,1
907,717	63,33
908,114	63,48
908,511	63,83
908,907	63,32
909,304	63,97
909,701	63,83
910,097	63,27
910,494	63,54
910,89	64,03
911,286	63,54
911,682	63,72
912,078	63,15
912,474	63,26
912,87	64,19
913,266	63,32
913,662	63,74
914,058	63,76
914,453	63,92
914,849	63,31
915,244	62,84
915,639	63,36
916,034	63,84
916,43	63,78
916,825	63,23
917,22	62,79
917,614	63,88
918,009	63,27
918,404	63,12
918,798	63,48
919,193	63,24
919,587	63,47
919,982	63,84
920,376	63,53
920,77	63,62
921,164	63,7
921,558	63,94
921,952	63,49
922,346	63,15
922,74	63,18
923,133	62,51
923,527	63,61
923,92	63,8
924,314	63,96
924,707	63,51
925,1	63,29
925,493	62,88
925,886	63,37
926,279	64,35
926,672	62,68
927,065	63,1
927,457	63,05
927,85	64,02
928,243	63,25
928,635	63,02
929,027	62,88
929,42	63,28
929,812	63,44
930,204	63,65
930,596	62,96
930,988	62,44
931,379	63,24
931,771	63,23
932,163	63,33
932,554	62,65
932,946	63,77
933,337	63,08
933,729	63,07
934,12	62,97
934,511	63,89
934,902	62,78
935,293	62,71
935,684	64,04
936,075	63,04
936,465	64,26
936,856	62,55
937,246	63,83
937,637	63,11
938,027	62,92
938,417	63,31
938,808	63,85
939,198	62,12
939,588	63,4
939,978	62,47
940,368	63,73
940,757	63,59
941,147	62,59
941,537	61,68
941,926	64,07
942,315	63,74
942,705	63,57
943,094	63,74
943,483	63,81
943,872	62,62
944,261	62,48
944,65	64,01
945,039	62,99
945,428	62,21
945,816	63,23
946,205	62,96
946,593	62,84
946,982	62,28
947,37	62,31
947,758	63,29
948,146	62,46
948,534	62,02
948,922	63,83
949,31	63,94
949,698	61,85
950,086	62,97
950,473	62,56
950,861	63,42
951,248	61,57
951,636	62,42
952,023	62
952,41	62,44
952,797	63,31
953,184	61,97
953,571	62,71
953,958	62,94
954,345	62,61
954,731	62,62
955,118	62,93
955,505	62,61
955,891	63,25
956,277	61,25
956,664	62,42
957,05	61,8
957,436	62,06
957,822	61,83
958,208	61,61
958,594	60,98
958,979	61,94
959,365	61,88
959,751	62,32
960,136	62,88
960,522	63,08
960,907	61,77
961,292	61,86
961,677	62,45
962,062	62,11
962,447	62,66
962,832	61,44
963,217	61,51
963,602	61,05
963,986	61,44
964,371	61,28
964,756	61,14
965,14	61,26
965,524	61,96
965,908	62,79
966,293	61,66
966,677	62,55
967,061	61,8
967,445	62,26
967,828	61,73
968,212	61,33
968,596	61,5
968,979	61,62
969,363	61,36
969,746	62,08
970,129	61,86
970,513	61,57
970,896	62,14
971,279	61,58
971,662	61,39
972,045	62,15
972,428	61,93
972,81	61,75
973,193	61,14
973,575	61,69
973,958	61,6
974,34	62,55
974,723	62,23
975,105	62,56
975,487	62,27
975,869	62,77
976,251	62,15
976,633	62,15
977,015	62,49
977,396	61,56
977,778	62,31
978,16	61,94
978,541	62,26
978,922	61,89
979,304	61,58
979,685	62,33
980,066	61,89
980,447	62,08
980,828	61,02
981,209	61,79
981,59	61,47
981,97	61,79
982,351	61,62
982,732	61,81
983,112	61,47
983,493	62,7
983,873	61,8
984,253	61,48
984,633	61,33
985,013	61,98
985,393	61,89
985,773	62,51
986,153	61,87
986,533	62,19
986,912	62,51
987,292	61,44
987,671	62,35
988,051	61,54
988,43	62,71
988,809	61,77
989,188	62,66
989,567	61,97
989,946	61,07
990,325	60,83
990,704	62,23
991,083	61,54
991,461	63,02
991,84	62,12
992,218	62,44
992,597	62,66
992,975	63,43
993,353	62,36
993,732	62,7
994,11	62,86
994,488	61,93
994,866	62,22
995,243	63,11
995,621	63,54
995,999	62,41
996,376	62,93
996,754	62,17
997,131	63,39
997,509	62,21
997,886	63,79
998,263	62,67
998,64	61,92
999,017	61,94
999,394	63,39
999,771	63,4
1000,148	62,98
1000,524	62,69
1000,901	63,06
1001,277	61,49
1001,654	62,62
1002,03	62,24
1002,406	62,27
1002,783	62,8
1003,159	61,53
1003,535	62,21
1003,911	62,78
1004,286	62,94
1004,662	62,8
1005,038	62,64
1005,414	61,64
1005,789	63,17
1006,164	63
1006,54	62,63
1006,915	63,67
1007,29	62,93
1007,665	62,77
1008,04	62,99
1008,415	63,61
1008,79	62,28
1009,165	63
1009,54	63,27
1009,914	63,11
1010,289	63,04
1010,663	62,52
1011,038	63,01
1011,412	62,79
1011,786	63,21
1012,16	63,1
1012,535	63,8
1012,909	63,04
1013,282	62,83
1013,656	63,64
1014,03	62,79
1014,404	62,46
1014,777	63,83
1015,151	63,45
1015,524	63
1015,897	63,49
1016,271	62,38
1016,644	63,82
1017,017	63,65
1017,39	64,45
1017,763	64,04
1018,136	63,85
1018,508	62,89
1018,881	63,67
1019,254	62,49
1019,626	63,69
1019,999	62,01
1020,371	64,44
1020,743	63,48
1021,116	63,64
1021,488	62,16
1021,86	63,42
1022,232	63,52
1022,604	62,08
1022,975	63,66
1023,347	62,88
1023,719	63,18
1024,09	63,19
1024,462	62,43
1024,833	63,61
1025,204	64,3
1025,576	62,92
1025,947	63,86
1026,318	63,32
1026,689	63,89
1027,06	64,17
1027,431	63,39
1027,801	62,72
1028,172	63,84
1028,543	62,59
1028,913	63,32
1029,284	63,69
1029,654	63,83
1030,024	64,01
1030,394	64,34
1030,764	63,97
1031,135	62,05
1031,504	64,45
1031,874	63,82
1032,244	64,36
1032,614	63,77
1032,983	64,53
1033,353	63,54
1033,722	63,27
1034,092	63,5
1034,461	64,56
1034,83	63,05
1035,2	63,84
1035,569	63,48
1035,938	64,23
1036,307	65,18
1036,675	63,47
1037,044	65,41
1037,413	64,71
1037,781	65,07
1038,15	64,2
1038,518	65,32
1038,887	65,88
1039,255	64,5
1039,623	64,1
1039,991	62,92
1040,359	63,98
1040,727	63,58
1041,095	62,57
1041,463	66,59
1041,831	64,48
1042,198	65,32
1042,566	63,4
1042,933	66,22
1043,301	66,47
1043,668	63,95
1044,035	65,3
1044,402	64,71
1044,77	64,86
1045,137	65,22
1045,503	64,04
1045,87	64,18
1046,237	64,74
1046,604	64,18
1046,97	63,77
1047,337	65,51
1047,703	64,67
1048,07	64,58
1048,436	64,25
1048,802	63,12
1049,168	63,63
1049,534	65,93
1049,9	64,56
1050,266	64,69
1050,632	65,51
1050,998	64,6
1051,364	65,95
1051,729	64,02
1052,095	64,73
1052,46	66
1052,825	64,95
1053,191	64,83
1053,556	63,61
1053,921	64,78
1054,286	64,48
1054,651	65,73
1055,016	64,26
1055,381	66,27
1055,745	64,92
1056,11	63,34
1056,475	68,62
1056,839	64,08
1057,203	63
1057,568	65,46
1057,932	64,55
1058,296	65,17
1058,66	65,9
1059,024	64,92
1059,388	66,23
1059,752	63,05
1060,116	66,3
1060,48	66,76
1060,843	65,46
1061,207	65,59
1061,57	65,29
1061,934	66,7
1062,297	66,02
1062,66	65,7
1063,023	65,18
1063,386	66,42
1063,749	66,64
1064,112	67,99
1064,475	66,19
1064,838	68,87
1065,201	65,95
1065,563	65,99
1065,926	66,83
1066,288	64,67
1066,651	65,7
1067,013	66,47
1067,375	62,77
1067,737	66,82
1068,099	63,33
1068,461	66,15
1068,823	64,57
1069,185	64,52
1069,547	67,02
1069,909	67,22
1070,27	67,84
1070,632	65,04
1070,993	66,94
1071,355	64,89
1071,716	65,52
1072,077	64,87
1072,438	67,12
1072,799	64,03
1073,16	65,53
1073,521	63,32
1073,882	65,48
1074,243	67,23
1074,603	66,5
1074,964	65,04
1075,325	66,22
1075,685	66,42
1076,045	65,31
1076,406	66,09
1076,766	64,85
1077,126	64,65
1077,486	67,29
1077,846	65,55
1078,206	63,76
1078,566	65,96
1078,925	66,92
1079,285	62,96
1079,645	66,67
1080,004	66,81
1080,364	67,88
1080,723	65,07
1081,082	65,47
1081,442	67,13
1081,801	68,43
1082,16	67,31
1082,519	68,39
1082,878	66,35
1083,237	67,44
1083,595	63,36
1083,954	65,84
1084,313	68,19
1084,671	68,92
1085,03	65,42
1085,388	66,19
1085,746	67,27
1086,104	67,58
1086,463	64,85
1086,821	68,4
1087,179	67,83
1087,537	69,63
1087,894	66,94
1088,252	66,24
1088,61	69,87
1088,967	67,52
1089,325	66,43
1089,682	69,01
1090,04	69,06
1090,397	65,59
1090,754	66,85
1091,111	68,18
1091,469	68,02
1091,826	67,66
1092,182	67,79
1092,539	66,5
1092,896	66,69
1093,253	68,27
1093,609	65,8
1093,966	67,66
1094,322	69,13
1094,679	68,94
1095,035	66,28
1095,391	64,51
1095,748	68,27
1096,104	66,96
1096,46	68,4
1096,816	68,45
1097,171	68,64
1097,527	66,64
1097,883	64,91
1098,239	67,78
1098,594	68,99
1098,95	69,03
1099,305	71,93
1099,66	68,7
1100,016	69,42
1100,371	71,96
1100,726	66,31
1101,081	66,67
1101,436	72
1101,791	70,28
1102,146	71,53
1102,5	67,59
1102,855	70,16
1103,21	73,62
1103,564	65,82
1103,918	72,34
1104,273	70,81
1104,627	67,81
1104,981	68,23
1105,335	66,67
1105,69	71,71
1106,043	67,39
1106,397	72,68
1106,751	73,41
1107,105	65,77
1107,459	69,26
1107,812	69,34
1108,166	69,48
1108,519	72,03
1108,873	71,89
1109,226	68,3
1109,579	72,32
1109,932	70,83
1110,285	74,4
1110,638	74,52
1110,991	72,28
1111,344	69,85
1111,697	66,67
1112,05	74,72
1112,402	66,42
1112,755	71,02
1113,107	71,93
1113,46	72,43
1113,812	75,04
1114,164	69,34
1114,517	70,33
1114,869	121,13
1115,221	117,33
1115,573	109,72
1115,924	113,25
