Data from D_3_Relative__8__00078.txt Node

Date: Tue Jan 30 10:02:03 CET 2024
User: diatiterra
Spectrometer: HDX00911
Trigger mode: 0
Integration Time (sec): 6,000000E-3
Scans to average: 2
Nonlinearity correction enabled: false
Boxcar width: 0
Storing dark spectrum: false
XAxis mode: Wavelengths
Number of Pixels in Spectrum: 2068
>>>>>Begin Spectral Data<<<<<
194,468	86,74
195,025	86,29
195,581	71,97
196,138	75,8
196,694	83,58
197,251	67,4
197,807	68,75
198,363	77,87
198,919	68,51
199,474	70,34
200,03	71,26
200,586	70,04
201,141	76,47
201,696	64,71
202,251	83,58
202,806	71,49
203,361	69,51
203,916	70,12
204,471	78,22
205,025	61,92
205,58	73,27
206,134	62,95
206,688	61,37
207,242	77,48
207,796	72,46
208,35	87,67
208,904	66,53
209,457	75,97
210,011	73,36
210,564	73,87
211,117	74,89
211,67	68,42
212,223	66,53
212,776	83,05
213,329	64,98
213,881	70,13
214,434	73,36
214,986	80,8
215,538	75,2
216,09	73,49
216,642	78,93
217,194	79,9
217,746	71,71
218,297	68,49
218,849	69,2
219,4	73,16
219,951	73,45
220,502	68,48
221,053	79,24
221,604	70,47
222,155	68,22
222,705	74,47
223,256	70,04
223,806	73,75
224,356	74,51
224,906	80,62
225,456	65,97
226,006	72,32
226,556	74,78
227,106	72,61
227,655	70,7
228,204	87,78
228,754	71,73
229,303	77,93
229,852	79,04
230,401	71,75
230,949	65,6
231,498	72,32
232,047	71,31
232,595	71,49
233,143	78,51
233,691	63,6
234,239	73,28
234,787	69,51
235,335	71,43
235,883	76,13
236,43	74,58
236,978	75,65
237,525	71,49
238,072	68,28
238,619	71,3
239,166	66,38
239,713	67,93
240,26	68,95
240,806	74,14
241,353	70,94
241,899	67,9
242,445	66,95
242,991	72,95
243,537	63,64
244,083	70,59
244,629	67,84
245,174	75,32
245,72	67,95
246,265	75,57
246,81	78,22
247,355	79,56
247,9	75,83
248,445	66,67
248,99	67,23
249,534	67,55
250,079	74,54
250,623	74,34
251,168	75,51
251,712	59,83
252,256	67,36
252,8	69,47
253,343	75,3
253,887	68,83
254,43	67,04
254,974	70,8
255,517	86,06
256,06	60,76
256,603	74,07
257,146	68,85
257,689	64,83
258,232	73,3
258,774	72,69
259,317	79,74
259,859	76,19
260,401	71,96
260,943	66,8
261,485	68,64
262,027	67,66
262,569	67,13
263,11	70,35
263,652	63,72
264,193	72,09
264,734	77,78
265,275	67,38
265,816	60,68
266,357	64,32
266,898	75,21
267,438	74,89
267,979	75
268,519	67,79
269,059	58,5
269,6	71,24
270,14	69,4
270,68	71,31
271,219	66,09
271,759	59,83
272,298	70,4
272,838	64,94
273,377	77,48
273,916	63,04
274,455	59,23
274,994	77,88
275,533	61,98
276,072	71,91
276,61	69,3
277,149	70,83
277,687	72,46
278,225	69,96
278,763	71,76
279,301	68,16
279,839	67,21
280,377	63,27
280,914	66,67
281,452	69,11
281,989	77,27
282,526	66,67
283,064	65,9
283,601	70
284,137	68
284,674	71,97
285,211	69,43
285,747	72,44
286,284	73,71
286,82	65,73
287,356	72
287,892	66,67
288,428	64,81
288,964	73,03
289,5	67,91
290,035	75,93
290,571	74,71
291,106	70,14
291,641	71,18
292,176	64
292,711	68,53
293,246	67,82
293,781	74,35
294,315	71,63
294,85	58,57
295,384	75,94
295,918	73,6
296,453	70,04
296,987	63,56
297,52	62,9
298,054	66,52
298,588	63,2
299,121	76,13
299,655	63,21
300,188	69,92
300,721	72,32
301,254	64,57
301,787	70,61
302,32	67,09
302,853	76,6
303,385	66,27
303,918	65,78
304,45	70,74
304,982	65,6
305,514	69,51
306,046	65,04
306,578	72,61
307,11	63,64
307,641	66,39
308,173	70,43
308,704	65,85
309,236	73,04
309,767	61,67
310,298	65,6
310,829	73,64
311,359	78,76
311,89	62,69
312,421	64,9
312,951	73,22
313,481	75,83
314,012	68,22
314,542	63,96
315,072	66,95
315,601	62,1
316,131	66,09
316,661	69,11
317,19	61,63
317,72	63,14
318,249	73,39
318,778	80,25
319,307	66,53
319,836	74,4
320,365	73,19
320,893	64,57
321,422	72,65
321,95	74,78
322,479	71,89
323,007	64,54
323,535	69,06
324,063	77,04
324,591	70,5
325,118	70,13
325,646	74,57
326,173	73,21
326,701	66,53
327,228	70,2
327,755	67,14
328,282	78,18
328,809	64,91
329,336	73,62
329,862	72,63
330,389	76,21
330,915	61,63
331,441	78,48
331,968	58,57
332,494	71,11
333,02	71,97
333,545	68,42
334,071	65,97
334,597	69,01
335,122	71,62
335,648	75,6
336,173	74,58
336,698	71,24
337,223	77
337,748	72,16
338,272	69,1
338,797	68,13
339,322	74,36
339,846	68,27
340,37	71,62
340,894	66,24
341,419	70,16
341,942	70,16
342,466	66,37
342,99	65,78
343,514	67,61
344,037	63,16
344,56	68,92
345,084	71,61
345,607	66,79
346,13	70,16
346,653	61,62
347,175	70,76
347,698	65,93
348,221	70,04
348,743	75,09
349,265	68,16
349,787	64,11
350,309	66,06
350,831	59,86
351,353	71,02
351,875	72,16
352,397	57,63
352,918	72,51
353,439	67,73
353,961	64,34
354,482	68,79
355,003	61,51
355,524	65,88
356,044	62,55
356,565	69,1
357,086	58,44
357,606	54
358,126	66,89
358,646	52,07
359,167	58,8
359,687	60,73
360,206	61,02
360,726	60,57
361,246	57,59
361,765	50,49
362,285	57,38
362,804	49,39
363,323	63,06
363,842	60,4
364,361	59,75
364,88	63,06
365,398	52,27
365,917	47,34
366,435	57,85
366,954	60,49
367,472	58,86
367,99	54,67
368,508	58,48
369,026	57,79
369,544	58,26
370,061	57,64
370,579	53,31
371,096	51,31
371,613	48,26
372,131	52,74
372,648	54,31
373,165	53,03
373,681	50,26
374,198	52,91
374,715	48,45
375,231	50,37
375,747	51,36
376,264	47,33
376,78	48,58
377,296	48,81
377,812	44,89
378,327	49,77
378,843	46,04
379,359	41,19
379,874	47,82
380,389	48,86
380,905	48,41
381,42	40,41
381,935	49,35
382,449	45,31
382,964	43,86
383,479	48,64
383,993	46,4
384,508	40
385,022	42,75
385,536	41,45
386,05	42,12
386,564	38,95
387,078	45,2
387,592	41,8
388,105	44,37
388,619	37,48
389,132	40,1
389,645	37,94
390,158	40,79
390,671	41,56
391,184	38,24
391,697	36,42
392,21	36,27
392,722	35,48
393,235	32,14
393,747	36,38
394,259	34,96
394,771	34,52
395,283	32,98
395,795	37,07
396,307	31,92
396,818	32,59
397,33	33,9
397,841	31,2
398,353	32,26
398,864	31,24
399,375	30,39
399,886	30,78
400,397	30,96
400,907	30,01
401,418	31,44
401,928	28,16
402,439	29
402,949	26,16
403,459	29,36
403,969	23,94
404,479	26,54
404,989	27,78
405,498	25,59
406,008	25,56
406,517	25
407,027	21,92
407,536	25,1
408,045	21,98
408,554	19,22
409,063	20,14
409,572	20,61
410,08	19,87
410,589	19,37
411,097	18,29
411,606	17,96
412,114	15,57
412,622	17,14
413,13	16,74
413,638	15,94
414,145	16,87
414,653	14,44
415,16	16,01
415,668	15,13
416,175	13,57
416,682	14,63
417,189	13,02
417,696	13,59
418,203	13,79
418,71	12,23
419,216	13,08
419,723	12,53
420,229	11,83
420,735	12,29
421,242	11,5
421,748	12,16
422,254	13,24
422,759	11,67
423,265	11
423,771	11,32
424,276	11,94
424,781	11,08
425,287	11,48
425,792	10,98
426,297	11,3
426,802	11,21
427,306	10,56
427,811	10,21
428,316	11,47
428,82	11,42
429,324	10,47
429,829	10,72
430,333	10,64
430,837	10,39
431,34	9,71
431,844	10,48
432,348	10,58
432,851	9,88
433,355	9,39
433,858	10,41
434,361	10,03
434,864	10,09
435,367	10,49
435,87	9,82
436,373	9,53
436,876	10,01
437,378	9,57
437,88	9,89
438,383	10,19
438,885	9,56
439,387	9,18
439,889	9,19
440,391	9,07
440,892	9,33
441,394	10,41
441,896	9,3
442,397	9,25
442,898	9,27
443,399	8,91
443,9	9,62
444,401	9,23
444,902	9,42
445,403	9,28
445,903	9,99
446,404	9,93
446,904	9,08
447,405	9,23
447,905	9,14
448,405	9,6
448,905	9,89
449,404	8,97
449,904	8,95
450,404	8,85
450,903	9,72
451,403	8,94
451,902	9,24
452,401	9,19
452,9	9,51
453,399	9,44
453,898	9,22
454,396	9,59
454,895	9,6
455,393	9,56
455,892	9,66
456,39	9,3
456,888	9,71
457,386	9,16
457,884	9,2
458,382	8,97
458,879	9,86
459,377	9,52
459,874	9,63
460,372	9,71
460,869	9,52
461,366	9,49
461,863	9,43
462,36	9,36
462,857	9,52
463,353	9,07
463,85	9,2
464,346	9,3
464,843	9,09
465,339	9,57
465,835	9,4
466,331	8,59
466,827	9,18
467,323	9,24
467,818	9,47
468,314	9,3
468,809	8,97
469,305	9,07
469,8	9,48
470,295	9,56
470,79	9,01
471,285	9
471,78	8,77
472,274	9,24
472,769	9,1
473,263	9,21
473,758	9,4
474,252	9,03
474,746	8,76
475,24	9,59
475,734	9,34
476,228	8,99
476,721	9,25
477,215	9,48
477,708	9,19
478,202	8,83
478,695	8,99
479,188	9,16
479,681	8,98
480,174	8,83
480,667	9,59
481,159	9,25
481,652	9,4
482,144	9,04
482,637	9,04
483,129	9,18
483,621	9,2
484,113	8,76
484,605	9,27
485,097	9,14
485,588	9,81
486,08	9,4
486,571	9,09
487,063	9,76
487,554	9,08
488,045	9,21
488,536	9,24
489,027	9,43
489,518	9,46
490,008	9,84
490,499	9,73
490,989	9,93
491,48	9,58
491,97	9,54
492,46	9,63
492,95	9,43
493,44	9,63
493,93	9,8
494,419	10,17
494,909	9,45
495,398	9,9
495,888	10,21
496,377	9,89
496,866	10,17
497,355	10,01
497,844	10,1
498,333	10,44
498,821	9,98
499,31	10,1
499,798	10,76
500,287	10,85
500,775	11,08
501,263	10,68
501,751	11,17
502,239	11,33
502,727	11,33
503,215	11,56
503,702	11,55
504,19	11,68
504,677	11,68
505,164	12,05
505,651	12,51
506,139	12,53
506,625	12,49
507,112	13,15
507,599	12,98
508,086	13,28
508,572	13,83
509,058	13,82
509,545	13,6
510,031	14,38
510,517	14,79
511,003	14,94
511,489	15,05
511,974	15,58
512,46	16,13
512,946	15,9
513,431	16,25
513,916	17,1
514,401	17,28
514,887	17,28
515,371	17,72
515,856	17,82
516,341	18,77
516,826	18,87
517,31	19,22
517,795	20,25
518,279	20,1
518,763	20,09
519,247	20,64
519,731	21,12
520,215	21,38
520,699	21,56
521,182	22,58
521,666	22,25
522,149	23,54
522,633	24,05
523,116	24,28
523,599	24,32
524,082	24,91
524,565	25,61
525,048	26
525,53	25,69
526,013	26,72
526,495	27
526,978	27,23
527,46	27,84
527,942	28,08
528,424	28,58
528,906	28,51
529,388	28,88
529,87	29,14
530,351	29,34
530,833	29,47
531,314	30,4
531,795	30,51
532,277	30,43
532,758	30,71
533,238	30,91
533,719	30,98
534,2	31,06
534,681	31,21
535,161	31,69
535,642	31,3
536,122	31,82
536,602	31,89
537,082	31,7
537,562	32,14
538,042	31,92
538,522	31,88
539,001	32,4
539,481	32,44
539,96	32,4
540,44	32,2
540,919	32,88
541,398	32,17
541,877	32,88
542,356	33,01
542,835	32,49
543,313	32,36
543,792	33,26
544,27	33,09
544,749	33,39
545,227	33,05
545,705	33,32
546,183	33,75
546,661	33,72
547,139	33,73
547,616	33,58
548,094	33,77
548,571	33,37
549,049	33,57
549,526	34,05
550,003	33,94
550,48	34,11
550,957	33,95
551,434	33,5
551,911	34,11
552,387	34,05
552,864	34,17
553,34	34,24
553,817	33,86
554,293	33,81
554,769	33,29
555,245	33,95
555,721	34,23
556,197	33,68
556,672	33,8
557,148	33,74
557,623	33,47
558,099	33,51
558,574	33,76
559,049	33,46
559,524	33,33
559,999	33,33
560,474	33,12
560,948	32,74
561,423	32,8
561,897	32,68
562,372	32,52
562,846	32,53
563,32	32,72
563,794	32,05
564,268	32,39
564,742	32,41
565,216	32,09
565,69	31,04
566,163	31,74
566,636	30,81
567,11	31,2
567,583	30,82
568,056	30,24
568,529	29,98
569,002	30,46
569,475	29,5
569,947	29,21
570,42	28,77
570,892	28,51
571,365	29,19
571,837	28,63
572,309	28,51
572,781	28,57
573,253	27,68
573,725	27,39
574,197	27,37
574,668	27,33
575,14	26,63
575,611	26,76
576,082	26,22
576,554	26,63
577,025	26,11
577,496	25,54
577,967	25,75
578,437	25,62
578,908	25,28
579,379	25,09
579,849	24,52
580,319	24,67
580,79	24,44
581,26	24,18
581,73	23,98
582,2	24,1
582,669	23,93
583,139	24
583,609	23,94
584,078	23,56
584,548	23,38
585,017	23,43
585,486	22,9
585,955	23,21
586,424	22,99
586,893	23,03
587,362	22,79
587,83	22,7
588,299	22,21
588,767	22,58
589,236	22,3
589,704	22,04
590,172	21,89
590,64	22,13
591,108	21,41
591,576	21,91
592,043	21,47
592,511	21,45
592,978	21,54
593,446	21,81
593,913	21,35
594,38	21,5
594,847	21,17
595,314	21,24
595,781	21,26
596,248	21,17
596,715	21,3
597,181	20,84
597,647	21,13
598,114	21,06
598,58	21,06
599,046	20,92
599,512	20,45
599,978	20,71
600,444	20,5
600,91	20,45
601,375	20,65
601,841	20,26
602,306	20,54
602,771	20,24
603,236	20,02
603,702	20,28
604,167	20,15
604,631	20,13
605,096	19,7
605,561	19,57
606,025	19,73
606,49	19,51
606,954	19,65
607,418	19,39
607,882	19,45
608,347	19,26
608,81	19,12
609,274	19,15
609,738	18,89
610,202	18,54
610,665	18,59
611,128	18,5
611,592	18,39
612,055	18,23
612,518	18,3
612,981	18,01
613,444	17,91
613,907	17,69
614,369	17,76
614,832	17,61
615,294	17,35
615,757	17,48
616,219	17,08
616,681	17,1
617,143	17,39
617,605	16,7
618,067	16,89
618,529	16,59
618,99	16,79
619,452	16,61
619,913	16,56
620,375	16,47
620,836	16,41
621,297	16,35
621,758	16,13
622,219	16,02
622,68	15,9
623,14	15,94
623,601	15,89
624,061	15,91
624,522	15,99
624,982	16,08
625,442	15,85
625,902	15,88
626,362	15,8
626,822	15,67
627,282	15,95
627,742	15,85
628,201	15,61
628,661	15,68
629,12	15,73
629,579	15,62
630,038	15,71
630,497	15,59
630,956	15,69
631,415	15,47
631,874	15,55
632,332	15,53
632,791	15,53
633,249	15,53
633,708	15,25
634,166	15,12
634,624	15,07
635,082	15,2
635,54	15,07
635,998	14,8
636,455	14,63
636,913	14,41
637,37	14,62
637,828	14,52
638,285	14,17
638,742	14,22
639,199	13,85
639,656	13,94
640,113	13,85
640,57	13,47
641,027	13,62
641,483	13,39
641,94	13,18
642,396	13,14
642,852	13,09
643,309	12,52
643,765	12,59
644,221	12,56
644,676	12,21
645,132	12,28
645,588	12,13
646,043	12
646,499	11,79
646,954	11,92
647,409	11,75
647,864	11,6
648,319	11,35
648,774	11,17
649,229	11,2
649,684	11,05
650,139	11
650,593	10,92
651,047	10,89
651,502	10,79
651,956	10,56
652,41	10,61
652,864	10,7
653,318	10,53
653,772	10,46
654,225	10,51
654,679	10,28
655,133	10,3
655,586	10,35
656,039	10,18
656,492	10,33
656,946	10,15
657,399	9,97
657,851	9,94
658,304	10
658,757	9,97
659,209	9,64
659,662	9,68
660,114	9,48
660,567	9,49
661,019	9,29
661,471	9,49
661,923	9,34
662,375	9,09
662,826	9,14
663,278	9,13
663,73	9,25
664,181	9,02
664,632	9,15
665,084	8,86
665,535	8,95
665,986	9,09
666,437	8,81
666,888	8,86
667,338	8,87
667,789	8,76
668,24	8,89
668,69	8,8
669,14	8,89
669,591	8,88
670,041	8,89
670,491	8,84
670,941	9,04
671,391	8,96
671,84	8,89
672,29	9,18
672,74	8,98
673,189	9,32
673,638	9,26
674,088	9,32
674,537	9,34
674,986	9,46
675,435	9,65
675,883	9,67
676,332	9,75
676,781	9,77
677,229	9,83
677,678	10,38
678,126	10
678,574	10,4
679,022	10,51
679,47	10,76
679,918	10,7
680,366	10,76
680,814	10,67
681,261	11,15
681,709	11,23
682,156	11,2
682,604	11,4
683,051	11,51
683,498	11,82
683,945	11,8
684,392	11,77
684,839	12,27
685,286	12,08
685,732	12,66
686,179	12,49
686,625	12,73
687,071	12,88
687,518	13
687,964	13,33
688,41	13,45
688,856	13,88
689,301	13,99
689,747	14,5
690,193	14,77
690,638	15,25
691,084	15,47
691,529	16,5
691,974	16,57
692,419	17,27
692,864	17,64
693,309	18,35
693,754	18,98
694,199	19,66
694,643	20,04
695,088	20,7
695,532	21,65
695,977	22,5
696,421	23,21
696,865	23,84
697,309	24,65
697,753	25,65
698,197	26,09
698,64	27,11
699,084	27,89
699,527	28,77
699,971	29,42
700,414	30,36
700,857	30,48
701,3	31,55
701,743	32,21
702,186	33,29
702,629	33,93
703,072	34,76
703,515	35,11
703,957	35,92
704,399	36,8
704,842	37,75
705,284	37,88
705,726	39,15
706,168	39,75
706,61	40,26
707,052	40,63
707,494	41,48
707,935	42,48
708,377	43,3
708,818	43,17
709,26	44,31
709,701	44,78
710,142	45,49
710,583	46,1
711,024	46,75
711,465	47
711,905	47,93
712,346	48,32
712,787	48,36
713,227	49,8
713,667	49,9
714,108	50,33
714,548	51,46
714,988	51,53
715,428	52,22
715,868	52,51
716,307	53,09
716,747	53,57
717,186	54,19
717,626	54,68
718,065	55,52
718,504	55,43
718,944	55,89
719,383	56,1
719,822	56,95
720,261	57,36
720,699	57,68
721,138	58,16
721,576	58,23
722,015	59,14
722,453	59,68
722,892	60,1
723,33	59,84
723,768	60,58
724,206	60,83
724,644	61,08
725,081	61,5
725,519	61,45
725,957	61,87
726,394	62,25
726,832	62,5
727,269	62,81
727,706	63,19
728,143	63,26
728,58	63,87
729,017	63,93
729,454	64,09
729,89	64,2
730,327	64,61
730,764	64,78
731,2	65,43
731,636	65,35
732,072	65,82
732,509	65,53
732,945	66,49
733,38	65,7
733,816	66,19
734,252	66,71
734,688	66,39
735,123	66,94
735,559	66,49
735,994	66,71
736,429	66,81
736,864	67,38
737,299	67,18
737,734	67,16
738,169	67,38
738,604	67,5
739,038	67,72
739,473	67,66
739,907	67,71
740,342	68,62
740,776	68,06
741,21	67,55
741,644	68,7
742,078	67,83
742,512	67,77
742,946	68,02
743,379	68,62
743,813	68,54
744,246	68,32
744,68	68,21
745,113	68,29
745,546	68,14
745,979	67,93
746,412	68,28
746,845	68,12
747,278	68,35
747,711	68,46
748,143	68,03
748,576	68,11
749,008	67,84
749,441	68,38
749,873	68,25
750,305	67,97
750,737	67,67
751,169	68,14
751,601	68,09
752,032	68,03
752,464	68,14
752,896	67,82
753,327	68,07
753,758	67,91
754,19	68,48
754,621	68,28
755,052	67,94
755,483	67,51
755,914	67,33
756,344	67,42
756,775	67,88
757,206	67,49
757,636	67,36
758,066	67,56
758,497	67,54
758,927	67,46
759,357	67,83
759,787	67,24
760,217	67,7
760,647	67,01
761,076	67,09
761,506	66,99
761,935	67,31
762,365	66,52
762,794	67,26
763,223	66,49
763,653	67,5
764,082	66,83
764,51	66,57
764,939	67,22
765,368	67,08
765,797	67,36
766,225	66,81
766,654	66,67
767,082	67,09
767,51	66,8
767,938	66,43
768,367	66,69
768,795	66,97
769,222	66,57
769,65	66,61
770,078	66,71
770,505	66,44
770,933	66,42
771,36	66,54
771,788	66,21
772,215	66,68
772,642	66,37
773,069	65,92
773,496	66,38
773,923	66,31
774,349	66,1
774,776	66,04
775,203	66,52
775,629	65,88
776,055	66,11
776,482	66,04
776,908	66,32
777,334	66,22
777,76	66,07
778,186	65,75
778,611	66,4
779,037	66
779,463	66,47
779,888	65,79
780,314	65,66
780,739	65,87
781,164	65,69
781,589	66,15
782,014	65,47
782,439	65,75
782,864	65,54
783,289	65,98
783,713	65,63
784,138	65,98
784,562	65,77
784,987	65,73
785,411	65,53
785,835	65,92
786,259	65,7
786,683	66,17
787,107	66,25
787,531	65,65
787,954	65,85
788,378	65,97
788,802	65,97
789,225	65,68
789,648	65,78
790,071	65,47
790,495	65,43
790,918	65,5
791,34	65,18
791,763	65,13
792,186	65,83
792,609	65,47
793,031	65,21
793,454	65,41
793,876	65,71
794,298	65,81
794,721	65,68
795,143	64,99
795,565	65,74
795,986	65,01
796,408	65,34
796,83	65,66
797,252	65,16
797,673	65,17
798,094	65,28
798,516	65,24
798,937	65,36
799,358	65,26
799,779	65,59
800,2	65,44
800,621	65,37
801,042	65,49
801,462	64,81
801,883	65,22
802,303	64,62
802,724	65,43
803,144	65,3
803,564	65,24
803,984	65,07
804,404	65,32
804,824	65,17
805,244	65,75
805,664	65,23
806,084	65,01
806,503	65,22
806,923	64,79
807,342	64,95
807,761	65,02
808,18	65,3
808,599	65,52
809,018	65,21
809,437	65,25
809,856	65,16
810,275	65,18
810,693	65,28
811,112	65,35
811,53	65,11
811,949	65,3
812,367	65,04
812,785	65,04
813,203	64,51
813,621	65,04
814,039	64,95
814,457	65,45
814,874	64,83
815,292	64,5
815,709	65,03
816,127	65,14
816,544	64,71
816,961	64,99
817,378	64,88
817,795	64,42
818,212	64,88
818,629	64,96
819,046	64,94
819,462	65,38
819,879	65,38
820,295	65,29
820,712	65,44
821,128	65,22
821,544	64,9
821,96	64,95
822,376	65,67
822,792	64,75
823,208	64,84
823,624	64,72
824,039	64,29
824,455	64,81
824,87	64,8
825,286	64,96
825,701	65,01
826,116	64,76
826,531	65,41
826,946	64,73
827,361	64,76
827,776	64,91
828,19	64,85
828,605	64,16
829,02	64,92
829,434	64,48
829,848	64,73
830,263	64,86
830,677	64,68
831,091	65,02
831,505	64,99
831,919	65,42
832,332	64,29
832,746	65,03
833,16	64,93
833,573	65
833,987	64,77
834,4	64,46
834,813	64,55
835,226	64,47
835,639	64,97
836,052	64,59
836,465	64,96
836,878	64,57
837,29	64,47
837,703	65,19
838,116	65,18
838,528	64,91
838,94	63,98
839,352	65,18
839,765	64,61
840,177	64,9
840,589	64,41
841	64,71
841,412	65,03
841,824	64,99
842,235	64,73
842,647	64,27
843,058	64,81
843,47	64,8
843,881	64,83
844,292	64,7
844,703	64,51
845,114	64,49
845,525	64,99
845,935	64,6
846,346	64,37
846,757	64,54
847,167	64,88
847,577	64,49
847,988	64,73
848,398	64,2
848,808	65,1
849,218	64,66
849,628	65,2
850,038	64,45
850,448	64,55
850,857	64,41
851,267	65,48
851,676	64,75
852,086	65,09
852,495	64,2
852,904	64,88
853,313	64,25
853,722	64,79
854,131	64,33
854,54	64,65
854,949	64,49
855,357	64,44
855,766	64,29
856,174	64,71
856,583	64,46
856,991	64,28
857,399	64,54
857,807	64,45
858,215	64,05
858,623	64,96
859,031	64,59
859,439	64,6
859,846	64,71
860,254	64,55
860,661	64,11
861,069	64,63
861,476	64,55
861,883	64,51
862,29	64,69
862,697	64,55
863,104	64,56
863,511	64,47
863,918	65,01
864,325	64,11
864,731	64,4
865,138	64,83
865,544	64,9
865,95	64,77
866,357	64,39
866,763	63,95
867,169	64,94
867,575	64,54
867,98	64,29
868,386	64,24
868,792	64,72
869,197	64,56
869,603	64,39
870,008	63,59
870,414	64,7
870,819	65,19
871,224	64,18
871,629	64,42
872,034	64,65
872,439	64,73
872,844	63,93
873,248	64,66
873,653	64,65
874,057	63,79
874,462	64,71
874,866	64,37
875,27	64,2
875,674	64,52
876,078	64,26
876,482	64,26
876,886	64,68
877,29	64,26
877,694	64,65
878,097	64,57
878,501	64,74
878,904	64,38
879,308	64,02
879,711	64,3
880,114	64,1
880,517	64,03
880,92	64,35
881,323	64,46
881,726	64,82
882,128	64,55
882,531	64,66
882,934	64,74
883,336	64,36
883,738	64,33
884,141	64,39
884,543	64,87
884,945	64,17
885,347	64,85
885,749	64,56
886,151	64,35
886,552	63,87
886,954	64
887,355	64,87
887,757	64,25
888,158	64,99
888,56	64,55
888,961	64,4
889,362	64,06
889,763	63,87
890,164	64,13
890,565	64,41
890,965	64,25
891,366	63,74
891,767	64,52
892,167	63,88
892,567	64,07
892,968	64,44
893,368	64,61
893,768	64,15
894,168	64,29
894,568	63,87
894,968	64,93
895,368	64,43
895,767	64,43
896,167	64,8
896,566	64,42
896,966	64,16
897,365	63,93
897,764	64,51
898,164	63,47
898,563	64,58
898,962	63,58
899,361	64,26
899,759	64,78
900,158	64,63
900,557	64,34
900,955	64,56
901,354	64,94
901,752	64,7
902,15	64,71
902,548	64,08
902,947	64,66
903,345	64,17
903,742	64,04
904,14	64,2
904,538	64,44
904,936	64,01
905,333	64,31
905,731	64,38
906,128	64,74
906,525	64,4
906,923	64,44
907,32	64,46
907,717	64,13
908,114	64,44
908,511	64,43
908,907	64,7
909,304	64,57
909,701	64,16
910,097	64,34
910,494	64,14
910,89	64,96
911,286	64,32
911,682	64,56
912,078	64,46
912,474	64,22
912,87	64,05
913,266	64,8
913,662	64,18
914,058	64,46
914,453	64,36
914,849	64,27
915,244	64,28
915,639	64,8
916,034	64,99
916,43	64,07
916,825	64,18
917,22	63,99
917,614	64,47
918,009	63,66
918,404	64,6
918,798	64,35
919,193	64,45
919,587	64,25
919,982	65,06
920,376	64,71
920,77	64,41
921,164	64,55
921,558	64,75
921,952	64,56
922,346	64,24
922,74	64,37
923,133	64,31
923,527	64,28
923,92	63,98
924,314	64,51
924,707	64,17
925,1	64,09
925,493	64,34
925,886	64,79
926,279	63,95
926,672	63,76
927,065	64,2
927,457	64,71
927,85	64,18
928,243	64,29
928,635	63,74
929,027	64,68
929,42	63,88
929,812	63,67
930,204	64,05
930,596	64,27
930,988	63,93
931,379	63,73
931,771	64,58
932,163	63,77
932,554	64,06
932,946	64,47
933,337	63,74
933,729	63,56
934,12	64,54
934,511	63,38
934,902	64,26
935,293	63,64
935,684	63,37
936,075	64,27
936,465	65,03
936,856	64,91
937,246	64,29
937,637	64,55
938,027	63,58
938,417	62,38
938,808	63,88
939,198	63,53
939,588	63,92
939,978	64,72
940,368	63,29
940,757	64
941,147	63,61
941,537	63,75
941,926	63,55
942,315	62,53
942,705	63,94
943,094	63,56
943,483	64,58
943,872	62,71
944,261	63,32
944,65	62,14
945,039	63,65
945,428	64,32
945,816	64,45
946,205	63,41
946,593	64,67
946,982	62,94
947,37	64,2
947,758	63,76
948,146	62,85
948,534	62,79
948,922	65,75
949,31	63,7
949,698	63,21
950,086	62,57
950,473	63,6
950,861	63,46
951,248	62,21
951,636	62,88
952,023	63,06
952,41	61,93
952,797	63,05
953,184	62,3
953,571	62,9
953,958	62,18
954,345	62,69
954,731	62,3
955,118	62,61
955,505	62,11
955,891	62,34
956,277	61,9
956,664	62,12
957,05	62,22
957,436	62,35
957,822	61,61
958,208	62,11
958,594	62,55
958,979	62,84
959,365	62,47
959,751	62,52
960,136	62,73
960,522	62,79
960,907	62,12
961,292	63,03
961,677	61,54
962,062	62,96
962,447	62,49
962,832	61,57
963,217	63,32
963,602	61,81
963,986	62,2
964,371	62,86
964,756	61,34
965,14	62,46
965,524	61,43
965,908	62,24
966,293	61,99
966,677	62,53
967,061	61,74
967,445	62,02
967,828	63,25
968,212	62,28
968,596	62,22
968,979	62
969,363	61,88
969,746	62,35
970,129	62,7
970,513	63,02
970,896	61,91
971,279	62,04
971,662	61,66
972,045	62,29
972,428	62,62
972,81	62,38
973,193	62,51
973,575	61,99
973,958	61,97
974,34	62,49
974,723	61,99
975,105	61,19
975,487	61,95
975,869	61,99
976,251	60,99
976,633	62,47
977,015	62,36
977,396	61,94
977,778	61,69
978,16	63,18
978,541	62,11
978,922	62,65
979,304	62,76
979,685	61,83
980,066	61,81
980,447	61,76
980,828	61,56
981,209	61,59
981,59	62,47
981,97	61,7
982,351	61,42
982,732	61,41
983,112	62,53
983,493	63,03
983,873	61,74
984,253	62,49
984,633	62,43
985,013	61,95
985,393	62,5
985,773	63,1
986,153	62
986,533	62,55
986,912	62,55
987,292	62
987,671	61,49
988,051	62,25
988,43	62,86
988,809	62,75
989,188	61,42
989,567	62,25
989,946	62,34
990,325	62,34
990,704	62,66
991,083	62,11
991,461	63,12
991,84	62,8
992,218	62,02
992,597	62,15
992,975	62,27
993,353	62,12
993,732	62,42
994,11	62,03
994,488	62,98
994,866	62,52
995,243	62,53
995,621	62,14
995,999	62,88
996,376	62,97
996,754	61,17
997,131	62,96
997,509	62,88
997,886	63,08
998,263	62,07
998,64	62,99
999,017	62,97
999,394	62,2
999,771	63,05
1000,148	62,77
1000,524	62,89
1000,901	62,98
1001,277	63,61
1001,654	63,43
1002,03	62,6
1002,406	63,16
1002,783	62,7
1003,159	61,8
1003,535	62,36
1003,911	62,85
1004,286	62,84
1004,662	62,99
1005,038	62,96
1005,414	62,64
1005,789	62,46
1006,164	63,14
1006,54	62,85
1006,915	63,15
1007,29	63,01
1007,665	63,12
1008,04	62,98
1008,415	62,84
1008,79	62,32
1009,165	61,89
1009,54	62,91
1009,914	62,95
1010,289	63,46
1010,663	63,21
1011,038	62,87
1011,412	63,58
1011,786	63,11
1012,16	62,77
1012,535	62,43
1012,909	63,61
1013,282	63,08
1013,656	62,64
1014,03	64,37
1014,404	63,01
1014,777	62,52
1015,151	63,62
1015,524	63,79
1015,897	63,32
1016,271	62,22
1016,644	63,54
1017,017	64,03
1017,39	61,76
1017,763	63,91
1018,136	63,12
1018,508	63,38
1018,881	63,44
1019,254	62,86
1019,626	62,18
1019,999	62,66
1020,371	62,25
1020,743	63,02
1021,116	63,06
1021,488	63,84
1021,86	63,28
1022,232	63,43
1022,604	63,8
1022,975	63,31
1023,347	64,3
1023,719	63,71
1024,09	64,76
1024,462	63,69
1024,833	62,99
1025,204	64,5
1025,576	63,6
1025,947	64,12
1026,318	62,86
1026,689	62,99
1027,06	63,53
1027,431	63,34
1027,801	64,08
1028,172	62,82
1028,543	63,91
1028,913	63
1029,284	63,36
1029,654	64,43
1030,024	64,31
1030,394	64,43
1030,764	63,43
1031,135	63,15
1031,504	64,39
1031,874	62,67
1032,244	63,87
1032,614	64,84
1032,983	64,09
1033,353	64,03
1033,722	63,85
1034,092	63,75
1034,461	63,73
1034,83	65,14
1035,2	63,51
1035,569	64,18
1035,938	64,08
1036,307	64,63
1036,675	64,79
1037,044	64,31
1037,413	63,86
1037,781	63,52
1038,15	63,13
1038,518	64,86
1038,887	64,63
1039,255	63,93
1039,623	64,14
1039,991	64,45
1040,359	65,08
1040,727	64,39
1041,095	64,08
1041,463	65,22
1041,831	64,35
1042,198	63,9
1042,566	63,04
1042,933	64,74
1043,301	63,67
1043,668	64,3
1044,035	64,11
1044,402	64,49
1044,77	64,19
1045,137	63,05
1045,503	64,11
1045,87	63,67
1046,237	63,26
1046,604	64,81
1046,97	64,98
1047,337	63,39
1047,703	64,64
1048,07	64,21
1048,436	64,81
1048,802	63,72
1049,168	63,43
1049,534	64,6
1049,9	64,21
1050,266	64,3
1050,632	62,92
1050,998	64,14
1051,364	62,9
1051,729	63,65
1052,095	64,83
1052,46	63,84
1052,825	63,33
1053,191	64,41
1053,556	65,08
1053,921	65,42
1054,286	65,47
1054,651	65,69
1055,016	64,21
1055,381	64,85
1055,745	64,33
1056,11	63,17
1056,475	64,2
1056,839	66,32
1057,203	65,41
1057,568	63,05
1057,932	65,7
1058,296	66,72
1058,66	64,36
1059,024	66,15
1059,388	64,26
1059,752	64,45
1060,116	64,92
1060,48	64,56
1060,843	62,98
1061,207	63,74
1061,57	65,04
1061,934	66,66
1062,297	64,04
1062,66	64,01
1063,023	64,59
1063,386	66,14
1063,749	64,62
1064,112	66,76
1064,475	64,17
1064,838	64,76
1065,201	64,89
1065,563	63,36
1065,926	66,52
1066,288	64,38
1066,651	64,89
1067,013	62,55
1067,375	64,63
1067,737	64,8
1068,099	64,37
1068,461	64,89
1068,823	64,7
1069,185	65,19
1069,547	64,21
1069,909	65,52
1070,27	64,31
1070,632	67,02
1070,993	64,01
1071,355	65,53
1071,716	65,32
1072,077	65,83
1072,438	64,12
1072,799	63,34
1073,16	65,68
1073,521	66,07
1073,882	62,59
1074,243	64,95
1074,603	65,69
1074,964	66,49
1075,325	65,01
1075,685	66,9
1076,045	65,12
1076,406	63,74
1076,766	66,21
1077,126	65,18
1077,486	66,75
1077,846	65,05
1078,206	63,51
1078,566	64,02
1078,925	63,57
1079,285	65,25
1079,645	63,44
1080,004	66,11
1080,364	62,48
1080,723	65,81
1081,082	64,05
1081,442	64,08
1081,801	63,77
1082,16	64,31
1082,519	62,25
1082,878	66,92
1083,237	64,01
1083,595	64,44
1083,954	65,19
1084,313	64,8
1084,671	64,9
1085,03	65,28
1085,388	65,17
1085,746	64,87
1086,104	62,58
1086,463	65,73
1086,821	67,48
1087,179	65,45
1087,537	67,31
1087,894	65,52
1088,252	64,39
1088,61	65,37
1088,967	63,95
1089,325	62,82
1089,682	68,08
1090,04	66,49
1090,397	65,98
1090,754	62,61
1091,111	62,34
1091,469	62,46
1091,826	68,04
1092,182	64,22
1092,539	64,31
1092,896	66,44
1093,253	64,5
1093,609	66,04
1093,966	65,46
1094,322	63,5
1094,679	67,94
1095,035	65,86
1095,391	66,78
1095,748	65,34
1096,104	66,87
1096,46	66,6
1096,816	63,04
1097,171	64,81
1097,527	68,66
1097,883	65,45
1098,239	63,74
1098,594	65,03
1098,95	64,86
1099,305	65,56
1099,66	68,6
1100,016	65,78
1100,371	67,18
1100,726	66,96
1101,081	67,92
1101,436	66,85
1101,791	64,33
1102,146	65,3
1102,5	67,53
1102,855	66,89
1103,21	66,13
1103,564	62,93
1103,918	70,03
1104,273	64,78
1104,627	65,44
1104,981	70,17
1105,335	65,07
1105,69	65,75
1106,043	64,83
1106,397	63,59
1106,751	65,78
1107,105	65,96
1107,459	65,15
1107,812	67,83
1108,166	67,3
1108,519	65,37
1108,873	67,71
1109,226	65,98
1109,579	66,78
1109,932	63,89
1110,285	63,61
1110,638	67,33
1110,991	66,74
1111,344	63,86
1111,697	68,28
1112,05	63,5
1112,402	67,85
1112,755	70,8
1113,107	68,37
1113,46	70,56
1113,812	66,33
1114,164	67,68
1114,517	73,14
1114,869	84,77
1115,221	79,17
1115,573	93,43
1115,924	80,52
