Data from D_5_Relative__5__00085.txt Node

Date: Tue Jan 30 10:02:46 CET 2024
User: diatiterra
Spectrometer: HDX00911
Trigger mode: 0
Integration Time (sec): 6,000000E-3
Scans to average: 2
Nonlinearity correction enabled: false
Boxcar width: 0
Storing dark spectrum: false
XAxis mode: Wavelengths
Number of Pixels in Spectrum: 2068
>>>>>Begin Spectral Data<<<<<
194,468	79,56
195,025	86,29
195,581	82,58
196,138	82,17
196,694	72,14
197,251	66,08
197,807	70
198,363	62,3
198,919	69,36
199,474	72,88
200,03	66,54
200,586	66,08
201,141	73,11
201,696	64,29
202,251	70,15
202,806	65,96
203,361	70,73
203,916	68,88
204,471	67,82
205,025	63,6
205,58	65,9
206,134	70,52
206,688	67,81
207,242	65,32
207,796	61,02
208,35	78,54
208,904	70,97
209,457	71,71
210,011	67,69
210,564	71,62
211,117	80,85
211,67	72,06
212,223	60,96
212,776	73,73
213,329	66,67
213,881	78,79
214,434	63,11
214,986	75
215,538	76,77
216,09	65,86
216,642	69,83
217,194	71,77
217,746	70,12
218,297	77,73
218,849	73
219,4	71,43
219,951	78,76
220,502	75,49
221,053	72,88
221,604	75,59
222,155	72,46
222,705	72,34
223,256	69,66
223,806	70,83
224,356	77,94
224,906	75,77
225,456	63,45
226,006	76,79
226,556	72,57
227,106	71,37
227,655	70,23
228,204	78,73
228,754	72,57
229,303	87,84
229,852	80,79
230,401	68,61
230,949	62,77
231,498	73,21
232,047	71,31
232,595	72,29
233,143	73,25
233,691	62,9
234,239	66,03
234,787	65,92
235,335	74,89
235,883	70,27
236,43	69,07
236,978	73,04
237,525	66,38
238,072	66,08
238,619	65,92
239,166	64,66
239,713	75,11
240,26	61,69
240,806	63,36
241,353	74,36
241,899	62,14
242,445	69,46
242,991	67,21
243,537	65,37
244,083	68,78
244,629	61,67
245,174	65,53
245,72	65,25
246,265	69,68
246,81	76
247,355	68,98
247,9	72,92
248,445	58,73
248,99	66,38
249,534	65,28
250,079	69,44
250,623	66,37
251,168	70,61
251,712	55,9
252,256	64,05
252,8	82,3
253,343	68,83
253,887	73,16
254,43	67,78
254,974	70,4
255,517	71,63
256,06	62,03
256,603	76,54
257,146	63,85
257,689	72,46
258,232	69,68
258,774	59,91
259,317	71,98
259,859	73,33
260,401	69,16
260,943	65,15
261,485	66,82
262,027	63,4
262,569	70,83
263,11	67,26
263,652	61,06
264,193	66,98
264,734	75
265,275	76,82
265,816	60,26
266,357	70,12
266,898	66,67
267,438	66,81
267,979	62,5
268,519	71,63
269,059	64,82
269,6	65,49
270,14	65,09
270,68	71,31
271,219	68,26
271,759	66,81
272,298	69,6
272,838	60,56
273,377	72,07
273,916	65,37
274,455	62,69
274,994	70,05
275,533	60,84
276,072	62,98
276,61	64,04
277,149	60,83
277,687	70,34
278,225	67,49
278,763	56,11
279,301	64,9
279,839	68,85
280,377	55,1
280,914	67,13
281,452	65,04
281,989	68,18
282,526	57,5
283,064	67,05
283,601	65,83
284,137	61,78
284,674	66,11
285,211	58,95
285,747	62,6
286,284	63,79
286,82	66,53
287,356	62,67
287,892	54,73
288,428	64,38
288,964	66,39
289,5	69,77
290,035	68,46
290,571	64,59
291,106	60,63
291,641	58,52
292,176	60
292,711	63,36
293,246	58,62
293,781	56,09
294,315	66,98
294,85	60,16
295,384	66,04
295,918	66,4
296,453	69,64
296,987	63,98
297,52	64,25
298,054	64,71
298,588	63,2
299,121	69,37
299,655	63,68
300,188	61,86
300,721	62,95
301,254	65,47
301,787	65,35
302,32	69,23
302,853	71,91
303,385	66,67
303,918	58,67
304,45	66,38
304,982	65,6
305,514	60,98
306,046	69,91
306,578	65,98
307,11	63,64
307,641	70,59
308,173	63,91
308,704	70,33
309,236	70,87
309,767	57,08
310,298	64,4
310,829	65,89
311,359	69,91
311,89	57,69
312,421	59,18
312,951	61,09
313,481	65,88
314,012	60,85
314,542	65,77
315,072	63,52
315,601	61,29
316,131	64,38
316,661	63,32
317,19	50,61
317,72	58,05
318,249	59,63
318,778	68,72
319,307	66,94
319,836	66,4
320,365	60
320,893	68,11
321,422	63,68
321,95	66,96
322,479	63,05
323,007	55,78
323,535	66,79
324,063	62,65
324,591	68,2
325,118	62,34
325,646	63,79
326,173	66,07
326,701	60,16
327,228	71,02
327,755	61,43
328,282	68,18
328,809	58,77
329,336	70,21
329,862	58,03
330,389	70,04
330,915	62,4
331,441	67,51
331,968	50,2
332,494	66,22
333,02	63,18
333,545	68,83
334,071	56,3
334,597	69,01
335,122	66,67
335,648	63,6
336,173	65,25
336,698	54,51
337,223	63,38
337,748	65,88
338,272	65,67
338,797	61,35
339,322	67,95
339,846	54,22
340,37	62,45
340,894	62,03
341,419	66,53
341,942	57,75
342,466	55,75
342,99	63,5
343,514	69,23
344,037	59,4
344,56	64,14
345,084	64,41
345,607	66,04
346,13	63,31
346,653	56,83
347,175	63,14
347,698	67,03
348,221	66,8
348,743	69,06
349,265	63,27
349,787	57,49
350,309	61,31
350,831	54,58
351,353	71,43
351,875	60,81
352,397	52,2
352,918	59,36
353,439	59,76
353,961	61,54
354,482	56,04
355,003	54,89
355,524	54,05
356,044	62,55
356,565	58,33
357,086	51,62
357,606	51,67
358,126	52,84
358,646	46,55
359,167	52,82
359,687	49,83
360,206	57,51
360,726	51,42
361,246	52,01
361,765	54,05
362,285	51,34
362,804	51,83
363,323	56,76
363,842	59,74
364,361	55,73
364,88	51,35
365,398	53,17
365,917	53,25
366,435	51,52
366,954	56,23
367,472	54,05
367,99	42,49
368,508	52,73
369,026	56,09
369,544	52,17
370,061	50,4
370,579	54,97
371,096	52,36
371,613	43,7
372,131	47,52
372,648	51,27
373,165	54,35
373,681	42,67
374,198	51,65
374,715	46,91
375,231	46,67
375,747	48,64
376,264	42,23
376,78	53,08
377,296	42,86
377,812	45,39
378,327	48,59
378,843	44,36
379,359	40,53
379,874	41,37
380,389	42,69
380,905	48,2
381,42	40,82
381,935	41,59
382,449	41,02
382,964	41,21
383,479	42,17
383,993	46,8
384,508	41,54
385,022	37,85
385,536	37,36
386,05	35,62
386,564	33,86
387,078	43,8
387,592	39,51
388,105	34,93
388,619	37,32
389,132	36,27
389,645	36,41
390,158	34,49
390,671	35,98
391,184	36,42
391,697	37,13
392,21	32,75
392,722	32,96
393,235	31,73
393,747	33,43
394,259	32,15
394,771	34,24
395,283	30,71
395,795	30,13
396,307	34,04
396,818	30,51
397,33	31,3
397,841	27,15
398,353	28,9
398,864	30,38
399,375	29,76
399,886	27,25
400,397	28,48
400,907	26,65
401,418	25,44
401,928	27,95
402,439	25,78
402,949	22,86
403,459	26,54
403,969	25,1
404,479	23,03
404,989	21,76
405,498	22,96
406,008	22,02
406,517	23,81
407,027	19,74
407,536	21,79
408,045	19,6
408,554	16,87
409,063	17,39
409,572	17,2
410,08	18,46
410,589	15,63
411,097	16,2
411,606	15,19
412,114	13,75
412,622	14,22
413,13	14,27
413,638	13,82
414,145	13,6
414,653	12,24
415,16	13,32
415,668	13,47
416,175	11,17
416,682	11,69
417,189	12,19
417,696	11,75
418,203	12,45
418,71	10,47
419,216	11,95
419,723	11,44
420,229	9,85
420,735	10,18
421,242	10,72
421,748	10,59
422,254	11,3
422,759	10,48
423,265	9,66
423,771	9,26
424,276	9,68
424,781	9,85
425,287	10,07
425,792	9,26
426,297	9,57
426,802	9,19
427,306	9,57
427,811	8,56
428,316	9,48
428,82	9,66
429,324	9,19
429,829	8,71
430,333	8,94
430,837	8,96
431,34	9,01
431,844	8,22
432,348	8,82
432,851	8,53
433,355	8,38
433,858	8,9
434,361	8,9
434,864	8,32
435,367	8,8
435,87	7,87
436,373	7,98
436,876	8,5
437,378	8,53
437,88	7,94
438,383	8,58
438,885	8,03
439,387	8,15
439,889	7,89
440,391	7,88
440,892	8,09
441,394	8,13
441,896	7,61
442,397	8,07
442,898	7,75
443,399	8,06
443,9	7,87
444,401	8,31
444,902	8,05
445,403	7,98
445,903	8,31
446,404	8,25
446,904	8,69
447,405	8,22
447,905	7,92
448,405	8,46
448,905	7,89
449,404	7,86
449,904	7,94
450,404	8,04
450,903	8,48
451,403	7,88
451,902	8,36
452,401	8,29
452,9	8,09
453,399	7,91
453,898	8,15
454,396	7,9
454,895	8,46
455,393	7,99
455,892	8,33
456,39	7,58
456,888	8,51
457,386	7,75
457,884	8,18
458,382	8,38
458,879	8,07
459,377	8,03
459,874	7,9
460,372	8,18
460,869	8,05
461,366	8,4
461,863	7,75
462,36	7,95
462,857	8,01
463,353	8,55
463,85	8,01
464,346	8,19
464,843	8,32
465,339	8,16
465,835	8,56
466,331	7,86
466,827	7,83
467,323	7,9
467,818	8,05
468,314	7,91
468,809	7,93
469,305	7,73
469,8	8,01
470,295	8,15
470,79	7,96
471,285	8,06
471,78	7,83
472,274	7,85
472,769	7,88
473,263	8,15
473,758	8,1
474,252	7,66
474,746	7,74
475,24	7,92
475,734	8,25
476,228	7,84
476,721	8,38
477,215	8,1
477,708	7,63
478,202	7,65
478,695	7,84
479,188	8,05
479,681	7,84
480,174	7,8
480,667	7,52
481,159	8,2
481,652	7,9
482,144	7,94
482,637	7,65
483,129	7,65
483,621	8,25
484,113	7,83
484,605	7,79
485,097	7,99
485,588	8,04
486,08	8,15
486,571	8,03
487,063	8,19
487,554	7,83
488,045	7,96
488,536	7,56
489,027	8,51
489,518	8,26
490,008	7,96
490,499	8,4
490,989	8,38
491,48	8,32
491,97	8,42
492,46	8,11
492,95	8,36
493,44	8,28
493,93	8,19
494,419	8,89
494,909	8,34
495,398	8,76
495,888	9,03
496,377	8,75
496,866	8,86
497,355	9,07
497,844	9,11
498,333	9,12
498,821	9,05
499,31	9,03
499,798	9,53
500,287	9,75
500,775	9,57
501,263	9,67
501,751	10,05
502,239	9,92
502,727	10,32
503,215	10,52
503,702	10,57
504,19	11,01
504,677	11,04
505,164	11,2
505,651	11,32
506,139	11,37
506,625	11,39
507,112	12,05
507,599	12,33
508,086	12,48
508,572	12,32
509,058	12,75
509,545	13,12
510,031	13,24
510,517	13,27
511,003	13,72
511,489	14,14
511,974	14,51
512,46	14,95
512,946	15,01
513,431	14,75
513,916	15,44
514,401	15,82
514,887	15,76
515,371	16,17
515,856	17,1
516,341	17,26
516,826	17,29
517,31	17,64
517,795	18,41
518,279	18,42
518,763	18,85
519,247	18,85
519,731	19,35
520,215	19,72
520,699	20,11
521,182	20,9
521,666	21,01
522,149	21,54
522,633	21,72
523,116	22,43
523,599	22,62
524,082	22,77
524,565	23,23
525,048	23,48
525,53	23,6
526,013	24,14
526,495	24,76
526,978	25,45
527,46	24,55
527,942	25,44
528,424	26,21
528,906	25,8
529,388	25,93
529,87	26,48
530,351	25,81
530,833	27,07
531,314	26,73
531,795	27,68
532,277	27,66
532,758	27,75
533,238	27,63
533,719	28,12
534,2	28,45
534,681	28,46
535,161	28,59
535,642	28,21
536,122	29,19
536,602	28,85
537,082	28,79
537,562	28,68
538,042	29,06
538,522	28,52
539,001	28,61
539,481	29,35
539,96	29,12
540,44	29,05
540,919	29,5
541,398	29,34
541,877	29,34
542,356	29,55
542,835	29,65
543,313	29,14
543,792	29,54
544,27	30,24
544,749	30,12
545,227	29,95
545,705	29,71
546,183	30,11
546,661	30,67
547,139	30
547,616	29,91
548,094	29,96
548,571	29,74
549,049	30,53
549,526	30,64
550,003	30,35
550,48	30,42
550,957	30,18
551,434	30,23
551,911	30,78
552,387	30,59
552,864	30,74
553,34	30,58
553,817	30,67
554,293	30,56
554,769	29,99
555,245	30,63
555,721	30,63
556,197	30,23
556,672	30,07
557,148	30,51
557,623	29,94
558,099	30,39
558,574	30,47
559,049	29,86
559,524	30,4
559,999	29,23
560,474	29,69
560,948	29,69
561,423	29
561,897	29,18
562,372	29,31
562,846	29,57
563,32	29,74
563,794	29
564,268	28,62
564,742	28,93
565,216	28,43
565,69	28,43
566,163	28,91
566,636	28,14
567,11	28,39
567,583	28,03
568,056	27,26
568,529	27,61
569,002	27,41
569,475	27,68
569,947	26,95
570,42	26,53
570,892	26,5
571,365	26,47
571,837	26,57
572,309	26,4
572,781	25,84
573,253	25,35
573,725	25,13
574,197	24,92
574,668	24,66
575,14	24,7
575,611	24,16
576,082	24,19
576,554	24,06
577,025	23,7
577,496	23,68
577,967	23,85
578,437	23,17
578,908	23,27
579,379	23,14
579,849	22,96
580,319	22,85
580,79	22,56
581,26	22,55
581,73	22,24
582,2	22,34
582,669	22,04
583,139	22,08
583,609	21,89
584,078	21,83
584,548	21,54
585,017	21,97
585,486	21,2
585,955	21,47
586,424	21,01
586,893	20,69
587,362	20,61
587,83	20,76
588,299	20,52
588,767	20,42
589,236	20,83
589,704	20,36
590,172	20,41
590,64	20,37
591,108	20,03
591,576	20,38
592,043	20,13
592,511	20,28
592,978	19,9
593,446	19,95
593,913	19,72
594,38	19,83
594,847	19,98
595,314	19,61
595,781	19,65
596,248	19,29
596,715	19,72
597,181	19,36
597,647	19,53
598,114	19,16
598,58	19,23
599,046	19,11
599,512	18,99
599,978	19
600,444	19,33
600,91	19,23
601,375	19,07
601,841	18,98
602,306	18,67
602,771	18,71
603,236	18,73
603,702	18,61
604,167	18,43
604,631	19,09
605,096	18,63
605,561	18,87
606,025	18,28
606,49	18,41
606,954	18,2
607,418	18,04
607,882	17,82
608,347	17,85
608,81	18,07
609,274	17,63
609,738	17,71
610,202	17,4
610,665	17,26
611,128	17,07
611,592	17,31
612,055	16,63
612,518	17,24
612,981	16,77
613,444	16,54
613,907	16,54
614,369	16,44
614,832	16,33
615,294	16,3
615,757	16,07
616,219	16,14
616,681	16,24
617,143	15,89
617,605	15,83
618,067	15,49
618,529	15,75
618,99	15,4
619,452	15,52
619,913	15,44
620,375	15,38
620,836	15,04
621,297	15,18
621,758	14,99
622,219	14,82
622,68	15,2
623,14	14,96
623,601	14,92
624,061	14,67
624,522	14,78
624,982	14,73
625,442	14,67
625,902	14,65
626,362	14,41
626,822	14,36
627,282	14,74
627,742	14,64
628,201	14,38
628,661	14,65
629,12	14,33
629,579	14,36
630,038	14,55
630,497	14,27
630,956	14,29
631,415	14,33
631,874	14,43
632,332	14,12
632,791	13,87
633,249	14,08
633,708	14
634,166	13,94
634,624	13,95
635,082	13,92
635,54	13,82
635,998	13,84
636,455	13,63
636,913	13,52
637,37	13,44
637,828	13,25
638,285	13,37
638,742	13,21
639,199	13,16
639,656	12,79
640,113	12,69
640,57	12,78
641,027	12,46
641,483	12,35
641,94	12,07
642,396	12,29
642,852	11,8
643,309	11,69
643,765	11,51
644,221	11,46
644,676	11,29
645,132	11,3
645,588	11,22
646,043	11,07
646,499	10,94
646,954	10,81
647,409	10,65
647,864	10,36
648,319	10,38
648,774	10,17
649,229	10,17
649,684	10,32
650,139	9,79
650,593	10,02
651,047	9,81
651,502	9,95
651,956	9,64
652,41	9,71
652,864	9,7
653,318	9,53
653,772	9,54
654,225	9,52
654,679	9,51
655,133	9,48
655,586	9,27
656,039	9,36
656,492	9,37
656,946	9,17
657,399	8,8
657,851	8,91
658,304	8,9
658,757	8,86
659,209	8,84
659,662	8,65
660,114	8,43
660,567	8,35
661,019	8,39
661,471	8,41
661,923	8,27
662,375	8,01
662,826	8,1
663,278	7,79
663,73	7,92
664,181	7,84
664,632	7,79
665,084	7,69
665,535	7,58
665,986	7,76
666,437	7,56
666,888	7,72
667,338	7,58
667,789	7,49
668,24	7,45
668,69	7,53
669,14	7,51
669,591	7,5
670,041	7,5
670,491	7,57
670,941	7,52
671,391	7,56
671,84	7,6
672,29	7,76
672,74	7,68
673,189	7,77
673,638	7,81
674,088	7,93
674,537	8,08
674,986	7,92
675,435	8,07
675,883	8,1
676,332	8,32
676,781	8,3
677,229	8,33
677,678	8,48
678,126	8,53
678,574	8,75
679,022	8,92
679,47	9,03
679,918	9,16
680,366	9,15
680,814	9,12
681,261	9,48
681,709	9,39
682,156	9,4
682,604	9,66
683,051	9,88
683,498	9,97
683,945	10,13
684,392	10,36
684,839	10,37
685,286	10,56
685,732	10,79
686,179	10,78
686,625	10,9
687,071	11,21
687,518	11,64
687,964	11,88
688,41	11,94
688,856	12,15
689,301	12,68
689,747	13,03
690,193	13,08
690,638	13,66
691,084	14,07
691,529	14,5
691,974	15,02
692,419	15,44
692,864	16,12
693,309	16,82
693,754	17,21
694,199	17,67
694,643	18,46
695,088	18,85
695,532	20,02
695,977	20,34
696,421	21,1
696,865	21,56
697,309	22,61
697,753	22,76
698,197	23,5
698,64	24,44
699,084	25,05
699,527	25,69
699,971	26,22
700,414	27,27
700,857	27,35
701,3	28,4
701,743	28,9
702,186	29,59
702,629	30,35
703,072	31,16
703,515	31,41
703,957	32,08
704,399	32,41
704,842	33,03
705,284	33,82
705,726	34,31
706,168	34,97
706,61	35,38
707,052	36,05
707,494	36,39
707,935	37,09
708,377	37,67
708,818	38
709,26	38,75
709,701	39,21
710,142	39,56
710,583	39,86
711,024	40,56
711,465	40,86
711,905	41,57
712,346	41,77
712,787	42,06
713,227	42,39
713,667	43,21
714,108	43,52
714,548	44,31
714,988	44,25
715,428	44,4
715,868	45,15
716,307	45,39
716,747	46,02
717,186	46,58
717,626	46,63
718,065	47,29
718,504	47,39
718,944	47,29
719,383	47,77
719,822	48,07
720,261	48,57
720,699	49,26
721,138	48,54
721,576	49,81
722,015	49,81
722,453	50,36
722,892	50,87
723,33	50,71
723,768	50,69
724,206	51,03
724,644	51,5
725,081	51,34
725,519	52
725,957	52,21
726,394	52,19
726,832	52,12
727,269	52,66
727,706	53,18
728,143	52,97
728,58	53,47
729,017	53,59
729,454	53,74
729,89	53,57
730,327	54,32
730,764	54,37
731,2	54,61
731,636	54,57
732,072	54,5
732,509	54,3
732,945	55
733,38	55,12
733,816	54,91
734,252	55,33
734,688	55,45
735,123	55,68
735,559	55,09
735,994	55,43
736,429	55,54
736,864	55,83
737,299	55,59
737,734	55,89
738,169	56,37
738,604	55,65
739,038	55,91
739,473	56,24
739,907	56,01
740,342	56,36
740,776	56,33
741,21	56,12
741,644	56,66
742,078	56,16
742,512	56,4
742,946	56,59
743,379	56,69
743,813	56,62
744,246	56,75
744,68	56,56
745,113	56,66
745,546	56,47
745,979	56,16
746,412	56,66
746,845	55,94
747,278	56,22
747,711	56,5
748,143	57,16
748,576	56,51
749,008	55,88
749,441	56,72
749,873	56,24
750,305	56,45
750,737	56,46
751,169	56,56
751,601	56,18
752,032	56,15
752,464	56,11
752,896	56,46
753,327	56,47
753,758	56,34
754,19	56,23
754,621	56,72
755,052	55,99
755,483	56,07
755,914	56,1
756,344	56,22
756,775	55,86
757,206	56,07
757,636	55,69
758,066	55,67
758,497	56,08
758,927	55,7
759,357	56,18
759,787	55,61
760,217	55,72
760,647	55,61
761,076	55,7
761,506	55,21
761,935	55,71
762,365	56,17
762,794	55,69
763,223	55,3
763,653	55,65
764,082	55,67
764,51	55,54
764,939	55,41
765,368	55,84
765,797	55,63
766,225	54,99
766,654	55,02
767,082	55,27
767,51	55,15
767,938	54,79
768,367	55,08
768,795	55,57
769,222	55,12
769,65	55,27
770,078	55,18
770,505	54,74
770,933	54,86
771,36	54,74
771,788	55,04
772,215	55,46
772,642	54,99
773,069	54,52
773,496	54,75
773,923	54,97
774,349	54,89
774,776	55,17
775,203	54,99
775,629	54,87
776,055	54,97
776,482	54,57
776,908	55,19
777,334	54,56
777,76	55,04
778,186	54,44
778,611	55,09
779,037	54,88
779,463	54,91
779,888	54,63
780,314	54,52
780,739	54,51
781,164	54,71
781,589	54,6
782,014	54,2
782,439	54,45
782,864	54,34
783,289	54,32
783,713	54,35
784,138	54,72
784,562	54,47
784,987	54,62
785,411	54,36
785,835	54,92
786,259	54,62
786,683	54,76
787,107	54,39
787,531	54,72
787,954	54,32
788,378	54,62
788,802	54,48
789,225	54,08
789,648	54,47
790,071	54,29
790,495	54,63
790,918	54,74
791,34	54,24
791,763	54,09
792,186	54,24
792,609	54,23
793,031	53,96
793,454	54,53
793,876	54,37
794,298	54,52
794,721	54,7
795,143	54,06
795,565	54,25
795,986	53,86
796,408	54,2
796,83	54,59
797,252	54,2
797,673	54,36
798,094	54,32
798,516	54,24
798,937	53,95
799,358	54,53
799,779	54,53
800,2	54,27
800,621	54,11
801,042	54,06
801,462	54,19
801,883	53,99
802,303	53,64
802,724	54,01
803,144	54,39
803,564	54,33
803,984	54,05
804,404	54,04
804,824	54,25
805,244	54,47
805,664	53,99
806,084	54,15
806,503	54,09
806,923	53,91
807,342	54,26
807,761	53,7
808,18	54,39
808,599	54,19
809,018	54,31
809,437	54,2
809,856	54,09
810,275	54,34
810,693	53,98
811,112	54,14
811,53	54,2
811,949	54,29
812,367	53,97
812,785	53,94
813,203	53,85
813,621	54,47
814,039	54,1
814,457	53,7
814,874	53,79
815,292	53,87
815,709	53,83
816,127	54,28
816,544	53,88
816,961	53,96
817,378	54
817,795	53,73
818,212	54,07
818,629	53,88
819,046	54,5
819,462	54,49
819,879	54,2
820,295	54,1
820,712	54,08
821,128	54,12
821,544	54,14
821,96	53,69
822,376	54,29
822,792	54,16
823,208	53,77
823,624	53,94
824,039	53,88
824,455	54,51
824,87	53,82
825,286	54,04
825,701	53,4
826,116	53,84
826,531	53,99
826,946	53,7
827,361	54,07
827,776	53,52
828,19	54,13
828,605	53,5
829,02	53,98
829,434	53,56
829,848	54,19
830,263	53,94
830,677	53,96
831,091	53,53
831,505	53,55
831,919	53,88
832,332	53,8
832,746	54,03
833,16	53,97
833,573	53,51
833,987	53,38
834,4	53,57
834,813	53,63
835,226	53,65
835,639	53,43
836,052	53,91
836,465	53,86
836,878	53,41
837,29	53,59
837,703	54
838,116	53,9
838,528	53,93
838,94	53,5
839,352	54,17
839,765	53,98
840,177	53,67
840,589	53,61
841	53,61
841,412	54,19
841,824	54,11
842,235	53,61
842,647	53,79
843,058	53,87
843,47	53,86
843,881	53,62
844,292	53,66
844,703	53,46
845,114	53,28
845,525	53,68
845,935	53,54
846,346	53,39
846,757	53,69
847,167	53,68
847,577	53,88
847,988	53,77
848,398	53,14
848,808	53,78
849,218	53,74
849,628	53,84
850,038	53,41
850,448	53,51
850,857	53,75
851,267	54,2
851,676	53,86
852,086	53,87
852,495	53,49
852,904	53,92
853,313	53,35
853,722	53,46
854,131	53,18
854,54	53,71
854,949	53,56
855,357	53,89
855,766	53,74
856,174	53,4
856,583	54,08
856,991	53,13
857,399	53,59
857,807	53,22
858,215	53,73
858,623	53,53
859,031	53,6
859,439	53,33
859,846	53,75
860,254	53,35
860,661	53,55
861,069	54,1
861,476	53,73
861,883	53,37
862,29	53,83
862,697	53,61
863,104	53,62
863,511	53,87
863,918	53,65
864,325	53,52
864,731	53,66
865,138	53,9
865,544	53,68
865,95	53,84
866,357	53,44
866,763	53,21
867,169	53,63
867,575	53,78
867,98	53,29
868,386	53,58
868,792	53,76
869,197	53,9
869,603	53,66
870,008	53,49
870,414	53,93
870,819	53,9
871,224	53,25
871,629	53,95
872,034	53,22
872,439	52,97
872,844	53,57
873,248	53,97
873,653	53,88
874,057	53,47
874,462	53,64
874,866	53,46
875,27	54
875,674	53,39
876,078	53,27
876,482	53,44
876,886	53,9
877,29	53,56
877,694	53,77
878,097	53,96
878,501	53,12
878,904	53,41
879,308	53,53
879,711	53,7
880,114	53,49
880,517	53,77
880,92	53,05
881,323	53,99
881,726	53,74
882,128	53,46
882,531	53,73
882,934	53,02
883,336	53,54
883,738	53,82
884,141	53,51
884,543	53,84
884,945	53,29
885,347	53,27
885,749	53,5
886,151	53,47
886,552	53,1
886,954	53,27
887,355	53,44
887,757	53,26
888,158	54,34
888,56	53,53
888,961	53,79
889,362	53,27
889,763	53,33
890,164	53,41
890,565	53,21
890,965	53,72
891,366	53,04
891,767	53,36
892,167	53,47
892,567	53,56
892,968	53,71
893,368	53,67
893,768	53,18
894,168	53,11
894,568	53,12
894,968	54,05
895,368	53,62
895,767	53,3
896,167	53,56
896,566	53,39
896,966	53,45
897,365	53,18
897,764	53,56
898,164	53,14
898,563	53,63
898,962	53,31
899,361	53,43
899,759	53,91
900,158	53,45
900,557	53,72
900,955	53,25
901,354	54,1
901,752	53,87
902,15	54,08
902,548	53,61
902,947	53,44
903,345	53,26
903,742	53,63
904,14	53,14
904,538	53,67
904,936	53,3
905,333	53,84
905,731	53,27
906,128	53,73
906,525	53,25
906,923	53,66
907,32	53,22
907,717	53,5
908,114	53,33
908,511	54,25
908,907	53,19
909,304	54,25
909,701	53,16
910,097	52,78
910,494	53,43
910,89	53,99
911,286	53,26
911,682	53,12
912,078	53,7
912,474	53,54
912,87	53,28
913,266	53,94
913,662	53,73
914,058	53,74
914,453	53,64
914,849	53,31
915,244	53,92
915,639	53,79
916,034	53,62
916,43	53,29
916,825	53,97
917,22	53,18
917,614	53,29
918,009	53,23
918,404	53,58
918,798	52,64
919,193	53,28
919,587	53,23
919,982	53,57
920,376	53,27
920,77	53,29
921,164	53,38
921,558	53,82
921,952	53,06
922,346	53,32
922,74	53,41
923,133	53,33
923,527	53,68
923,92	53,43
924,314	52,92
924,707	53,19
925,1	53,38
925,493	52,88
925,886	53,17
926,279	53,22
926,672	53,09
927,065	53,64
927,457	53,51
927,85	53,64
928,243	52,99
928,635	52,45
929,027	53,13
929,42	53,34
929,812	53,08
930,204	53,12
930,596	53,35
930,988	53,4
931,379	53,02
931,771	52,96
932,163	53,55
932,554	52,99
932,946	53,27
933,337	53,28
933,729	53,15
934,12	53,02
934,511	52,49
934,902	53,84
935,293	52,59
935,684	53,21
936,075	53,38
936,465	53,38
936,856	53,65
937,246	53,53
937,637	53,58
938,027	53,4
938,417	52,81
938,808	53,21
939,198	53,77
939,588	54,07
939,978	53,08
940,368	53,11
940,757	53,34
941,147	52,77
941,537	53,05
941,926	52,68
942,315	52,77
942,705	53,19
943,094	52,12
943,483	53,54
943,872	53,34
944,261	53,72
944,65	51,82
945,039	53,39
945,428	52,54
945,816	53,58
946,205	53,12
946,593	52,64
946,982	52,68
947,37	52,41
947,758	53,45
948,146	52,99
948,534	52,86
948,922	52,61
949,31	52,79
949,698	52,64
950,086	52,32
950,473	53,24
950,861	52,57
951,248	52,34
951,636	52,29
952,023	52,98
952,41	52,06
952,797	52,55
953,184	52,26
953,571	52,47
953,958	52,15
954,345	52,66
954,731	51,96
955,118	51,92
955,505	51,85
955,891	52,09
956,277	51,84
956,664	52,34
957,05	52,14
957,436	52,31
957,822	51,81
958,208	52,4
958,594	52,03
958,979	51,85
959,365	52,25
959,751	51,95
960,136	52,36
960,522	52,07
960,907	51,91
961,292	52,45
961,677	51,77
962,062	52,09
962,447	51,66
962,832	51,07
963,217	52,68
963,602	51,9
963,986	51,41
964,371	51,5
964,756	50,79
965,14	51,56
965,524	51,42
965,908	51,59
966,293	51,56
966,677	51,88
967,061	52,41
967,445	51,79
967,828	51,9
968,212	51,85
968,596	51,57
968,979	51,46
969,363	52,26
969,746	51,53
970,129	51,45
970,513	52,26
970,896	51,82
971,279	51,39
971,662	50,93
972,045	50,76
972,428	51,97
972,81	52,38
973,193	52,41
973,575	52,08
973,958	51,06
974,34	51,22
974,723	51,16
975,105	51,55
975,487	51,94
975,869	52,27
976,251	51,35
976,633	52,08
977,015	51,42
977,396	51,83
977,778	51,15
978,16	52,31
978,541	51,43
978,922	51,88
979,304	52,04
979,685	51,08
980,066	51,33
980,447	51,79
980,828	51,98
981,209	51,79
981,59	52,01
981,97	51,59
982,351	50,9
982,732	51,89
983,112	51,85
983,493	51,8
983,873	51,31
984,253	52,52
984,633	51,91
985,013	51,33
985,393	51,91
985,773	51,61
986,153	51,69
986,533	51,69
986,912	51,82
987,292	50,96
987,671	51,24
988,051	51,6
988,43	51,07
988,809	52,09
989,188	52,24
989,567	51,88
989,946	51,79
990,325	52,31
990,704	52,05
991,083	51,94
991,461	52
991,84	51,98
992,218	51,82
992,597	52,29
992,975	51,01
993,353	51,7
993,732	52,12
994,11	51,67
994,488	52,36
994,866	52,19
995,243	52,16
995,621	52,27
995,999	51,9
996,376	52,08
996,754	51,35
997,131	51,65
997,509	52,3
997,886	52,36
998,263	51,25
998,64	52,06
999,017	52,14
999,394	52,19
999,771	51,9
1000,148	51,85
1000,524	52,26
1000,901	52,71
1001,277	52,64
1001,654	52,08
1002,03	52,3
1002,406	52,71
1002,783	51,74
1003,159	51,63
1003,535	52,05
1003,911	51,96
1004,286	52,22
1004,662	52,91
1005,038	51,84
1005,414	50,84
1005,789	52,31
1006,164	52,45
1006,54	52,03
1006,915	52,51
1007,29	52,78
1007,665	52,11
1008,04	53,2
1008,415	52,23
1008,79	51,8
1009,165	51,91
1009,54	52,38
1009,914	51,99
1010,289	52,68
1010,663	51,7
1011,038	51,85
1011,412	52,46
1011,786	52,94
1012,16	52,43
1012,535	52,52
1012,909	53,38
1013,282	51,61
1013,656	52,81
1014,03	52,91
1014,404	52,18
1014,777	51,89
1015,151	52,06
1015,524	52,54
1015,897	52,44
1016,271	52,4
1016,644	51,75
1017,017	53,32
1017,39	52,4
1017,763	53,2
1018,136	52,46
1018,508	52,74
1018,881	53,37
1019,254	52,47
1019,626	52,51
1019,999	51,78
1020,371	51,81
1020,743	52,45
1021,116	52,6
1021,488	52,6
1021,86	52,38
1022,232	53,5
1022,604	53,31
1022,975	54,14
1023,347	53,36
1023,719	52,35
1024,09	52,88
1024,462	52,65
1024,833	53,18
1025,204	54,23
1025,576	53,23
1025,947	53,36
1026,318	53,61
1026,689	52,74
1027,06	52,83
1027,431	53,84
1027,801	53,24
1028,172	51,94
1028,543	52,08
1028,913	52,37
1029,284	52,61
1029,654	54,39
1030,024	53,33
1030,394	54,67
1030,764	53,07
1031,135	53,03
1031,504	52,47
1031,874	53,61
1032,244	52,69
1032,614	54,01
1032,983	53,01
1033,353	53,91
1033,722	53,13
1034,092	54,04
1034,461	52,65
1034,83	53,56
1035,2	53,09
1035,569	53,04
1035,938	53,48
1036,307	54,54
1036,675	53,9
1037,044	53,76
1037,413	53,55
1037,781	53,46
1038,15	54,55
1038,518	53,07
1038,887	54,15
1039,255	52,91
1039,623	53,34
1039,991	52,75
1040,359	54,42
1040,727	53,92
1041,095	53,67
1041,463	54,39
1041,831	54,77
1042,198	52,29
1042,566	52,71
1042,933	53,07
1043,301	53,09
1043,668	53,32
1044,035	53,75
1044,402	54,66
1044,77	53,5
1045,137	53,45
1045,503	53,45
1045,87	55,18
1046,237	53,27
1046,604	54,68
1046,97	52,35
1047,337	52,89
1047,703	53,26
1048,07	53,8
1048,436	53,61
1048,802	52,96
1049,168	52,87
1049,534	53,77
1049,9	55,24
1050,266	52,96
1050,632	53,17
1050,998	53,55
1051,364	51,82
1051,729	54,16
1052,095	54,32
1052,46	53,84
1052,825	54,32
1053,191	53,54
1053,556	54,61
1053,921	54,5
1054,286	53,34
1054,651	54,15
1055,016	55,18
1055,381	52,3
1055,745	54,14
1056,11	53,52
1056,475	53,13
1056,839	55,2
1057,203	53,28
1057,568	53,41
1057,932	55,21
1058,296	55,46
1058,66	53,41
1059,024	54,96
1059,388	53,02
1059,752	53,9
1060,116	54,07
1060,48	54,02
1060,843	52,76
1061,207	51,73
1061,57	55,07
1061,934	53,9
1062,297	54,53
1062,66	54,4
1063,023	53,95
1063,386	55,97
1063,749	55,53
1064,112	54,55
1064,475	53,16
1064,838	52,81
1065,201	54,1
1065,563	54,12
1065,926	55,06
1066,288	53,92
1066,651	54,3
1067,013	54,42
1067,375	55,13
1067,737	53,81
1068,099	54,9
1068,461	55,42
1068,823	54,85
1069,185	53,69
1069,547	55,85
1069,909	53,41
1070,27	52,9
1070,632	54,26
1070,993	54,33
1071,355	52,22
1071,716	54,81
1072,077	55,78
1072,438	53,15
1072,799	54,6
1073,16	55,21
1073,521	53,65
1073,882	52,88
1074,243	55,25
1074,603	53,1
1074,964	55,11
1075,325	56,55
1075,685	55,73
1076,045	56,21
1076,406	55,8
1076,766	56,1
1077,126	53,67
1077,486	57,46
1077,846	53,14
1078,206	54,55
1078,566	55,02
1078,925	53,99
1079,285	52,87
1079,645	55,14
1080,004	56,71
1080,364	53,72
1080,723	56,01
1081,082	55,43
1081,442	54,66
1081,801	53,91
1082,16	54,71
1082,519	53,25
1082,878	53,57
1083,237	56,06
1083,595	54,83
1083,954	55,67
1084,313	53,91
1084,671	53
1085,03	52,91
1085,388	57,56
1085,746	55,13
1086,104	55,46
1086,463	54,87
1086,821	56,3
1087,179	52,99
1087,537	56,69
1087,894	55,62
1088,252	53,53
1088,61	56,53
1088,967	53,8
1089,325	52,81
1089,682	55,43
1090,04	55,54
1090,397	57,06
1090,754	56,11
1091,111	54,44
1091,469	54,49
1091,826	56,57
1092,182	53,04
1092,539	54,61
1092,896	56,35
1093,253	54,19
1093,609	56,25
1093,966	55,26
1094,322	57,01
1094,679	55,08
1095,035	55,29
1095,391	58,02
1095,748	54,89
1096,104	55,83
1096,46	55,69
1096,816	54,1
1097,171	55,77
1097,527	55,62
1097,883	55,6
1098,239	57,27
1098,594	57,24
1098,95	53,85
1099,305	55,78
1099,66	57,09
1100,016	56,88
1100,371	57,49
1100,726	58,42
1101,081	56,13
1101,436	57,12
1101,791	55,81
1102,146	56,66
1102,5	55,74
1102,855	57,21
1103,21	54,67
1103,564	55,61
1103,918	58,12
1104,273	56,84
1104,627	58,91
1104,981	58,56
1105,335	55,67
1105,69	56,23
1106,043	55,19
1106,397	54,53
1106,751	56,76
1107,105	57,67
1107,459	58,11
1107,812	55,39
1108,166	59
1108,519	55,19
1108,873	57,37
1109,226	57,22
1109,579	59,15
1109,932	55,02
1110,285	58,54
1110,638	58,39
1110,991	56
1111,344	54,43
1111,697	56,42
1112,05	57,46
1112,402	61,37
1112,755	59,56
1113,107	59,8
1113,46	58,34
1113,812	58,27
1114,164	59,88
1114,517	64,09
1114,869	85,43
1115,221	84,03
1115,573	73,72
1115,924	70,78
