Data from E_2_Relative__3__00093.txt Node

Date: Tue Jan 30 10:04:05 CET 2024
User: diatiterra
Spectrometer: HDX00911
Trigger mode: 0
Integration Time (sec): 6,000000E-3
Scans to average: 2
Nonlinearity correction enabled: false
Boxcar width: 0
Storing dark spectrum: false
XAxis mode: Wavelengths
Number of Pixels in Spectrum: 2068
>>>>>Begin Spectral Data<<<<<
194,468	87,29
195,025	79,84
195,581	83,33
196,138	81,53
196,694	84,08
197,251	74,89
197,807	63,75
198,363	66,39
198,919	63,83
199,474	68,22
200,03	60,24
200,586	75,33
201,141	62,61
201,696	62,18
202,251	65,67
202,806	57,87
203,361	66,67
203,916	66,8
204,471	65,84
205,025	70,29
205,58	68,2
206,134	62,15
206,688	64,38
207,242	69,82
207,796	66,53
208,35	67,58
208,904	62,1
209,457	71,71
210,011	69
210,564	61,71
211,117	76,6
211,67	69,64
212,223	61,75
212,776	71,19
213,329	71,31
213,881	64,5
214,434	69,26
214,986	72,32
215,538	64,57
216,09	68,67
216,642	75,21
217,194	75,12
217,746	63,75
218,297	65,55
218,849	60,46
219,4	68,4
219,951	73,89
220,502	74,32
221,053	67,8
221,604	71,65
222,155	61,44
222,705	66,38
223,256	64,04
223,806	59,58
224,356	73,04
224,906	78,85
225,456	57,14
226,006	68,75
226,556	77,43
227,106	68,88
227,655	70,23
228,204	80,09
228,754	71,31
229,303	77,03
229,852	70,74
230,401	65,47
230,949	60,64
231,498	69,64
232,047	72,13
232,595	71,08
233,143	70,61
233,691	63,25
234,239	69,85
234,787	77,13
235,335	71,43
235,883	65,32
236,43	65,68
236,978	74,78
237,525	71,49
238,072	67,84
238,619	63,23
239,166	69,83
239,713	64,14
240,26	58,47
240,806	69,83
241,353	62,39
241,899	71,19
242,445	62,34
242,991	66,39
243,537	66,23
244,083	77,83
244,629	65,2
245,174	64,68
245,72	70,66
246,265	70,59
246,81	73,78
247,355	68,25
247,9	77,08
248,445	63,49
248,99	68,94
249,534	67,17
250,079	71,76
250,623	74,34
251,168	67,76
251,712	61,14
252,256	62,4
252,8	70,8
253,343	68,42
253,887	72,29
254,43	71,11
254,974	76,4
255,517	73,56
256,06	63,71
256,603	69,96
257,146	66,15
257,689	74,58
258,232	87,78
258,774	69,16
259,317	69,83
259,859	79,52
260,401	72,43
260,943	63,9
261,485	70,91
262,027	71,91
262,569	67,59
263,11	67,7
263,652	63,72
264,193	71,16
264,734	76,85
265,275	66,52
265,816	66,24
266,357	64,32
266,898	75,21
267,438	68,94
267,979	71,12
268,519	74,52
269,059	56,92
269,6	71,68
270,14	66,38
270,68	65,16
271,219	66,96
271,759	60,7
272,298	67,2
272,838	62,55
273,377	75,23
273,916	66,15
274,455	64,23
274,994	64,52
275,533	62,36
276,072	62,98
276,61	70,18
277,149	69,58
277,687	75
278,225	55,97
278,763	62,98
279,301	68,16
279,839	71,31
280,377	62,86
280,914	64,35
281,452	71,95
281,989	65,29
282,526	61,25
283,064	66,28
283,601	72,5
284,137	62,67
284,674	66,11
285,211	70,74
285,747	69,69
286,284	69,83
286,82	68,15
287,356	61,33
287,892	53,09
288,428	62,66
288,964	63,07
289,5	66,05
290,035	65,15
290,571	61,87
291,106	57,01
291,641	69,87
292,176	57,6
292,711	58,62
293,246	62,84
293,781	60
294,315	64,65
294,85	63,75
295,384	64,15
295,918	64
296,453	65,59
296,987	58,9
297,52	61,54
298,054	62,44
298,588	60,8
299,121	65,77
299,655	69,34
300,188	58,47
300,721	58,48
301,254	64,57
301,787	67,54
302,32	58,97
302,853	67,23
303,385	58,43
303,918	60
304,45	71,18
304,982	58,8
305,514	61,38
306,046	68,14
306,578	63,07
307,11	61,36
307,641	66,81
308,173	64,78
308,704	69,51
309,236	75,65
309,767	65,42
310,298	63,2
310,829	64,73
311,359	66,37
311,89	65,38
312,421	55,92
312,951	67,78
313,481	72,99
314,012	65,89
314,542	67,57
315,072	63,95
315,601	63,71
316,131	64,38
316,661	67,95
317,19	53,47
317,72	61,86
318,249	64,68
318,778	67,49
319,307	59,68
319,836	66,4
320,365	67,23
320,893	73,62
321,422	62,33
321,95	68,26
322,479	66,67
323,007	60,96
323,535	74,72
324,063	62,26
324,591	67,82
325,118	64,94
325,646	67,67
326,173	73,66
326,701	65,74
327,228	69,39
327,755	66,67
328,282	72,73
328,809	64,91
329,336	67,66
329,862	67,88
330,389	66,96
330,915	55,43
331,441	70,89
331,968	54,58
332,494	67,11
333,02	69,87
333,545	61,54
334,071	58,82
334,597	64,05
335,122	69,37
335,648	64,8
336,173	66,95
336,698	63,95
337,223	70,89
337,748	65,49
338,272	67,38
338,797	64,54
339,322	69,23
339,846	65,86
340,37	66,81
340,894	76,37
341,419	64,52
341,942	59,69
342,466	46,46
342,99	66,16
343,514	69,64
344,037	59,4
344,56	62,95
345,084	70,34
345,607	62,64
346,13	59,68
346,653	53,14
347,175	63,56
347,698	61,9
348,221	66,4
348,743	65,66
349,265	66,12
349,787	51,57
350,309	54,74
350,831	55,28
351,353	56,33
351,875	60,07
352,397	55,93
352,918	66,14
353,439	61,75
353,961	63,64
354,482	59,06
355,003	58,36
355,524	52,36
356,044	64
356,565	53,47
357,086	56,49
357,606	52
358,126	58,86
358,646	48,28
359,167	55,81
359,687	49,5
360,206	58,79
360,726	51,1
361,246	53,25
361,765	56,63
362,285	50,67
362,804	49,39
363,323	51,35
363,842	53,47
364,361	53,56
364,88	50,75
365,398	52,87
365,917	47,34
366,435	47,38
366,954	57,45
367,472	48,95
367,99	48,16
368,508	49,39
369,026	49,29
369,544	50,14
370,061	48,26
370,579	53,59
371,096	47,12
371,613	43,43
372,131	47
372,648	51,02
373,165	42,74
373,681	42,15
374,198	44,81
374,715	40,72
375,231	49,88
375,747	43,7
376,264	43,69
376,78	43,36
377,296	38,81
377,812	39,65
378,327	44,6
378,843	43,17
379,359	42,07
379,874	38,88
380,389	39,95
380,905	39,92
381,42	37,35
381,935	40,95
382,449	40,43
382,964	36,48
383,479	38
383,993	43,2
384,508	37,88
385,022	39,74
385,536	34,2
386,05	35,25
386,564	33,16
387,078	37,35
387,592	34,92
388,105	34,44
388,619	31,02
389,132	35,11
389,645	33,33
390,158	31,18
390,671	33,77
391,184	32,78
391,697	31,29
392,21	30,18
392,722	28,47
393,235	31,46
393,747	32,72
394,259	31,11
394,771	30,39
395,283	30,04
395,795	29,6
396,307	29,4
396,818	28,42
397,33	30,91
397,841	24,93
398,353	25,68
398,864	26,32
399,375	23,66
399,886	27,13
400,397	25,35
400,907	23,5
401,418	23,58
401,928	26,52
402,439	25,47
402,949	22,86
403,459	21,39
403,969	22,68
404,479	22,18
404,989	21,67
405,498	20,76
406,008	20,9
406,517	20
407,027	17,65
407,536	20,02
408,045	17,08
408,554	18,71
409,063	17,46
409,572	16,79
410,08	16,01
410,589	14,49
411,097	14,88
411,606	14,49
412,114	12,66
412,622	13,77
413,13	14
413,638	12,58
414,145	13,4
414,653	11,69
415,16	12,71
415,668	11,82
416,175	11,22
416,682	10,09
417,189	11,48
417,696	10,28
418,203	10,87
418,71	10,86
419,216	10,12
419,723	10,28
420,229	10,11
420,735	10,21
421,242	9,8
421,748	9,67
422,254	10,46
422,759	8,61
423,265	9,62
423,771	8,79
424,276	8,5
424,781	9,18
425,287	8,45
425,792	7,75
426,297	8,03
426,802	8,44
427,306	8,22
427,811	7,89
428,316	8,79
428,82	7,77
429,324	7,92
429,829	8,19
430,333	8,37
430,837	7,71
431,34	7,64
431,844	7,14
432,348	8,18
432,851	8,13
433,355	6,68
433,858	8,06
434,361	7,32
434,864	7,35
435,367	7,66
435,87	6,86
436,373	7
436,876	7,7
437,378	7,25
437,88	7,66
438,383	7,89
438,885	6,62
439,387	6,25
439,889	6,6
440,391	6,77
440,892	7,17
441,394	7,38
441,896	7,17
442,397	7,44
442,898	6,99
443,399	6,79
443,9	6,52
444,401	6,44
444,902	6,31
445,403	6,89
445,903	7,29
446,404	7,36
446,904	7,37
447,405	6,88
447,905	6,99
448,405	7,45
448,905	7,18
449,404	6,47
449,904	6,7
450,404	7,02
450,903	7,01
451,403	6,63
451,902	7,43
452,401	6,94
452,9	7,09
453,399	7,25
453,898	6,98
454,396	7,3
454,895	6,74
455,393	7,11
455,892	7,16
456,39	6,94
456,888	7,33
457,386	7,54
457,884	7,46
458,382	7,03
458,879	7,31
459,377	7,34
459,874	7,48
460,372	7,31
460,869	7,17
461,366	7,07
461,863	7,56
462,36	6,96
462,857	6,82
463,353	7,17
463,85	7,38
464,346	7,13
464,843	7,17
465,339	7,25
465,835	7,2
466,331	7,31
466,827	6,73
467,323	6,77
467,818	7,1
468,314	7,11
468,809	6,85
469,305	6,88
469,8	7,27
470,295	7,44
470,79	6,93
471,285	7,1
471,78	6,36
472,274	7,04
472,769	7,17
473,263	6,75
473,758	7,26
474,252	6,85
474,746	6,59
475,24	6,95
475,734	7,12
476,228	6,73
476,721	7,03
477,215	6,86
477,708	6,95
478,202	7
478,695	7,24
479,188	6,84
479,681	7
480,174	6,9
480,667	7,26
481,159	6,95
481,652	7,07
482,144	7,08
482,637	7,33
483,129	7,34
483,621	7,39
484,113	6,98
484,605	7,01
485,097	6,82
485,588	6,96
486,08	7,26
486,571	7,14
487,063	7,65
487,554	7,22
488,045	6,99
488,536	7,22
489,027	7,48
489,518	7,34
490,008	6,96
490,499	7,5
490,989	7,57
491,48	7,37
491,97	7,63
492,46	7,34
492,95	7,52
493,44	7,89
493,93	7,84
494,419	7,96
494,909	7,63
495,398	7,83
495,888	8,11
496,377	8,17
496,866	7,98
497,355	8,13
497,844	8,12
498,333	8,31
498,821	8,55
499,31	8,67
499,798	8,83
500,287	8,83
500,775	9,04
501,263	9,26
501,751	9,17
502,239	9,4
502,727	10,18
503,215	9,97
503,702	9,82
504,19	10,17
504,677	10,69
505,164	10,68
505,651	10,9
506,139	11,1
506,625	11,23
507,112	11,44
507,599	11,7
508,086	12,16
508,572	12,04
509,058	12,2
509,545	12,53
510,031	12,71
510,517	13,2
511,003	13,3
511,489	13,57
511,974	13,8
512,46	14
512,946	14,5
513,431	14,69
513,916	15,64
514,401	15,3
514,887	15,45
515,371	15,91
515,856	16,02
516,341	16,54
516,826	17,49
517,31	17,5
517,795	18,25
518,279	18,27
518,763	18,18
519,247	18,36
519,731	19,19
520,215	19,41
520,699	19,63
521,182	19,97
521,666	20,64
522,149	21,23
522,633	21,29
523,116	22,17
523,599	22,21
524,082	22,31
524,565	22,9
525,048	23,21
525,53	23,61
526,013	24,15
526,495	24,11
526,978	24,43
527,46	23,99
527,942	25,33
528,424	25,33
528,906	25,37
529,388	25,33
529,87	25,54
530,351	25,77
530,833	26,37
531,314	26,88
531,795	26,68
532,277	26,55
532,758	26,73
533,238	27,41
533,719	26,94
534,2	27,64
534,681	27,82
535,161	28,03
535,642	27,69
536,122	28,25
536,602	28,41
537,082	27,16
537,562	28,12
538,042	28,26
538,522	27,87
539,001	28,73
539,481	28,35
539,96	28,72
540,44	28,26
540,919	28,38
541,398	28,74
541,877	28,54
542,356	28,85
542,835	28,87
543,313	28,61
543,792	28,94
544,27	28,82
544,749	29,01
545,227	29,52
545,705	28,72
546,183	29,28
546,661	29,65
547,139	29,24
547,616	29,22
548,094	29,74
548,571	29,52
549,049	29,3
549,526	29,76
550,003	29,49
550,48	29,83
550,957	29,46
551,434	29,82
551,911	29,86
552,387	29,55
552,864	29,31
553,34	29,82
553,817	29,86
554,293	29,5
554,769	29,39
555,245	29,46
555,721	29,73
556,197	29,91
556,672	29,48
557,148	29,65
557,623	29,96
558,099	29,97
558,574	29,13
559,049	29,25
559,524	29,37
559,999	29,07
560,474	29,34
560,948	28,78
561,423	29,27
561,897	29,11
562,372	28,73
562,846	28,59
563,32	28,64
563,794	28,34
564,268	27,97
564,742	28,58
565,216	27,91
565,69	27,65
566,163	27,98
566,636	27,4
567,11	27,77
567,583	27,32
568,056	26,54
568,529	27,11
569,002	27,03
569,475	26,58
569,947	26,31
570,42	26,21
570,892	25,68
571,365	25,8
571,837	25,35
572,309	25,61
572,781	25,44
573,253	24,91
573,725	24,71
574,197	24,33
574,668	24,49
575,14	24,13
575,611	23,81
576,082	23,6
576,554	23,59
577,025	23,36
577,496	23,34
577,967	23,23
578,437	23,32
578,908	23,1
579,379	22,65
579,849	22,44
580,319	22,33
580,79	22,26
581,26	21,57
581,73	21,84
582,2	22,16
582,669	21,59
583,139	21,43
583,609	21,46
584,078	21,26
584,548	21,46
585,017	21,28
585,486	20,72
585,955	20,85
586,424	20,53
586,893	20,59
587,362	20,79
587,83	20,2
588,299	20,43
588,767	20,33
589,236	20,34
589,704	20,15
590,172	19,7
590,64	19,77
591,108	19,74
591,576	20,09
592,043	19,56
592,511	19,9
592,978	19,82
593,446	19,52
593,913	19,64
594,38	19,26
594,847	19,09
595,314	19,38
595,781	19,21
596,248	19,31
596,715	19,28
597,181	19,25
597,647	19,03
598,114	19,19
598,58	18,95
599,046	19,14
599,512	18,61
599,978	18,85
600,444	19,25
600,91	18,56
601,375	18,93
601,841	18,83
602,306	18,46
602,771	18,69
603,236	18,62
603,702	18,31
604,167	18,37
604,631	18,33
605,096	18,12
605,561	17,96
606,025	17,85
606,49	17,8
606,954	18,08
607,418	17,78
607,882	17,68
608,347	17,88
608,81	17,4
609,274	17,36
609,738	17,24
610,202	17,09
610,665	16,92
611,128	17,15
611,592	16,58
612,055	16,76
612,518	16,58
612,981	16,35
613,444	16,47
613,907	16,24
614,369	16,04
614,832	15,93
615,294	15,97
615,757	15,7
616,219	15,76
616,681	15,71
617,143	15,62
617,605	15,39
618,067	15,52
618,529	15,37
618,99	15,11
619,452	15,24
619,913	14,97
620,375	14,71
620,836	14,97
621,297	14,71
621,758	14,8
622,219	14,69
622,68	14,67
623,14	14,73
623,601	14,56
624,061	14,71
624,522	14,65
624,982	14,16
625,442	14,48
625,902	14,24
626,362	14,79
626,822	14,55
627,282	14,43
627,742	14,33
628,201	14,42
628,661	14,21
629,12	14,42
629,579	14,33
630,038	14,15
630,497	14,18
630,956	14,36
631,415	14,41
631,874	13,82
632,332	14,09
632,791	14,13
633,249	13,84
633,708	14,03
634,166	13,72
634,624	13,74
635,082	13,91
635,54	13,46
635,998	13,64
636,455	13,49
636,913	13,38
637,37	13,32
637,828	13,3
638,285	13,15
638,742	13,05
639,199	12,99
639,656	12,72
640,113	12,62
640,57	12,27
641,027	12,22
641,483	12,29
641,94	11,97
642,396	11,76
642,852	11,6
643,309	11,42
643,765	11,27
644,221	11,18
644,676	11,13
645,132	11,03
645,588	10,65
646,043	10,74
646,499	10,65
646,954	10,53
647,409	10,45
647,864	10,23
648,319	10,21
648,774	9,78
649,229	9,96
649,684	9,99
650,139	9,51
650,593	9,56
651,047	9,41
651,502	9,41
651,956	9,51
652,41	9,35
652,864	9,23
653,318	9,28
653,772	9,23
654,225	9,3
654,679	9,01
655,133	9,21
655,586	9,05
656,039	8,95
656,492	8,89
656,946	8,65
657,399	8,62
657,851	8,68
658,304	8,51
658,757	8,36
659,209	8,38
659,662	8,47
660,114	8,19
660,567	8,1
661,019	8,18
661,471	7,96
661,923	7,8
662,375	7,81
662,826	7,74
663,278	7,62
663,73	7,44
664,181	7,47
664,632	7,4
665,084	7,41
665,535	7,22
665,986	7,43
666,437	7,2
666,888	7,16
667,338	7,17
667,789	7,11
668,24	7,02
668,69	7,08
669,14	7,11
669,591	7,21
670,041	7,2
670,491	7,14
670,941	7,18
671,391	7,19
671,84	7,17
672,29	7,24
672,74	7,15
673,189	7,26
673,638	7,3
674,088	7,63
674,537	7,52
674,986	7,6
675,435	7,73
675,883	7,85
676,332	7,76
676,781	8,01
677,229	8,33
677,678	8,2
678,126	8,17
678,574	8,45
679,022	8,65
679,47	8,63
679,918	8,84
680,366	9
680,814	9
681,261	9,34
681,709	9,4
682,156	9,42
682,604	9,51
683,051	9,82
683,498	10,04
683,945	10,22
684,392	10,23
684,839	10,41
685,286	10,62
685,732	10,79
686,179	11,09
686,625	11,14
687,071	11,27
687,518	11,57
687,964	11,7
688,41	12,08
688,856	12,9
689,301	12,84
689,747	13,06
690,193	13,55
690,638	14,07
691,084	14,35
691,529	14,96
691,974	15,42
692,419	15,98
692,864	16,45
693,309	17,15
693,754	17,63
694,199	18,18
694,643	18,79
695,088	19,29
695,532	20,09
695,977	20,64
696,421	21,47
696,865	21,73
697,309	22,65
697,753	23,16
698,197	23,85
698,64	24,69
699,084	25,31
699,527	25,99
699,971	26,4
700,414	27,18
700,857	27,52
701,3	28,13
701,743	28,83
702,186	29,34
702,629	29,84
703,072	30,46
703,515	31,3
703,957	31,6
704,399	32,03
704,842	32,59
705,284	32,87
705,726	33,66
706,168	33,98
706,61	34,67
707,052	35,05
707,494	35,43
707,935	36,01
708,377	36,5
708,818	36,74
709,26	37,65
709,701	37,73
710,142	38,47
710,583	38,53
711,024	39,26
711,465	39,57
711,905	40,05
712,346	40,04
712,787	40,46
713,227	41,1
713,667	41,36
714,108	41,69
714,548	42,5
714,988	42,25
715,428	42,61
715,868	42,97
716,307	43,3
716,747	43,88
717,186	44,1
717,626	44,87
718,065	44,91
718,504	44,96
718,944	45,3
719,383	45,35
719,822	46,01
720,261	46,28
720,699	46,53
721,138	46,68
721,576	46,73
722,015	47,15
722,453	47,37
722,892	48,14
723,33	47,53
723,768	48,51
724,206	48,12
724,644	48,64
725,081	48,52
725,519	49,06
725,957	48,69
726,394	49,23
726,832	49,37
727,269	49,83
727,706	49,78
728,143	50,28
728,58	50,55
729,017	50,64
729,454	50,12
729,89	50,29
730,327	50,79
730,764	51,01
731,2	51
731,636	51,14
732,072	51,07
732,509	51,07
732,945	51,76
733,38	51,47
733,816	51,48
734,252	51,66
734,688	51,44
735,123	52,12
735,559	51,34
735,994	51,9
736,429	51,65
736,864	52,05
737,299	51,94
737,734	51,71
738,169	52,05
738,604	52,11
739,038	52,16
739,473	52,78
739,907	52,56
740,342	52,69
740,776	52,51
741,21	52,21
741,644	53
742,078	52,14
742,512	52,61
742,946	52,51
743,379	52,6
743,813	52,42
744,246	52,67
744,68	52,02
745,113	52,46
745,546	51,98
745,979	52,32
746,412	52,82
746,845	52,08
747,278	52,56
747,711	52,47
748,143	52,34
748,576	52,34
749,008	52,16
749,441	52,12
749,873	52,24
750,305	52,34
750,737	52,09
751,169	52,35
751,601	52,12
752,032	52,36
752,464	52,06
752,896	52,17
753,327	52,57
753,758	51,73
754,19	52,49
754,621	51,98
755,052	51,57
755,483	51,84
755,914	51,53
756,344	51,73
756,775	51,84
757,206	51,58
757,636	51,36
758,066	51,5
758,497	51,11
758,927	51,84
759,357	51,68
759,787	51,43
760,217	51,79
760,647	51,38
761,076	51,36
761,506	51,43
761,935	51,39
762,365	51,58
762,794	51,14
763,223	50,94
763,653	51,22
764,082	51,43
764,51	51,07
764,939	51,21
765,368	51,18
765,797	51,27
766,225	51,42
766,654	50,94
767,082	50,99
767,51	51,19
767,938	50,61
768,367	50,9
768,795	50,73
769,222	50,79
769,65	50,35
770,078	50,91
770,505	50,52
770,933	50,53
771,36	50,67
771,788	50,49
772,215	50,55
772,642	50,46
773,069	50,46
773,496	50,26
773,923	50,42
774,349	50,34
774,776	50,34
775,203	50,48
775,629	50,54
776,055	50,69
776,482	50,72
776,908	50,75
777,334	50,32
777,76	50,38
778,186	50,36
778,611	50,05
779,037	50,28
779,463	50,33
779,888	50,12
780,314	50,17
780,739	50,19
781,164	49,71
781,589	50,15
782,014	50,06
782,439	50,07
782,864	49,79
783,289	49,98
783,713	49,97
784,138	50,15
784,562	50,46
784,987	50,25
785,411	49,91
785,835	50,12
786,259	50,18
786,683	50,42
787,107	49,45
787,531	50,24
787,954	49,81
788,378	50,16
788,802	49,93
789,225	49,55
789,648	49,96
790,071	49,84
790,495	49,8
790,918	50,06
791,34	49,75
791,763	49,67
792,186	49,61
792,609	49,71
793,031	49,78
793,454	49,69
793,876	49,8
794,298	49,81
794,721	50,02
795,143	49,65
795,565	49,69
795,986	49,61
796,408	49,6
796,83	49,8
797,252	49,68
797,673	49,32
798,094	49,89
798,516	49,56
798,937	49,69
799,358	49,92
799,779	49,69
800,2	49,84
800,621	49,54
801,042	49,64
801,462	49,63
801,883	49,13
802,303	49,24
802,724	49,44
803,144	49,51
803,564	49,58
803,984	49,74
804,404	49,3
804,824	49,43
805,244	49,67
805,664	49,49
806,084	49,23
806,503	49,42
806,923	49,28
807,342	49,71
807,761	48,9
808,18	49,67
808,599	49,57
809,018	49,58
809,437	49,35
809,856	49,65
810,275	49,87
810,693	49,32
811,112	49,62
811,53	49,67
811,949	49,59
812,367	49,59
812,785	49,4
813,203	49,14
813,621	49,22
814,039	49,2
814,457	49,51
814,874	49,28
815,292	49,55
815,709	49,04
816,127	49,25
816,544	49,28
816,961	49,27
817,378	49,42
817,795	49,12
818,212	49,31
818,629	49,43
819,046	49,51
819,462	49,64
819,879	49,2
820,295	49,05
820,712	49,28
821,128	49,34
821,544	49,11
821,96	49,38
822,376	49,64
822,792	49,27
823,208	49,11
823,624	49,23
824,039	49,14
824,455	49,48
824,87	49,56
825,286	48,91
825,701	49,11
826,116	48,66
826,531	49,15
826,946	49,39
827,361	49,27
827,776	49,01
828,19	49,41
828,605	48,82
829,02	48,88
829,434	49,03
829,848	49,45
830,263	49,29
830,677	49,03
831,091	49,03
831,505	49,08
831,919	49,31
832,332	49,12
832,746	49,34
833,16	48,92
833,573	49,19
833,987	48,85
834,4	49,05
834,813	48,82
835,226	48,95
835,639	48,91
836,052	49,08
836,465	49,33
836,878	48,99
837,29	49,12
837,703	49,33
838,116	49,02
838,528	49,3
838,94	48,69
839,352	49,33
839,765	48,85
840,177	48,89
840,589	49,11
841	48,75
841,412	49,34
841,824	49,64
842,235	49,27
842,647	49,05
843,058	49,03
843,47	48,94
843,881	48,58
844,292	48,93
844,703	48,77
845,114	48,7
845,525	48,81
845,935	48,72
846,346	48,76
846,757	48,61
847,167	49,12
847,577	49,34
847,988	49,1
848,398	48,98
848,808	49
849,218	48,81
849,628	48,93
850,038	48,56
850,448	48,79
850,857	48,86
851,267	49,14
851,676	49,02
852,086	49,42
852,495	48,64
852,904	49,09
853,313	48,72
853,722	48,92
854,131	48,84
854,54	49,13
854,949	48,82
855,357	48,94
855,766	49,64
856,174	48,58
856,583	49,15
856,991	48,75
857,399	48,81
857,807	48,88
858,215	48,85
858,623	48,62
859,031	48,8
859,439	49,06
859,846	49,08
860,254	49,1
860,661	48,73
861,069	49,1
861,476	48,73
861,883	48,69
862,29	48,92
862,697	49,24
863,104	48,84
863,511	49
863,918	49,14
864,325	49,11
864,731	48,9
865,138	49,33
865,544	48,99
865,95	48,73
866,357	48,76
866,763	48,72
867,169	49,07
867,575	48,87
867,98	48,29
868,386	48,89
868,792	48,84
869,197	48,69
869,603	48,74
870,008	48,75
870,414	48,43
870,819	49,14
871,224	48,91
871,629	48,62
872,034	48,84
872,439	48,6
872,844	48,7
873,248	48,81
873,653	48,88
874,057	48,37
874,462	48,92
874,866	48,77
875,27	48,81
875,674	48,64
876,078	48,55
876,482	48,35
876,886	48,43
877,29	49,01
877,694	49,08
878,097	48,76
878,501	49,05
878,904	48,68
879,308	48,74
879,711	48,2
880,114	48,69
880,517	48,8
880,92	48,7
881,323	48,88
881,726	48,68
882,128	48,89
882,531	48,92
882,934	49,17
883,336	48,29
883,738	48,65
884,141	49,14
884,543	49,04
884,945	48,73
885,347	48,96
885,749	48,85
886,151	49,07
886,552	48,55
886,954	48,39
887,355	49,06
887,757	48,78
888,158	49,17
888,56	48,97
888,961	48,79
889,362	48,61
889,763	48,89
890,164	48,52
890,565	48,58
890,965	48,85
891,366	48,72
891,767	48,97
892,167	48,43
892,567	49,19
892,968	48,78
893,368	48,76
893,768	48,66
894,168	48,67
894,568	48,67
894,968	49
895,368	48,87
895,767	48,27
896,167	48,6
896,566	48,78
896,966	48,14
897,365	48,11
897,764	49,26
898,164	48,64
898,563	49,21
898,962	48,58
899,361	48,72
899,759	48,42
900,158	48,35
900,557	48,68
900,955	48,75
901,354	48,93
901,752	48,97
902,15	48,96
902,548	48,34
902,947	48,74
903,345	48,61
903,742	49,16
904,14	48,39
904,538	48,75
904,936	48,64
905,333	48,7
905,731	48,5
906,128	48,51
906,525	48,68
906,923	49,11
907,32	48,34
907,717	48,3
908,114	48,31
908,511	49,03
908,907	48,73
909,304	48,63
909,701	48,65
910,097	48,74
910,494	48,78
910,89	49,06
911,286	48,68
911,682	48,6
912,078	49,28
912,474	48,96
912,87	48,32
913,266	49,06
913,662	48,66
914,058	48,61
914,453	48,83
914,849	48,92
915,244	49,18
915,639	48,92
916,034	48,84
916,43	48,8
916,825	48,93
917,22	48,23
917,614	48,62
918,009	49,04
918,404	48,93
918,798	48,38
919,193	48,71
919,587	48,56
919,982	49,04
920,376	49,37
920,77	48,57
921,164	49,49
921,558	48,87
921,952	48,65
922,346	48,55
922,74	48,83
923,133	48,7
923,527	48,57
923,92	49,03
924,314	48,34
924,707	48,73
925,1	48,57
925,493	48,31
925,886	49,02
926,279	48,55
926,672	48,48
927,065	49,26
927,457	48,55
927,85	48,84
928,243	48,47
928,635	48,56
929,027	48,2
929,42	48,3
929,812	48,75
930,204	48,33
930,596	48,51
930,988	48,6
931,379	48,31
931,771	48,79
932,163	48,48
932,554	48,74
932,946	48,12
933,337	48,72
933,729	47,64
934,12	48,13
934,511	48,35
934,902	48,69
935,293	48,21
935,684	48,97
936,075	48,51
936,465	48,21
936,856	48,99
937,246	49,29
937,637	49,64
938,027	48,47
938,417	48,13
938,808	48,52
939,198	49,15
939,588	48,98
939,978	48,31
940,368	47,95
940,757	48,9
941,147	49,58
941,537	48,43
941,926	49,25
942,315	48,07
942,705	49,2
943,094	47,42
943,483	49,36
943,872	48,48
944,261	48,26
944,65	48,42
945,039	49,26
945,428	49,31
945,816	48,58
946,205	48,75
946,593	49,07
946,982	48,75
947,37	48,84
947,758	47,83
948,146	48,73
948,534	48,75
948,922	48,51
949,31	47,62
949,698	47,38
950,086	48,68
950,473	48,87
950,861	48,63
951,248	47,39
951,636	47,53
952,023	48,24
952,41	46,49
952,797	47,53
953,184	47,78
953,571	47,97
953,958	47,6
954,345	47,89
954,731	47,57
955,118	47,82
955,505	47,37
955,891	47,84
956,277	47,3
956,664	47,58
957,05	47,33
957,436	48,09
957,822	47,23
958,208	47,53
958,594	47,92
958,979	47,51
959,365	47,44
959,751	47,33
960,136	47,88
960,522	48,21
960,907	47,05
961,292	48,51
961,677	47,19
962,062	48,19
962,447	47,1
962,832	47,46
963,217	47,88
963,602	47,06
963,986	47,07
964,371	46,99
964,756	46,71
965,14	47,82
965,524	47,29
965,908	46,86
966,293	47,31
966,677	47,23
967,061	48,09
967,445	47,22
967,828	47,53
968,212	47,13
968,596	47,63
968,979	46,91
969,363	47,75
969,746	47,21
970,129	47,64
970,513	47,08
970,896	47,83
971,279	47,19
971,662	47,27
972,045	46,93
972,428	47,35
972,81	47,97
973,193	47,61
973,575	47,18
973,958	47,1
974,34	47,49
974,723	47,15
975,105	46,97
975,487	47,63
975,869	47,54
976,251	47,25
976,633	48,05
977,015	47,12
977,396	46,98
977,778	46,82
978,16	47,97
978,541	47,21
978,922	47,64
979,304	47,68
979,685	47,08
980,066	47,19
980,447	47,04
980,828	48,19
981,209	47,52
981,59	47,71
981,97	47,23
982,351	47,04
982,732	47,46
983,112	47,24
983,493	47,3
983,873	47,41
984,253	47,61
984,633	47,56
985,013	47,24
985,393	47,23
985,773	47,48
986,153	47,46
986,533	47,15
986,912	46,96
987,292	46,95
987,671	47,42
988,051	46,78
988,43	47,31
988,809	48,27
989,188	47,97
989,567	47,46
989,946	47,89
990,325	47,79
990,704	47,12
991,083	47,59
991,461	47,39
991,84	47,02
992,218	47,92
992,597	47,5
992,975	48,12
993,353	46,96
993,732	47,71
994,11	47,37
994,488	48,06
994,866	48,42
995,243	47,6
995,621	47,64
995,999	47,43
996,376	48,09
996,754	46,81
997,131	47,62
997,509	47,43
997,886	47,47
998,263	47,33
998,64	47,66
999,017	48,13
999,394	47,79
999,771	48,46
1000,148	47,85
1000,524	47,79
1000,901	47,63
1001,277	48,28
1001,654	47,79
1002,03	47,55
1002,406	48,52
1002,783	47,96
1003,159	47,55
1003,535	47,89
1003,911	47,57
1004,286	47,88
1004,662	47,82
1005,038	47,41
1005,414	47,88
1005,789	47,19
1006,164	47,85
1006,54	48,95
1006,915	48
1007,29	47,97
1007,665	47,93
1008,04	48,54
1008,415	47,54
1008,79	48,04
1009,165	47,54
1009,54	47,73
1009,914	47,51
1010,289	47,81
1010,663	47,78
1011,038	47,37
1011,412	48,64
1011,786	47,42
1012,16	48,32
1012,535	47,97
1012,909	48,22
1013,282	46,78
1013,656	47,62
1014,03	48,26
1014,404	47,62
1014,777	46,77
1015,151	48,13
1015,524	48,65
1015,897	48,77
1016,271	48
1016,644	47,93
1017,017	49,03
1017,39	48,19
1017,763	48,86
1018,136	47,48
1018,508	48,29
1018,881	47,36
1019,254	47,64
1019,626	47,08
1019,999	47,71
1020,371	47,95
1020,743	47,97
1021,116	48,47
1021,488	48,74
1021,86	47,2
1022,232	48,58
1022,604	48,52
1022,975	47,92
1023,347	48,72
1023,719	48,76
1024,09	48,22
1024,462	48,39
1024,833	46,91
1025,204	48,67
1025,576	47,59
1025,947	48,07
1026,318	48,27
1026,689	49,1
1027,06	48,12
1027,431	47,66
1027,801	48,94
1028,172	48,27
1028,543	48,18
1028,913	48,33
1029,284	48,29
1029,654	48,62
1030,024	48,54
1030,394	48,71
1030,764	47,68
1031,135	48,6
1031,504	48,64
1031,874	49,12
1032,244	48,84
1032,614	48,16
1032,983	49,14
1033,353	48,65
1033,722	48,37
1034,092	48,92
1034,461	48,17
1034,83	48,96
1035,2	48,69
1035,569	49,06
1035,938	48,02
1036,307	49,48
1036,675	48,78
1037,044	49,57
1037,413	48,68
1037,781	47,84
1038,15	48,56
1038,518	49,15
1038,887	49,46
1039,255	47,79
1039,623	48,5
1039,991	49,09
1040,359	49,26
1040,727	48,37
1041,095	47,55
1041,463	48,73
1041,831	48,96
1042,198	48,16
1042,566	48,41
1042,933	48,44
1043,301	49,56
1043,668	48,86
1044,035	50,17
1044,402	49,32
1044,77	48,48
1045,137	48,5
1045,503	48,1
1045,87	50,2
1046,237	47,99
1046,604	49,8
1046,97	47,9
1047,337	48,2
1047,703	49,3
1048,07	49,01
1048,436	49,93
1048,802	47,75
1049,168	48,59
1049,534	48,91
1049,9	50,28
1050,266	49,9
1050,632	49,2
1050,998	49,18
1051,364	48,95
1051,729	48,76
1052,095	49,07
1052,46	46,49
1052,825	49,29
1053,191	48,6
1053,556	49,16
1053,921	48,9
1054,286	48,58
1054,651	49,06
1055,016	49,91
1055,381	47,86
1055,745	49,66
1056,11	47,48
1056,475	48,74
1056,839	49,68
1057,203	48,84
1057,568	49,45
1057,932	50,47
1058,296	51,27
1058,66	48,4
1059,024	49,39
1059,388	49,19
1059,752	49,02
1060,116	48,98
1060,48	50,53
1060,843	49,39
1061,207	48,9
1061,57	48,42
1061,934	50,15
1062,297	49,97
1062,66	49,2
1063,023	48,96
1063,386	51,05
1063,749	50,23
1064,112	50,53
1064,475	49,43
1064,838	50,03
1065,201	49
1065,563	49,19
1065,926	51,49
1066,288	48,45
1066,651	47,83
1067,013	49,75
1067,375	51,01
1067,737	50,23
1068,099	49,28
1068,461	48,66
1068,823	49,39
1069,185	48,67
1069,547	49,93
1069,909	50,13
1070,27	49,83
1070,632	50,7
1070,993	49,6
1071,355	49,45
1071,716	50,05
1072,077	51,09
1072,438	49,45
1072,799	48,87
1073,16	50,93
1073,521	49,15
1073,882	49,01
1074,243	49,19
1074,603	49,35
1074,964	50,28
1075,325	50,3
1075,685	49,8
1076,045	49,74
1076,406	51,07
1076,766	51,46
1077,126	51
1077,486	51,92
1077,846	50,79
1078,206	50,04
1078,566	50,45
1078,925	49,7
1079,285	51,35
1079,645	51,63
1080,004	51,4
1080,364	49,35
1080,723	50,71
1081,082	51,07
1081,442	49,4
1081,801	49,95
1082,16	51,44
1082,519	49,74
1082,878	48,67
1083,237	51,71
1083,595	51,41
1083,954	49,46
1084,313	48,89
1084,671	50,75
1085,03	48,79
1085,388	50,05
1085,746	53,49
1086,104	49,58
1086,463	49,58
1086,821	52,12
1087,179	50,53
1087,537	53,37
1087,894	52,77
1088,252	50,72
1088,61	52,31
1088,967	50,85
1089,325	50,33
1089,682	51,07
1090,04	52,92
1090,397	50,84
1090,754	52,04
1091,111	50
1091,469	49,55
1091,826	52,62
1092,182	52,01
1092,539	51,66
1092,896	53,11
1093,253	51,48
1093,609	52,45
1093,966	54,01
1094,322	51,57
1094,679	52,97
1095,035	52,81
1095,391	53,91
1095,748	51,72
1096,104	53
1096,46	52,99
1096,816	50,34
1097,171	53,77
1097,527	47,55
1097,883	51,29
1098,239	52,45
1098,594	52,39
1098,95	50,92
1099,305	54,45
1099,66	52,13
1100,016	52,11
1100,371	54,46
1100,726	52,7
1101,081	51,81
1101,436	51,89
1101,791	51,99
1102,146	53,95
1102,5	52,24
1102,855	53,71
1103,21	52,55
1103,564	51,12
1103,918	54,82
1104,273	52,92
1104,627	51,57
1104,981	54,97
1105,335	51,06
1105,69	51,16
1106,043	54,09
1106,397	51,54
1106,751	51,43
1107,105	55,64
1107,459	50
1107,812	55,2
1108,166	56,4
1108,519	54,14
1108,873	55,8
1109,226	54,64
1109,579	54,47
1109,932	51,85
1110,285	52,85
1110,638	56,73
1110,991	53,03
1111,344	52,95
1111,697	53,39
1112,05	54,01
1112,402	54,26
1112,755	56,2
1113,107	55,83
1113,46	55,9
1113,812	54,96
1114,164	54,98
1114,517	60
1114,869	76,82
1115,221	81,94
1115,573	83,21
1115,924	82,47
