Data from E_6_Relative__8__00113.txt Node

Date: Tue Jan 30 10:06:38 CET 2024
User: diatiterra
Spectrometer: HDX00911
Trigger mode: 0
Integration Time (sec): 6,000000E-3
Scans to average: 2
Nonlinearity correction enabled: false
Boxcar width: 0
Storing dark spectrum: false
XAxis mode: Wavelengths
Number of Pixels in Spectrum: 2068
>>>>>Begin Spectral Data<<<<<
194,468	88,95
195,025	95,97
195,581	96,97
196,138	85,99
196,694	87,06
197,251	74,89
197,807	74,17
198,363	71,72
198,919	79,57
199,474	72,03
200,03	68,9
200,586	79,3
201,141	70,59
201,696	71,43
202,251	68,66
202,806	64,26
203,361	73,58
203,916	77,18
204,471	85,64
205,025	67,36
205,58	77,42
206,134	69,32
206,688	73,82
207,242	82,88
207,796	70,76
208,35	89,95
208,904	77,42
209,457	70,93
210,011	82,97
210,564	75,68
211,117	82,98
211,67	70,04
212,223	70,52
212,776	80,51
213,329	69,2
213,881	78,79
214,434	74,59
214,986	79,91
215,538	77,95
216,09	75,1
216,642	79,34
217,194	89,95
217,746	73,71
218,297	71,01
218,849	66,16
219,4	76,19
219,951	85,4
220,502	80,93
221,053	79,24
221,604	85,83
222,155	73,73
222,705	77,02
223,256	77,15
223,806	81,25
224,356	77,45
224,906	76,21
225,456	78,15
226,006	75
226,556	86,73
227,106	77,59
227,655	87,44
228,204	86,88
228,754	78,48
229,303	77,93
229,852	73,8
230,401	78,03
230,949	67,02
231,498	76,34
232,047	75,41
232,595	78,71
233,143	82,89
233,691	71,02
234,239	67,18
234,787	69,96
235,335	74,46
235,883	74,77
236,43	82,2
236,978	82,17
237,525	79,15
238,072	66,96
238,619	65,92
239,166	71,98
239,713	86,5
240,26	72,18
240,806	73,28
241,353	86,75
241,899	72,02
242,445	75,73
242,991	75,82
243,537	75,32
244,083	72,4
244,629	77,53
245,174	77,02
245,72	73,75
246,265	76,92
246,81	82,22
247,355	72,26
247,9	82,5
248,445	63,89
248,99	64,26
249,534	75,09
250,079	90,74
250,623	77,88
251,168	84,9
251,712	71,18
252,256	65,7
252,8	76,55
253,343	71,66
253,887	85,28
254,43	74,07
254,974	73,6
255,517	80,29
256,06	64,56
256,603	79,42
257,146	70,38
257,689	72,46
258,232	79,64
258,774	71,81
259,317	71,12
259,859	77,14
260,401	78,5
260,943	75,1
261,485	78,64
262,027	77,02
262,569	78,24
263,11	86,73
263,652	79,65
264,193	79,07
264,734	80,56
265,275	73,82
265,816	67,95
266,357	71,37
266,898	80,77
267,438	74,04
267,979	71,55
268,519	85,1
269,059	58,5
269,6	69,03
270,14	70,26
270,68	70,49
271,219	75,65
271,759	77,29
272,298	72,4
272,838	75,7
273,377	88,74
273,916	64,59
274,455	69,62
274,994	77,42
275,533	73,76
276,072	72,77
276,61	78,51
277,149	72,92
277,687	83,9
278,225	66,67
278,763	62,21
279,301	71,02
279,839	79,1
280,377	71,84
280,914	73,15
281,452	69,11
281,989	80,58
282,526	62,92
283,064	72,03
283,601	77,08
284,137	62,22
284,674	71,97
285,211	73,36
285,747	68,11
286,284	81,03
286,82	67,34
287,356	61,78
287,892	67,9
288,428	70,39
288,964	70,12
289,5	61,86
290,035	71,78
290,571	68,09
291,106	65,61
291,641	69,87
292,176	60,8
292,711	61,64
293,246	72,03
293,781	57,39
294,315	58,14
294,85	65,34
295,384	64,62
295,918	69,6
296,453	70,04
296,987	68,64
297,52	61,54
298,054	75,57
298,588	66
299,121	71,62
299,655	64,62
300,188	68,22
300,721	67,86
301,254	61,88
301,787	73,25
302,32	67,95
302,853	78,3
303,385	67,84
303,918	59,11
304,45	71,62
304,982	68,8
305,514	72,76
306,046	71,68
306,578	67,63
307,11	65,53
307,641	66,81
308,173	71,74
308,704	80,08
309,236	75,65
309,767	62,08
310,298	68
310,829	71,71
311,359	73,45
311,89	71,92
312,421	65,31
312,951	69,46
313,481	74,88
314,012	65,89
314,542	65,32
315,072	64,38
315,601	72,18
316,131	71,67
316,661	65,64
317,19	62,86
317,72	67,8
318,249	66,51
318,778	68,72
319,307	67,74
319,836	68,4
320,365	74,89
320,893	75,59
321,422	71,3
321,95	76,09
322,479	64,66
323,007	67,33
323,535	68,68
324,063	72,37
324,591	73,18
325,118	60,61
325,646	75
326,173	75,89
326,701	64,94
327,228	73,88
327,755	74,76
328,282	65
328,809	67,54
329,336	72,77
329,862	76,28
330,389	70,93
330,915	66,28
331,441	78,06
331,968	60,96
332,494	74,67
333,02	74,48
333,545	66,8
334,071	75,21
334,597	71,9
335,122	75,23
335,648	73,2
336,173	75,85
336,698	60,52
337,223	69,95
337,748	64,71
338,272	76,39
338,797	72,11
339,322	75,64
339,846	64,66
340,37	75,98
340,894	70,89
341,419	67,34
341,942	66,67
342,466	61,5
342,99	60,46
343,514	70,04
344,037	63,16
344,56	67,33
345,084	66,1
345,607	67,17
346,13	60,48
346,653	61,62
347,175	73,73
347,698	71,06
348,221	71,26
348,743	72,08
349,265	64,08
349,787	62,72
350,309	61,31
350,831	64,79
351,353	67,76
351,875	67,4
352,397	69,15
352,918	69,72
353,439	67,33
353,961	62,24
354,482	64,77
355,003	58,68
355,524	63,18
356,044	61,09
356,565	64,24
357,086	57,47
357,606	53,67
358,126	65,55
358,646	57,59
359,167	61,79
359,687	54,79
360,206	66,13
360,726	57,73
361,246	58,82
361,765	56,96
362,285	56,71
362,804	50,91
363,323	56,16
363,842	54,46
364,361	60,68
364,88	57,96
365,398	53,17
365,917	51,18
366,435	52,89
366,954	57,14
367,472	55,26
367,99	51,56
368,508	53,94
369,026	51,56
369,544	58,55
370,061	45,04
370,579	56,63
371,096	49,74
371,613	46,38
372,131	45,69
372,648	53,55
373,165	52,51
373,681	48,17
374,198	47,34
374,715	46,65
375,231	49,88
375,747	47,9
376,264	42,72
376,78	47,16
377,296	45
377,812	43,89
378,327	48,12
378,843	41,01
379,359	43,83
379,874	41,58
380,389	37,44
380,905	47,98
381,42	40,61
381,935	43,75
382,449	44,73
382,964	39,7
383,479	41,34
383,993	45
384,508	39,04
385,022	42,18
385,536	39,22
386,05	40,26
386,564	35,44
387,078	41,54
387,592	36,07
388,105	40,07
388,619	37,32
389,132	38,1
389,645	33,64
390,158	34,33
390,671	37
391,184	36,12
391,697	33,71
392,21	32,61
392,722	29,59
393,235	33,1
393,747	34,27
394,259	29,48
394,771	33,1
395,283	28,17
395,795	31,87
396,307	31,92
396,818	30,25
397,33	32,86
397,841	27,28
398,353	29,68
398,864	26,45
399,375	27,9
399,886	24,45
400,397	25,89
400,907	26,55
401,418	25,85
401,928	24,25
402,439	27,03
402,949	23,89
403,459	22,4
403,969	24,52
404,479	21,71
404,989	23,15
405,498	20,84
406,008	23,66
406,517	20,08
407,027	18,21
407,536	20,18
408,045	18,45
408,554	16,65
409,063	16,54
409,572	17,88
410,08	16,33
410,589	16,01
411,097	14,88
411,606	14,49
412,114	13,12
412,622	14,05
413,13	14,65
413,638	13,51
414,145	12,6
414,653	11,24
415,16	11,68
415,668	12,14
416,175	11,4
416,682	11,92
417,189	10,95
417,696	10,37
418,203	11,29
418,71	9,76
419,216	10,9
419,723	10,2
420,229	9,33
420,735	9,08
421,242	9,59
421,748	9,46
422,254	10,53
422,759	8,61
423,265	8,62
423,771	7,83
424,276	8,53
424,781	8,96
425,287	8,57
425,792	8,12
426,297	8,86
426,802	8,62
427,306	8,16
427,811	7,89
428,316	9,25
428,82	8,02
429,324	8,39
429,829	9,12
430,333	7,63
430,837	8,41
431,34	7,85
431,844	7,69
432,348	8,15
432,851	7,56
433,355	7,36
433,858	7,86
434,361	7,81
434,864	7,7
435,367	8,05
435,87	7,42
436,373	7,12
436,876	8,23
437,378	7,16
437,88	7,15
438,383	7,71
438,885	6,76
439,387	6,88
439,889	7,3
440,391	6,92
440,892	7,41
441,394	7,55
441,896	7,09
442,397	7,36
442,898	7,18
443,399	6,65
443,9	6,75
444,401	7,3
444,902	6,51
445,403	6,79
445,903	7,17
446,404	7,2
446,904	7,6
447,405	6,72
447,905	6,72
448,405	6,97
448,905	7,54
449,404	7,08
449,904	6,7
450,404	6,69
450,903	7,39
451,403	6,67
451,902	6,72
452,401	6,61
452,9	6,67
453,399	7,07
453,898	6,98
454,396	6,53
454,895	7,08
455,393	7,14
455,892	6,72
456,39	7,08
456,888	7,37
457,386	6,6
457,884	7,03
458,382	7,16
458,879	7,05
459,377	6,91
459,874	7,04
460,372	7,15
460,869	6,84
461,366	6,91
461,863	6,97
462,36	6,82
462,857	6,45
463,353	7,04
463,85	6,53
464,346	6,63
464,843	6,8
465,339	6,99
465,835	7,16
466,331	6,98
466,827	6,73
467,323	6,54
467,818	6,64
468,314	6,73
468,809	6,53
469,305	6,81
469,8	6,76
470,295	6,73
470,79	6,76
471,285	6,63
471,78	6,37
472,274	6,53
472,769	6,56
473,263	6,63
473,758	6,48
474,252	6,58
474,746	6,49
475,24	6,71
475,734	6,57
476,228	6,69
476,721	6,53
477,215	6,49
477,708	6,91
478,202	6,63
478,695	6,78
479,188	6,87
479,681	6,55
480,174	6,33
480,667	6,78
481,159	6,65
481,652	6,45
482,144	6,58
482,637	6,52
483,129	6,59
483,621	6,61
484,113	6,82
484,605	6,81
485,097	6,61
485,588	6,96
486,08	6,66
486,571	6,85
487,063	7,06
487,554	6,81
488,045	6,67
488,536	6,78
489,027	7,01
489,518	7,1
490,008	7,07
490,499	7,04
490,989	7,11
491,48	6,93
491,97	7,11
492,46	6,74
492,95	6,88
493,44	7,18
493,93	7,29
494,419	7,28
494,909	7,06
495,398	7,26
495,888	7,56
496,377	7,6
496,866	7,61
497,355	7,76
497,844	7,39
498,333	7,78
498,821	7,75
499,31	8,15
499,798	8,14
500,287	8,53
500,775	7,9
501,263	8,54
501,751	8,75
502,239	8,75
502,727	8,39
503,215	8,96
503,702	9,19
504,19	9,13
504,677	9,45
505,164	9,47
505,651	9,25
506,139	9,84
506,625	10,22
507,112	10,77
507,599	10,55
508,086	10,93
508,572	11,11
509,058	10,88
509,545	11,74
510,031	11,41
510,517	11,92
511,003	12,12
511,489	12,47
511,974	12,71
512,46	13,01
512,946	13,1
513,431	13,53
513,916	13,7
514,401	14,33
514,887	14,29
515,371	14,39
515,856	15,24
516,341	15,51
516,826	15,81
517,31	16,37
517,795	16,5
518,279	16,93
518,763	16,89
519,247	17,45
519,731	18,39
520,215	17,98
520,699	18,61
521,182	19,35
521,666	19,07
522,149	19,83
522,633	20,15
523,116	20,46
523,599	20,95
524,082	21,54
524,565	21,52
525,048	22,23
525,53	22,15
526,013	22,64
526,495	23,55
526,978	23,39
527,46	23,11
527,942	24,53
528,424	24,78
528,906	24,63
529,388	24,39
529,87	24,64
530,351	25,34
530,833	25,23
531,314	25,23
531,795	25,79
532,277	25,78
532,758	25,83
533,238	26,29
533,719	26,51
534,2	26,5
534,681	27,02
535,161	26,88
535,642	26,39
536,122	27,38
536,602	27,32
537,082	26,95
537,562	27,44
538,042	27,55
538,522	27,28
539,001	28,26
539,481	27,75
539,96	28,02
540,44	27,58
540,919	28,1
541,398	28,11
541,877	27,85
542,356	27,74
542,835	28,2
543,313	27,95
543,792	28,36
544,27	28,47
544,749	28,06
545,227	28,23
545,705	28,5
546,183	28,9
546,661	28,9
547,139	28,81
547,616	28,75
548,094	28,97
548,571	28,78
549,049	28,53
549,526	28,7
550,003	28,72
550,48	28,79
550,957	28,44
551,434	28,63
551,911	29,1
552,387	28,83
552,864	28,71
553,34	29,05
553,817	28,95
554,293	29,12
554,769	29,07
555,245	28,86
555,721	28,74
556,197	28,58
556,672	28,66
557,148	28,77
557,623	28,59
558,099	28,61
558,574	28,5
559,049	28,59
559,524	28,82
559,999	28,37
560,474	28,5
560,948	27,96
561,423	27,96
561,897	27,99
562,372	27,74
562,846	27,77
563,32	27,82
563,794	27,4
564,268	27,16
564,742	27,53
565,216	26,97
565,69	27,44
566,163	26,89
566,636	26,36
567,11	26,62
567,583	26,29
568,056	25,37
568,529	25,69
569,002	25,78
569,475	25,44
569,947	25,12
570,42	24,86
570,892	24,76
571,365	24,7
571,837	24,09
572,309	24,26
572,781	23,41
573,253	23,59
573,725	23,21
574,197	23,4
574,668	23,01
575,14	22,81
575,611	22,58
576,082	22,26
576,554	21,99
577,025	21,65
577,496	22,16
577,967	22,25
578,437	21,86
578,908	21,68
579,379	21,13
579,849	21,09
580,319	21,03
580,79	20,39
581,26	20,76
581,73	20,24
582,2	20,66
582,669	20,39
583,139	20,2
583,609	20,08
584,078	19,71
584,548	19,87
585,017	19,72
585,486	19,42
585,955	19,45
586,424	19,18
586,893	19,44
587,362	19,06
587,83	18,94
588,299	19,1
588,767	18,66
589,236	18,92
589,704	18,82
590,172	18,54
590,64	18,63
591,108	18,5
591,576	18,55
592,043	18,22
592,511	18,21
592,978	18,34
593,446	18,24
593,913	18,12
594,38	18,01
594,847	17,96
595,314	17,75
595,781	18,37
596,248	17,73
596,715	17,99
597,181	17,86
597,647	17,83
598,114	17,47
598,58	17,55
599,046	17,62
599,512	17,27
599,978	17,42
600,444	17,33
600,91	17,31
601,375	17,37
601,841	17,29
602,306	17,25
602,771	17,33
603,236	17,4
603,702	16,86
604,167	16,89
604,631	17,01
605,096	16,81
605,561	16,61
606,025	16,63
606,49	16,48
606,954	16,48
607,418	16,57
607,882	16,15
608,347	16,44
608,81	16,06
609,274	16,09
609,738	15,94
610,202	15,78
610,665	15,72
611,128	15,45
611,592	15,42
612,055	15,39
612,518	15,09
612,981	15,12
613,444	14,76
613,907	15,09
614,369	14,85
614,832	14,57
615,294	14,58
615,757	14,51
616,219	14,17
616,681	14,31
617,143	14,04
617,605	14,12
618,067	13,98
618,529	13,82
618,99	14,03
619,452	13,7
619,913	13,86
620,375	13,46
620,836	13,26
621,297	13,64
621,758	13,43
622,219	13,19
622,68	13,38
623,14	13,02
623,601	13,26
624,061	13,25
624,522	13,18
624,982	13,26
625,442	13,18
625,902	13,12
626,362	12,96
626,822	12,75
627,282	12,98
627,742	12,78
628,201	12,7
628,661	12,88
629,12	12,85
629,579	12,76
630,038	12,88
630,497	12,86
630,956	12,7
631,415	12,85
631,874	12,73
632,332	12,72
632,791	12,69
633,249	12,68
633,708	12,37
634,166	12,61
634,624	12,62
635,082	12,62
635,54	12,23
635,998	12
636,455	12,04
636,913	12,16
637,37	11,88
637,828	11,93
638,285	11,95
638,742	11,71
639,199	11,54
639,656	11,58
640,113	11,39
640,57	10,92
641,027	11,15
641,483	10,85
641,94	10,76
642,396	10,69
642,852	10,38
643,309	10,52
643,765	10,02
644,221	10,1
644,676	10,02
645,132	9,77
645,588	9,59
646,043	9,63
646,499	9,39
646,954	9,5
647,409	9,46
647,864	8,96
648,319	8,98
648,774	8,6
649,229	8,92
649,684	8,86
650,139	8,57
650,593	8,42
651,047	8,48
651,502	8,44
651,956	8,2
652,41	8,21
652,864	8,13
653,318	8,21
653,772	8,19
654,225	8,15
654,679	8,18
655,133	8,1
655,586	7,8
656,039	7,94
656,492	7,85
656,946	7,85
657,399	7,71
657,851	7,57
658,304	7,62
658,757	7,38
659,209	7,49
659,662	7,32
660,114	7,35
660,567	7,09
661,019	7,11
661,471	7,05
661,923	6,84
662,375	6,89
662,826	6,77
663,278	6,69
663,73	6,67
664,181	6,66
664,632	6,64
665,084	6,6
665,535	6,54
665,986	6,53
666,437	6,44
666,888	6,35
667,338	6,47
667,789	6,37
668,24	6,31
668,69	6,28
669,14	6,46
669,591	6,4
670,041	6,4
670,491	6,49
670,941	6,55
671,391	6,55
671,84	6,65
672,29	6,67
672,74	6,71
673,189	6,64
673,638	6,81
674,088	6,95
674,537	7,06
674,986	7,07
675,435	7,02
675,883	7,29
676,332	7,5
676,781	7,3
677,229	7,65
677,678	7,59
678,126	7,58
678,574	7,91
679,022	7,95
679,47	8,2
679,918	8,17
680,366	8,4
680,814	8,31
681,261	8,49
681,709	8,55
682,156	8,71
682,604	8,92
683,051	9,03
683,498	9,15
683,945	9,17
684,392	9,34
684,839	9,5
685,286	9,43
685,732	9,81
686,179	9,76
686,625	10
687,071	10,28
687,518	10,42
687,964	10,79
688,41	10,89
688,856	11,19
689,301	11,4
689,747	11,76
690,193	12,32
690,638	12,65
691,084	12,9
691,529	13,46
691,974	13,86
692,419	14,52
692,864	14,8
693,309	15,47
693,754	16,26
694,199	16,77
694,643	17,4
695,088	17,89
695,532	18,67
695,977	19,29
696,421	19,94
696,865	20,71
697,309	21,38
697,753	22,04
698,197	23
698,64	23,39
699,084	24,23
699,527	24,98
699,971	25,69
700,414	26,53
700,857	26,98
701,3	27,61
701,743	28,27
702,186	28,91
702,629	29,75
703,072	30,67
703,515	31,2
703,957	31,63
704,399	32,35
704,842	32,96
705,284	33,46
705,726	34,06
706,168	35,12
706,61	35,36
707,052	35,91
707,494	36,38
707,935	37,13
708,377	37,95
708,818	38,03
709,26	38,55
709,701	39,21
710,142	40,17
710,583	40,4
711,024	40,94
711,465	41,16
711,905	42,1
712,346	42,38
712,787	42,9
713,227	43,42
713,667	43,75
714,108	44,31
714,548	44,88
714,988	45,27
715,428	45,63
715,868	46,23
716,307	46,46
716,747	47,18
717,186	47,54
717,626	47,97
718,065	48,37
718,504	48,75
718,944	49,16
719,383	49,12
719,822	50,12
720,261	50,16
720,699	50,6
721,138	51,07
721,576	51,27
722,015	51,8
722,453	51,83
722,892	52,57
723,33	52,66
723,768	53,18
724,206	53,26
724,644	53,45
725,081	53,39
725,519	54,26
725,957	53,93
726,394	54,93
726,832	55,05
727,269	55,36
727,706	55,66
728,143	55,9
728,58	55,72
729,017	56,28
729,454	55,88
729,89	56,27
730,327	56,63
730,764	57,01
731,2	57,52
731,636	57,35
732,072	57,12
732,509	57,51
732,945	57,98
733,38	57,82
733,816	58,16
734,252	58,69
734,688	57,98
735,123	58,52
735,559	58,34
735,994	58,89
736,429	58,73
736,864	58,57
737,299	58,81
737,734	58,77
738,169	59,23
738,604	58,79
739,038	59,26
739,473	59,55
739,907	59,79
740,342	59,78
740,776	59,69
741,21	59,14
741,644	60,03
742,078	59,53
742,512	59,88
742,946	60,11
743,379	59,97
743,813	60,1
744,246	59,88
744,68	59,75
745,113	60,38
745,546	59,97
745,979	60,11
746,412	60,2
746,845	60,13
747,278	59,98
747,711	60,12
748,143	59,97
748,576	60,02
749,008	59,6
749,441	59,91
749,873	60,35
750,305	59,87
750,737	59,98
751,169	59,98
751,601	59,99
752,032	59,99
752,464	60,1
752,896	60,07
753,327	60,56
753,758	59,88
754,19	60,11
754,621	59,98
755,052	60,11
755,483	60,03
755,914	59,8
756,344	60,21
756,775	59,93
757,206	59,87
757,636	59,92
758,066	59,32
758,497	60,01
758,927	59,87
759,357	59,91
759,787	59,82
760,217	59,87
760,647	59,37
761,076	59,82
761,506	59,38
761,935	59,79
762,365	59,43
762,794	59,52
763,223	59,65
763,653	59,99
764,082	59,58
764,51	59,64
764,939	60,16
765,368	59,52
765,797	59,54
766,225	59,52
766,654	59,08
767,082	59,38
767,51	59,63
767,938	58,95
768,367	59,47
768,795	59,32
769,222	59,16
769,65	59,05
770,078	58,91
770,505	59,04
770,933	59,08
771,36	59,3
771,788	58,8
772,215	59,49
772,642	58,79
773,069	58,89
773,496	59,12
773,923	59,12
774,349	58,86
774,776	59,37
775,203	59,55
775,629	58,58
776,055	58,73
776,482	59,05
776,908	58,73
777,334	58,85
777,76	59,19
778,186	58,98
778,611	58,96
779,037	58,73
779,463	59,51
779,888	58,38
780,314	58,86
780,739	58,47
781,164	58,61
781,589	58,89
782,014	58,52
782,439	58,49
782,864	58,62
783,289	59,08
783,713	58,23
784,138	59,35
784,562	58,86
784,987	58,97
785,411	58,65
785,835	59,03
786,259	58,99
786,683	58,74
787,107	58,7
787,531	58,74
787,954	58,25
788,378	58,86
788,802	58,42
789,225	58,37
789,648	58,42
790,071	59,08
790,495	58,54
790,918	58,28
791,34	58,44
791,763	58,48
792,186	58,63
792,609	58,67
793,031	58,26
793,454	59,19
793,876	58,76
794,298	58,82
794,721	58,98
795,143	58,29
795,565	58,99
795,986	58,61
796,408	58,37
796,83	58,64
797,252	58,49
797,673	58,19
798,094	58,83
798,516	58,36
798,937	58,56
799,358	58,48
799,779	58,73
800,2	58,68
800,621	58,75
801,042	58,43
801,462	58,35
801,883	58,51
802,303	57,92
802,724	58,7
803,144	58,83
803,564	58,69
803,984	58,72
804,404	58,37
804,824	58,63
805,244	58,61
805,664	58,44
806,084	58,14
806,503	58,41
806,923	58,16
807,342	59,05
807,761	58,57
808,18	58,47
808,599	58,76
809,018	58,64
809,437	58,27
809,856	58,13
810,275	58,79
810,693	58,72
811,112	58,8
811,53	58,92
811,949	58,85
812,367	58,64
812,785	58,38
813,203	58,33
813,621	58,56
814,039	59,08
814,457	58,33
814,874	58,03
815,292	58,08
815,709	58,3
816,127	58,25
816,544	58,15
816,961	58,46
817,378	58,33
817,795	58,19
818,212	58,57
818,629	58,23
819,046	58,42
819,462	58,85
819,879	58,86
820,295	58,71
820,712	58,22
821,128	58,73
821,544	58,74
821,96	58,46
822,376	58,77
822,792	58,39
823,208	58,03
823,624	58,58
824,039	58,14
824,455	58,49
824,87	58,24
825,286	58,33
825,701	58,09
826,116	58,46
826,531	58,84
826,946	57,92
827,361	58,24
827,776	58,55
828,19	58,31
828,605	57,95
829,02	58,28
829,434	58,21
829,848	58,7
830,263	58,03
830,677	58
831,091	58,25
831,505	58,06
831,919	58,18
832,332	57,92
832,746	58,25
833,16	58,29
833,573	58,25
833,987	57,52
834,4	58,18
834,813	58,06
835,226	58,18
835,639	58,47
836,052	58,39
836,465	58,31
836,878	58,43
837,29	57,68
837,703	58,76
838,116	58,56
838,528	58,65
838,94	58,09
839,352	58,56
839,765	58,35
840,177	58,18
840,589	58,31
841	58,49
841,412	58,91
841,824	58,81
842,235	58,15
842,647	58,35
843,058	58,52
843,47	57,92
843,881	58,38
844,292	57,89
844,703	57,97
845,114	58,36
845,525	58,45
845,935	58,29
846,346	58,05
846,757	58,03
847,167	58,25
847,577	58,44
847,988	58,61
848,398	57,94
848,808	58,22
849,218	57,97
849,628	58,28
850,038	57,84
850,448	57,76
850,857	58,24
851,267	58,44
851,676	57,89
852,086	58,79
852,495	58,06
852,904	58,6
853,313	57,81
853,722	58,34
854,131	57,82
854,54	58,18
854,949	58,06
855,357	57,92
855,766	58,26
856,174	58,59
856,583	58,09
856,991	58
857,399	58,22
857,807	58,1
858,215	58,1
858,623	57,51
859,031	57,99
859,439	57,78
859,846	58,44
860,254	58,55
860,661	58,32
861,069	58,5
861,476	58,11
861,883	58,31
862,29	58,6
862,697	58,15
863,104	58,33
863,511	58,43
863,918	57,92
864,325	57,93
864,731	58,49
865,138	58,52
865,544	58,47
865,95	58,15
866,357	58,12
866,763	57,73
867,169	57,82
867,575	58,25
867,98	57,88
868,386	58,44
868,792	58,55
869,197	58,28
869,603	58,53
870,008	57,76
870,414	58,26
870,819	58,79
871,224	57,79
871,629	58,62
872,034	58,35
872,439	57,79
872,844	57,54
873,248	58,07
873,653	58,25
874,057	57,81
874,462	58,26
874,866	58,18
875,27	58,62
875,674	57,81
876,078	57,82
876,482	58,38
876,886	58,17
877,29	57,99
877,694	58,54
878,097	58,23
878,501	58,64
878,904	57,99
879,308	58,29
879,711	58
880,114	58,42
880,517	58,12
880,92	58,22
881,323	58,08
881,726	58,31
882,128	58,09
882,531	58,39
882,934	58,47
883,336	57,88
883,738	57,51
884,141	58,26
884,543	58,26
884,945	58,45
885,347	58,42
885,749	57,99
886,151	58,33
886,552	57,7
886,954	57,6
887,355	58,1
887,757	58,21
888,158	58,3
888,56	58,53
888,961	58,03
889,362	58,24
889,763	58,3
890,164	57,98
890,565	58,02
890,965	57,89
891,366	58,23
891,767	57,99
892,167	58,09
892,567	58,4
892,968	58,37
893,368	58,15
893,768	57,56
894,168	58,21
894,568	57,74
894,968	58,48
895,368	58,48
895,767	58,34
896,167	57,89
896,566	58,34
896,966	57,95
897,365	57,36
897,764	58,37
898,164	57,75
898,563	57,98
898,962	58,39
899,361	57,93
899,759	58,4
900,158	58,26
900,557	58,22
900,955	58,07
901,354	57,88
901,752	58,28
902,15	58,19
902,548	58,21
902,947	57,59
903,345	57,98
903,742	58,49
904,14	57,72
904,538	58,4
904,936	58,25
905,333	57,8
905,731	58,43
906,128	58,54
906,525	58,5
906,923	58,47
907,32	57,8
907,717	57,77
908,114	58,33
908,511	58,41
908,907	57,86
909,304	58,48
909,701	58,25
910,097	57,57
910,494	58,18
910,89	58,65
911,286	57,88
911,682	58,57
912,078	58,28
912,474	58,97
912,87	57,52
913,266	58,87
913,662	57,88
914,058	57,94
914,453	58,42
914,849	58,47
915,244	58,96
915,639	57,87
916,034	58,56
916,43	58,02
916,825	58,22
917,22	58,22
917,614	57,97
918,009	58,2
918,404	58,5
918,798	58,01
919,193	58,32
919,587	58,35
919,982	58,44
920,376	57,81
920,77	57,82
921,164	58,29
921,558	58,34
921,952	58,12
922,346	57,69
922,74	57,83
923,133	58,48
923,527	57,59
923,92	58,04
924,314	57,73
924,707	58,04
925,1	58,04
925,493	57,56
925,886	58,15
926,279	57,82
926,672	57,71
927,065	58,46
927,457	58,1
927,85	57,98
928,243	58,05
928,635	57,43
929,027	57,46
929,42	58,37
929,812	57,69
930,204	58,32
930,596	58,23
930,988	57,62
931,379	58,29
931,771	58,14
932,163	57,95
932,554	58,19
932,946	58,09
933,337	57,57
933,729	57,38
934,12	58,02
934,511	57,83
934,902	58,14
935,293	57,79
935,684	58,28
936,075	57,91
936,465	58,03
936,856	57,9
937,246	58,09
937,637	58,45
938,027	58,87
938,417	57,36
938,808	57,98
939,198	57,91
939,588	57,77
939,978	58,71
940,368	56,87
940,757	57,3
941,147	57,1
941,537	57,36
941,926	57,1
942,315	58,06
942,705	57,86
943,094	57,52
943,483	58,91
943,872	57,85
944,261	57,67
944,65	57,46
945,039	55,88
945,428	57,75
945,816	57,23
946,205	56,92
946,593	57,62
946,982	56,38
947,37	57,64
947,758	57,9
948,146	57,9
948,534	58,31
948,922	57,22
949,31	56,88
949,698	57,33
950,086	57,55
950,473	57,69
950,861	56,06
951,248	57,22
951,636	56,62
952,023	56,2
952,41	55,89
952,797	56,56
953,184	56,67
953,571	56,54
953,958	56,69
954,345	57,6
954,731	57,19
955,118	56,4
955,505	56,04
955,891	56,4
956,277	56,27
956,664	56,64
957,05	55,98
957,436	56,28
957,822	55,97
958,208	56,36
958,594	56,44
958,979	56,79
959,365	56,31
959,751	56,01
960,136	55,79
960,522	56,61
960,907	56,69
961,292	56,72
961,677	56,06
962,062	55,06
962,447	55,55
962,832	55,87
963,217	56,41
963,602	55,82
963,986	56,12
964,371	55,98
964,756	55,39
965,14	55,27
965,524	56,17
965,908	56,25
966,293	55,43
966,677	54,95
967,061	55,57
967,445	56,33
967,828	56,26
968,212	56,07
968,596	56,38
968,979	54,91
969,363	56,12
969,746	56,49
970,129	56,09
970,513	56,98
970,896	55,87
971,279	55,24
971,662	55,94
972,045	54,43
972,428	56,56
972,81	56,72
973,193	56,79
973,575	56,32
973,958	55,86
974,34	55,93
974,723	55,94
975,105	55,48
975,487	55,35
975,869	55,48
976,251	55,98
976,633	56,18
977,015	55,54
977,396	56,02
977,778	55,6
978,16	55,98
978,541	55,87
978,922	55,43
979,304	56,06
979,685	55,26
980,066	55,66
980,447	56,29
980,828	56,2
981,209	56,26
981,59	56,52
981,97	54,69
982,351	55,32
982,732	55,93
983,112	55,68
983,493	55,66
983,873	55,63
984,253	56,05
984,633	55,8
985,013	55,75
985,393	56,45
985,773	56,34
986,153	55,94
986,533	55,86
986,912	55,65
987,292	56,13
987,671	55,75
988,051	55,54
988,43	56,1
988,809	56,7
989,188	57,14
989,567	55,59
989,946	56,61
990,325	56,19
990,704	55,85
991,083	56,46
991,461	55,96
991,84	55,96
992,218	56,14
992,597	56,57
992,975	56,31
993,353	56,99
993,732	56,02
994,11	56,47
994,488	55,99
994,866	56,8
995,243	56,44
995,621	56,4
995,999	56,23
996,376	56,94
996,754	55,44
997,131	55,75
997,509	56,54
997,886	57,09
998,263	55,52
998,64	56,9
999,017	55,9
999,394	55,74
999,771	56,55
1000,148	56,31
1000,524	56,51
1000,901	55,7
1001,277	57,37
1001,654	56,68
1002,03	56,74
1002,406	57,21
1002,783	56,15
1003,159	56,3
1003,535	55,96
1003,911	56,3
1004,286	56,64
1004,662	55,88
1005,038	56,3
1005,414	55,81
1005,789	56,42
1006,164	57,13
1006,54	57,21
1006,915	57,05
1007,29	57,07
1007,665	56,49
1008,04	57,39
1008,415	56,94
1008,79	56,36
1009,165	55,62
1009,54	56,39
1009,914	56,19
1010,289	56,64
1010,663	57,08
1011,038	56,85
1011,412	57,62
1011,786	56,89
1012,16	56,59
1012,535	57,99
1012,909	57,3
1013,282	56,59
1013,656	56,21
1014,03	57,51
1014,404	56,17
1014,777	56,85
1015,151	56,97
1015,524	57,44
1015,897	57,69
1016,271	55,78
1016,644	56,76
1017,017	58,25
1017,39	56,76
1017,763	57,16
1018,136	57,13
1018,508	58
1018,881	57,11
1019,254	56,94
1019,626	56,14
1019,999	56,98
1020,371	56,54
1020,743	57,64
1021,116	57,21
1021,488	57,23
1021,86	56,63
1022,232	56,77
1022,604	58,91
1022,975	57,2
1023,347	58,38
1023,719	57,55
1024,09	57,8
1024,462	57,75
1024,833	57,15
1025,204	58,26
1025,576	57,32
1025,947	58,14
1026,318	57,83
1026,689	57,8
1027,06	58,3
1027,431	56,59
1027,801	57,77
1028,172	56,51
1028,543	56,81
1028,913	57,9
1029,284	58,54
1029,654	57,84
1030,024	58,65
1030,394	58,06
1030,764	57,68
1031,135	57,34
1031,504	58,45
1031,874	56,84
1032,244	58,11
1032,614	57,48
1032,983	58,22
1033,353	57,82
1033,722	59,04
1034,092	58,44
1034,461	58,55
1034,83	59,25
1035,2	56,96
1035,569	58,26
1035,938	58,02
1036,307	58,06
1036,675	58,25
1037,044	58,31
1037,413	59,34
1037,781	56,8
1038,15	58,01
1038,518	58,27
1038,887	58,21
1039,255	57,76
1039,623	57,21
1039,991	57,78
1040,359	59,13
1040,727	57,54
1041,095	58,21
1041,463	58,25
1041,831	59,4
1042,198	57,64
1042,566	58,06
1042,933	57,42
1043,301	58,54
1043,668	58,55
1044,035	58,44
1044,402	59,08
1044,77	57,97
1045,137	58,29
1045,503	57,48
1045,87	59,04
1046,237	58,29
1046,604	58,4
1046,97	57,26
1047,337	58,05
1047,703	58,9
1048,07	59,45
1048,436	58,86
1048,802	56,88
1049,168	57,86
1049,534	59,63
1049,9	58,77
1050,266	58,36
1050,632	58,42
1050,998	58,54
1051,364	57,54
1051,729	58,58
1052,095	59,06
1052,46	57,51
1052,825	58,73
1053,191	57,67
1053,556	59,52
1053,921	59,69
1054,286	58
1054,651	60,55
1055,016	59,7
1055,381	57,86
1055,745	58,31
1056,11	60,31
1056,475	58,6
1056,839	60,99
1057,203	60,55
1057,568	58,45
1057,932	60,34
1058,296	62,08
1058,66	58,35
1059,024	59,31
1059,388	59,08
1059,752	58,86
1060,116	59,05
1060,48	60,17
1060,843	58,84
1061,207	57,97
1061,57	59,64
1061,934	60,33
1062,297	58,98
1062,66	58,58
1063,023	58,74
1063,386	61,04
1063,749	60,32
1064,112	59,57
1064,475	57,99
1064,838	59,88
1065,201	58,54
1065,563	59,38
1065,926	60,73
1066,288	59,65
1066,651	60,26
1067,013	60,23
1067,375	59,9
1067,737	59,45
1068,099	60,42
1068,461	59,89
1068,823	61,1
1069,185	59,93
1069,547	60,35
1069,909	57,86
1070,27	58,62
1070,632	60,41
1070,993	58,72
1071,355	59,03
1071,716	59,74
1072,077	61
1072,438	60,06
1072,799	58,47
1073,16	60,49
1073,521	58,48
1073,882	57,09
1074,243	60,43
1074,603	58,82
1074,964	60,07
1075,325	59,64
1075,685	58
1076,045	59,02
1076,406	59,88
1076,766	58,81
1077,126	60,43
1077,486	62,43
1077,846	59,41
1078,206	59,43
1078,566	60,53
1078,925	58,99
1079,285	58,64
1079,645	58,96
1080,004	60,13
1080,364	57,72
1080,723	60,19
1081,082	59,28
1081,442	59,79
1081,801	56,79
1082,16	61,24
1082,519	59,99
1082,878	58,72
1083,237	61,2
1083,595	60,05
1083,954	61,24
1084,313	57,9
1084,671	58,7
1085,03	59,35
1085,388	62,53
1085,746	63,44
1086,104	58,06
1086,463	61,49
1086,821	60,28
1087,179	59,36
1087,537	59,96
1087,894	60,14
1088,252	58,6
1088,61	61,43
1088,967	61
1089,325	58,58
1089,682	61,81
1090,04	60,95
1090,397	62,61
1090,754	59,01
1091,111	58,77
1091,469	58,06
1091,826	63,05
1092,182	61,94
1092,539	59,4
1092,896	59,9
1093,253	60,18
1093,609	61,79
1093,966	63,82
1094,322	61,47
1094,679	60,55
1095,035	61,11
1095,391	61,05
1095,748	63,25
1096,104	61,7
1096,46	61,32
1096,816	59,88
1097,171	63,25
1097,527	61,02
1097,883	62,07
1098,239	62,01
1098,594	59,74
1098,95	59,28
1099,305	62,55
1099,66	61,81
1100,016	61,48
1100,371	62,53
1100,726	65,51
1101,081	61,32
1101,436	62,67
1101,791	60,75
1102,146	64,14
1102,5	60,05
1102,855	62,89
1103,21	63,84
1103,564	58,6
1103,918	64,03
1104,273	63,64
1104,627	64,28
1104,981	64,83
1105,335	60,99
1105,69	61,74
1106,043	62,44
1106,397	63,21
1106,751	62,65
1107,105	62,78
1107,459	63,22
1107,812	62,2
1108,166	64
1108,519	64,11
1108,873	62,07
1109,226	63,51
1109,579	61,55
1109,932	63,57
1110,285	61,92
1110,638	62,47
1110,991	60,57
1111,344	63,07
1111,697	61,62
1112,05	63,5
1112,402	69,25
1112,755	63,7
1113,107	63,89
1113,46	67,71
1113,812	65,9
1114,164	63,92
1114,517	65,69
1114,869	90,73
1115,221	82,64
1115,573	89,78
1115,924	85,06
