Data from F_1_Relative__2__00117.txt Node

Date: Tue Jan 30 10:07:08 CET 2024
User: diatiterra
Spectrometer: HDX00911
Trigger mode: 0
Integration Time (sec): 6,000000E-3
Scans to average: 2
Nonlinearity correction enabled: false
Boxcar width: 0
Storing dark spectrum: false
XAxis mode: Wavelengths
Number of Pixels in Spectrum: 2068
>>>>>Begin Spectral Data<<<<<
194,468	70,17
195,025	64,52
195,581	57,58
196,138	63,69
196,694	55,72
197,251	45,81
197,807	39,17
198,363	43,03
198,919	47,66
199,474	44,49
200,03	39,37
200,586	44,05
201,141	42,44
201,696	40,34
202,251	36,82
202,806	44,26
203,361	44,31
203,916	43,98
204,471	34,65
205,025	41
205,58	37,33
206,134	41,04
206,688	37,34
207,242	45,5
207,796	41,95
208,35	47,95
208,904	47,18
209,457	48,84
210,011	46,29
210,564	35,14
211,117	49,36
211,67	41,3
212,223	48,21
212,776	44,49
213,329	42,62
213,881	44,16
214,434	44,26
214,986	46,88
215,538	51,57
216,09	40,56
216,642	46,69
217,194	51,67
217,746	45,42
218,297	44,96
218,849	46,01
219,4	41,56
219,951	46,9
220,502	46,69
221,053	52,12
221,604	48,03
222,155	41,53
222,705	45,96
223,256	40,45
223,806	44,58
224,356	39,22
224,906	51,54
225,456	34,03
226,006	43,75
226,556	51,33
227,106	46,47
227,655	38,6
228,204	45,25
228,754	43,46
229,303	46,4
229,852	46,29
230,401	44,39
230,949	43,26
231,498	45,54
232,047	46,31
232,595	43,78
233,143	49,12
233,691	42,76
234,239	32,44
234,787	44,84
235,335	45,02
235,883	44,59
236,43	43,64
236,978	46,09
237,525	46,38
238,072	35,24
238,619	27,35
239,166	38,79
239,713	39,66
240,26	40,73
240,806	43,1
241,353	47,86
241,899	46,09
242,445	38,91
242,991	37,3
243,537	38,1
244,083	38,46
244,629	38,33
245,174	40,43
245,72	45,17
246,265	39,82
246,81	43,56
247,355	50,36
247,9	51,25
248,445	38,89
248,99	42,55
249,534	39,25
250,079	43,06
250,623	42,04
251,168	51,43
251,712	36,68
252,256	40,08
252,8	48,67
253,343	42,51
253,887	49,78
254,43	46,67
254,974	48,8
255,517	47,12
256,06	34,18
256,603	46,91
257,146	44,62
257,689	48,31
258,232	45,7
258,774	42,29
259,317	44,4
259,859	47,14
260,401	45,79
260,943	44,81
261,485	45,91
262,027	46,38
262,569	46,76
263,11	45,13
263,652	40,27
264,193	43,72
264,734	48,61
265,275	43,78
265,816	39,74
266,357	44,4
266,898	47,44
267,438	46,38
267,979	45,26
268,519	45,67
269,059	37,55
269,6	39,38
270,14	38,36
270,68	35,66
271,219	39,57
271,759	41,92
272,298	37,2
272,838	47,41
273,377	51,8
273,916	45,14
274,455	40
274,994	42,86
275,533	47,91
276,072	40
276,61	46,93
277,149	46,25
277,687	47,46
278,225	41,15
278,763	38,17
279,301	40
279,839	47,95
280,377	38,37
280,914	41,2
281,452	45,53
281,989	50,41
282,526	34,17
283,064	47,51
283,601	43,75
284,137	38,67
284,674	44,35
285,211	45,41
285,747	45,28
286,284	52,16
286,82	42,74
287,356	35,56
287,892	38,68
288,428	38,2
288,964	47,3
289,5	41,86
290,035	38,59
290,571	43,97
291,106	40,72
291,641	34,93
292,176	36
292,711	40,52
293,246	42,15
293,781	37,83
294,315	39,53
294,85	40,64
295,384	39,15
295,918	42,4
296,453	44,94
296,987	42,37
297,52	40,27
298,054	43,89
298,588	42,4
299,121	38,29
299,655	34,91
300,188	34,75
300,721	48,66
301,254	34,98
301,787	43,42
302,32	35,04
302,853	49,36
303,385	40,78
303,918	43,56
304,45	40,17
304,982	42,4
305,514	35,37
306,046	41,15
306,578	41,49
307,11	39,77
307,641	44,12
308,173	48,7
308,704	50,81
309,236	44,35
309,767	37,5
310,298	43,2
310,829	36,43
311,359	48,23
311,89	40
312,421	39,18
312,951	41,42
313,481	41,23
314,012	40,7
314,542	38,74
315,072	38,63
315,601	45,56
316,131	44,64
316,661	44,79
317,19	37,96
317,72	44,92
318,249	51,83
318,778	46,91
319,307	45,56
319,836	42,4
320,365	44,26
320,893	56,69
321,422	42,6
321,95	44,78
322,479	44,98
323,007	45,82
323,535	50,19
324,063	49,42
324,591	47,13
325,118	39,83
325,646	46,55
326,173	42,86
326,701	43,43
327,228	46,12
327,755	42,86
328,282	53,18
328,809	42,11
329,336	48,51
329,862	49,64
330,389	45,81
330,915	43,02
331,441	54,01
331,968	46,22
332,494	46,22
333,02	47,28
333,545	38,87
334,071	44,54
334,597	45,04
335,122	44,59
335,648	45,6
336,173	49,58
336,698	44,64
337,223	39,44
337,748	52,94
338,272	47,64
338,797	46,61
339,322	48,29
339,846	46,59
340,37	47,16
340,894	48,1
341,419	49,6
341,942	40,31
342,466	36,28
342,99	40,68
343,514	51,01
344,037	44,36
344,56	47,81
345,084	46,61
345,607	44,53
346,13	42,34
346,653	42,8
347,175	48,31
347,698	41,03
348,221	44,94
348,743	50,94
349,265	42,45
349,787	42,51
350,309	41,24
350,831	40,14
351,353	38,78
351,875	42,49
352,397	42,71
352,918	44,22
353,439	33,86
353,961	43,71
354,482	41,95
355,003	41,01
355,524	38,18
356,044	38,18
356,565	36,11
357,086	40,91
357,606	32
358,126	39,46
358,646	28,28
359,167	33,55
359,687	35,97
360,206	40,26
360,726	33,44
361,246	35,29
361,765	32,04
362,285	28,86
362,804	27,13
363,323	32,13
363,842	33,66
364,361	38,7
364,88	32,43
365,398	29,31
365,917	28,99
366,435	30,03
366,954	26,14
367,472	29,43
367,99	30,03
368,508	30,3
369,026	29,18
369,544	29,28
370,061	27,88
370,579	24,03
371,096	32,46
371,613	25,74
372,131	28,72
372,648	30,2
373,165	27,7
373,681	25,39
374,198	28,1
374,715	22,94
375,231	26,67
375,747	28,15
376,264	26,94
376,78	26,3
377,296	20
377,812	21,2
378,327	24,65
378,843	23,74
379,359	22,69
379,874	22,45
380,389	20,32
380,905	21,44
381,42	19,39
381,935	26,51
382,449	24,02
382,964	21,17
383,479	19,62
383,993	23,6
384,508	16,15
385,022	21,28
385,536	18,03
386,05	18,18
386,564	18,25
387,078	21,64
387,592	18,69
388,105	20,2
388,619	16,48
389,132	15,81
389,645	15,36
390,158	17,64
390,671	17,47
391,184	18,36
391,697	15,79
392,21	17,46
392,722	14,87
393,235	15,11
393,747	14,61
394,259	12,3
394,771	16,55
395,283	14,42
395,795	15,07
396,307	14,44
396,818	14,21
397,33	13,51
397,841	11,49
398,353	12,65
398,864	13,41
399,375	11,08
399,886	11,8
400,397	14,67
400,907	10,39
401,418	10,34
401,928	11,51
402,439	10,71
402,949	10,5
403,459	10,49
403,969	10,04
404,479	11,47
404,989	10,28
405,498	8,88
406,008	11,57
406,517	10,17
407,027	8,54
407,536	10,25
408,045	7,89
408,554	7,56
409,063	8,2
409,572	8,12
410,08	6,88
410,589	6,46
411,097	6,63
411,606	6,01
412,114	3,94
412,622	5,62
413,13	6,22
413,638	5,31
414,145	5,67
414,653	4,55
415,16	4,52
415,668	5,75
416,175	4,16
416,682	4,27
417,189	4,31
417,696	4,01
418,203	4,83
418,71	3,76
419,216	4,01
419,723	3,76
420,229	3,51
420,735	3,43
421,242	3,43
421,748	3,7
422,254	4,57
422,759	3,5
423,265	3,15
423,771	3,46
424,276	3,41
424,781	3,25
425,287	3,19
425,792	3,38
426,297	3,08
426,802	3,15
427,306	2,78
427,811	3,19
428,316	3,8
428,82	2,82
429,324	3,19
429,829	3,71
430,333	3,04
430,837	2,82
431,34	2,45
431,844	2,31
432,348	3,07
432,851	3,18
433,355	2,53
433,858	2,93
434,361	2,37
434,864	2,44
435,367	3,1
435,87	2,74
436,373	2,31
436,876	2,78
437,378	2,48
437,88	2,37
438,383	3,13
438,885	2,43
439,387	2,28
439,889	2,72
440,391	1,99
440,892	2,7
441,394	2,88
441,896	2,43
442,397	2,89
442,898	2,28
443,399	2,48
443,9	2,39
444,401	2,54
444,902	2,24
445,403	2,32
445,903	2,32
446,404	2,76
446,904	2,41
447,405	2,14
447,905	2,01
448,405	2,13
448,905	2,35
449,404	2,1
449,904	2,06
450,404	2,23
450,903	2,48
451,403	2,15
451,902	2,24
452,401	2,05
452,9	2,11
453,399	2,18
453,898	1,97
454,396	2,22
454,895	2,33
455,393	2,17
455,892	2,19
456,39	1,62
456,888	2,22
457,386	2,1
457,884	2,1
458,382	2,16
458,879	2,21
459,377	2,18
459,874	2,17
460,372	2,26
460,869	1,98
461,366	1,96
461,863	2,09
462,36	1,85
462,857	1,68
463,353	1,95
463,85	1,79
464,346	1,68
464,843	2
465,339	1,93
465,835	1,83
466,331	1,57
466,827	1,88
467,323	1,64
467,818	1,73
468,314	1,95
468,809	1,72
469,305	1,87
469,8	2,13
470,295	1,88
470,79	1,86
471,285	1,52
471,78	1,73
472,274	1,7
472,769	1,63
473,263	1,64
473,758	1,87
474,252	1,68
474,746	1,45
475,24	1,86
475,734	1,76
476,228	1,6
476,721	1,77
477,215	1,68
477,708	1,67
478,202	1,7
478,695	1,58
479,188	1,81
479,681	1,61
480,174	1,32
480,667	1,61
481,159	1,84
481,652	1,8
482,144	1,54
482,637	1,42
483,129	1,46
483,621	1,74
484,113	1,67
484,605	1,71
485,097	1,7
485,588	1,64
486,08	1,69
486,571	1,68
487,063	1,8
487,554	1,35
488,045	1,74
488,536	1,44
489,027	1,67
489,518	1,69
490,008	1,74
490,499	1,69
490,989	1,57
491,48	1,63
491,97	1,53
492,46	1,35
492,95	1,41
493,44	1,29
493,93	1,67
494,419	1,68
494,909	1,45
495,398	1,56
495,888	1,59
496,377	1,52
496,866	1,56
497,355	1,55
497,844	1,39
498,333	1,58
498,821	1,61
499,31	1,5
499,798	1,65
500,287	1,7
500,775	1,65
501,263	1,76
501,751	1,51
502,239	1,79
502,727	1,69
503,215	1,79
503,702	1,6
504,19	1,63
504,677	1,78
505,164	1,86
505,651	1,78
506,139	2,11
506,625	1,6
507,112	1,81
507,599	2,16
508,086	1,82
508,572	2,05
509,058	1,84
509,545	2,05
510,031	1,91
510,517	2,08
511,003	1,91
511,489	2,07
511,974	2,11
512,46	2,15
512,946	2,14
513,431	2,14
513,916	2,4
514,401	2,27
514,887	2,24
515,371	2,33
515,856	2,41
516,341	2,46
516,826	2,58
517,31	2,51
517,795	2,47
518,279	2,65
518,763	2,72
519,247	2,5
519,731	2,55
520,215	2,75
520,699	2,43
521,182	2,77
521,666	2,76
522,149	2,94
522,633	2,96
523,116	2,93
523,599	3,17
524,082	3,05
524,565	3,05
525,048	2,99
525,53	3,12
526,013	3,3
526,495	3,27
526,978	3,24
527,46	3,16
527,942	3,49
528,424	3,44
528,906	3,41
529,388	3,41
529,87	3,35
530,351	3,35
530,833	3,36
531,314	3,49
531,795	3,71
532,277	3,37
532,758	3,48
533,238	3,73
533,719	3,28
534,2	3,54
534,681	3,39
535,161	3,79
535,642	3,58
536,122	3,73
536,602	3,72
537,082	3,71
537,562	3,66
538,042	3,73
538,522	3,54
539,001	3,69
539,481	3,67
539,96	3,62
540,44	3,62
540,919	3,65
541,398	3,62
541,877	3,56
542,356	3,87
542,835	3,69
543,313	3,49
543,792	3,46
544,27	3,6
544,749	3,62
545,227	3,85
545,705	3,66
546,183	3,7
546,661	3,71
547,139	3,54
547,616	3,58
548,094	3,74
548,571	3,65
549,049	3,68
549,526	3,77
550,003	3,51
550,48	3,7
550,957	3,62
551,434	3,46
551,911	3,8
552,387	3,7
552,864	3,56
553,34	3,69
553,817	3,68
554,293	3,61
554,769	3,8
555,245	3,64
555,721	3,64
556,197	3,74
556,672	3,66
557,148	3,62
557,623	3,57
558,099	3,64
558,574	3,8
559,049	3,54
559,524	3,71
559,999	3,68
560,474	3,49
560,948	3,51
561,423	3,69
561,897	3,58
562,372	3,56
562,846	3,53
563,32	3,55
563,794	3,47
564,268	3,48
564,742	3,47
565,216	3,35
565,69	3,54
566,163	3,55
566,636	3,38
567,11	3,45
567,583	3,3
568,056	3,27
568,529	3,33
569,002	3,32
569,475	3,26
569,947	3,27
570,42	3,31
570,892	3,14
571,365	3,17
571,837	3,1
572,309	3,16
572,781	3,06
573,253	3,12
573,725	3,02
574,197	3,07
574,668	3,04
575,14	3,05
575,611	2,85
576,082	2,72
576,554	2,98
577,025	2,85
577,496	2,76
577,967	2,75
578,437	2,9
578,908	2,76
579,379	2,76
579,849	2,77
580,319	2,65
580,79	2,64
581,26	2,82
581,73	2,7
582,2	2,69
582,669	2,57
583,139	2,62
583,609	2,63
584,078	2,59
584,548	2,66
585,017	2,66
585,486	2,63
585,955	2,44
586,424	2,43
586,893	2,57
587,362	2,51
587,83	2,42
588,299	2,54
588,767	2,58
589,236	2,44
589,704	2,58
590,172	2,33
590,64	2,43
591,108	2,35
591,576	2,47
592,043	2,39
592,511	2,3
592,978	2,43
593,446	2,34
593,913	2,38
594,38	2,39
594,847	2,35
595,314	2,27
595,781	2,34
596,248	2,48
596,715	2,34
597,181	2,25
597,647	2,33
598,114	2,29
598,58	2,28
599,046	2,33
599,512	2,22
599,978	2,23
600,444	2,34
600,91	2,25
601,375	2,36
601,841	2,26
602,306	2,29
602,771	2,28
603,236	2,22
603,702	2,17
604,167	2,18
604,631	2,29
605,096	2,2
605,561	2,11
606,025	2,2
606,49	2,15
606,954	2,13
607,418	2,1
607,882	2,12
608,347	2,18
608,81	2,21
609,274	2,01
609,738	2,1
610,202	2,03
610,665	2,18
611,128	2,04
611,592	2,09
612,055	1,91
612,518	2,07
612,981	2
613,444	1,98
613,907	1,92
614,369	1,77
614,832	1,97
615,294	1,92
615,757	1,81
616,219	1,85
616,681	1,89
617,143	1,88
617,605	1,85
618,067	1,83
618,529	1,75
618,99	1,87
619,452	1,78
619,913	1,77
620,375	1,75
620,836	1,82
621,297	1,83
621,758	1,77
622,219	1,73
622,68	1,77
623,14	1,74
623,601	1,76
624,061	1,73
624,522	1,76
624,982	1,7
625,442	1,57
625,902	1,67
626,362	1,7
626,822	1,7
627,282	1,77
627,742	1,64
628,201	1,63
628,661	1,66
629,12	1,62
629,579	1,64
630,038	1,73
630,497	1,55
630,956	1,7
631,415	1,66
631,874	1,62
632,332	1,67
632,791	1,61
633,249	1,61
633,708	1,68
634,166	1,61
634,624	1,63
635,082	1,67
635,54	1,56
635,998	1,57
636,455	1,53
636,913	1,61
637,37	1,55
637,828	1,57
638,285	1,6
638,742	1,58
639,199	1,51
639,656	1,42
640,113	1,41
640,57	1,37
641,027	1,32
641,483	1,48
641,94	1,32
642,396	1,38
642,852	1,37
643,309	1,33
643,765	1,37
644,221	1,39
644,676	1,26
645,132	1,24
645,588	1,24
646,043	1,18
646,499	1,26
646,954	1,24
647,409	1,21
647,864	1,15
648,319	1,2
648,774	0,99
649,229	1,18
649,684	1,2
650,139	1,03
650,593	1,12
651,047	1,1
651,502	1,14
651,956	1,04
652,41	1,05
652,864	1,07
653,318	1,01
653,772	1,01
654,225	0,99
654,679	1,02
655,133	0,97
655,586	1,01
656,039	0,99
656,492	1
656,946	0,95
657,399	0,88
657,851	0,96
658,304	0,94
658,757	0,97
659,209	0,89
659,662	0,91
660,114	0,85
660,567	0,85
661,019	0,82
661,471	0,87
661,923	0,8
662,375	0,81
662,826	0,77
663,278	0,8
663,73	0,79
664,181	0,79
664,632	0,77
665,084	0,72
665,535	0,75
665,986	0,73
666,437	0,68
666,888	0,72
667,338	0,67
667,789	0,73
668,24	0,73
668,69	0,71
669,14	0,69
669,591	0,74
670,041	0,67
670,491	0,7
670,941	0,74
671,391	0,74
671,84	0,69
672,29	0,71
672,74	0,67
673,189	0,75
673,638	0,71
674,088	0,8
674,537	0,76
674,986	0,68
675,435	0,79
675,883	0,77
676,332	0,75
676,781	0,71
677,229	0,82
677,678	0,82
678,126	0,75
678,574	0,83
679,022	0,71
679,47	0,83
679,918	0,81
680,366	0,76
680,814	0,84
681,261	0,79
681,709	0,85
682,156	0,86
682,604	0,82
683,051	0,95
683,498	0,88
683,945	0,95
684,392	0,95
684,839	1,03
685,286	1,01
685,732	1
686,179	1,01
686,625	1,1
687,071	1,11
687,518	1,09
687,964	1,16
688,41	1,12
688,856	1,25
689,301	1,25
689,747	1,33
690,193	1,36
690,638	1,44
691,084	1,41
691,529	1,54
691,974	1,67
692,419	1,66
692,864	1,73
693,309	1,8
693,754	1,87
694,199	1,95
694,643	2,02
695,088	1,98
695,532	2,2
695,977	2,25
696,421	2,31
696,865	2,34
697,309	2,42
697,753	2,51
698,197	2,6
698,64	2,64
699,084	2,66
699,527	2,89
699,971	2,86
700,414	3,01
700,857	3,04
701,3	3,04
701,743	3,14
702,186	3,21
702,629	3,29
703,072	3,38
703,515	3,4
703,957	3,49
704,399	3,58
704,842	3,55
705,284	3,61
705,726	3,72
706,168	3,74
706,61	3,76
707,052	3,85
707,494	3,82
707,935	3,8
708,377	4,01
708,818	4,02
709,26	4,17
709,701	4,13
710,142	4,2
710,583	4,21
711,024	4,32
711,465	4,37
711,905	4,33
712,346	4,29
712,787	4,28
713,227	4,51
713,667	4,44
714,108	4,54
714,548	4,56
714,988	4,5
715,428	4,7
715,868	4,55
716,307	4,67
716,747	4,68
717,186	4,75
717,626	4,7
718,065	4,77
718,504	4,67
718,944	4,82
719,383	4,94
719,822	4,82
720,261	4,87
720,699	4,98
721,138	4,99
721,576	4,94
722,015	5,04
722,453	5,1
722,892	5,02
723,33	5,05
723,768	5,03
724,206	5,17
724,644	5,14
725,081	5,16
725,519	5,19
725,957	5,24
726,394	5,16
726,832	5,27
727,269	5,21
727,706	5,38
728,143	5,26
728,58	5,26
729,017	5,24
729,454	5,3
729,89	5,2
730,327	5,37
730,764	5,17
731,2	5,25
731,636	5,28
732,072	5,36
732,509	5,35
732,945	5,42
733,38	5,34
733,816	5,46
734,252	5,38
734,688	5,37
735,123	5,5
735,559	5,44
735,994	5,43
736,429	5,28
736,864	5,5
737,299	5,35
737,734	5,52
738,169	5,45
738,604	5,5
739,038	5,42
739,473	5,37
739,907	5,51
740,342	5,42
740,776	5,51
741,21	5,52
741,644	5,56
742,078	5,45
742,512	5,55
742,946	5,6
743,379	5,54
743,813	5,46
744,246	5,33
744,68	5,45
745,113	5,46
745,546	5,39
745,979	5,48
746,412	5,43
746,845	5,46
747,278	5,43
747,711	5,5
748,143	5,47
748,576	5,45
749,008	5,39
749,441	5,46
749,873	5,32
750,305	5,41
750,737	5,52
751,169	5,37
751,601	5,48
752,032	5,5
752,464	5,39
752,896	5,46
753,327	5,33
753,758	5,46
754,19	5,51
754,621	5,39
755,052	5,47
755,483	5,42
755,914	5,44
756,344	5,43
756,775	5,39
757,206	5,38
757,636	5,27
758,066	5,38
758,497	5,28
758,927	5,4
759,357	5,43
759,787	5,47
760,217	5,32
760,647	5,36
761,076	5,37
761,506	5,33
761,935	5,34
762,365	5,25
762,794	5,37
763,223	5,3
763,653	5,3
764,082	5,35
764,51	5,29
764,939	5,32
765,368	5,26
765,797	5,36
766,225	5,3
766,654	5,33
767,082	5,28
767,51	5,34
767,938	5,3
768,367	5,28
768,795	5,34
769,222	5,35
769,65	5,24
770,078	5,26
770,505	5,36
770,933	5,32
771,36	5,19
771,788	5,17
772,215	5,19
772,642	5,26
773,069	5,23
773,496	5,25
773,923	5,17
774,349	5,27
774,776	5,33
775,203	5,13
775,629	5,36
776,055	5,2
776,482	5,29
776,908	5,34
777,334	5,23
777,76	5,32
778,186	5,29
778,611	5,4
779,037	5,2
779,463	5,23
779,888	5,29
780,314	5,23
780,739	5,16
781,164	5,19
781,589	5,21
782,014	5,22
782,439	5,11
782,864	5,12
783,289	5,19
783,713	5,24
784,138	5,21
784,562	5,37
784,987	5,24
785,411	5,18
785,835	5,12
786,259	5,25
786,683	5,17
787,107	5,21
787,531	5,28
787,954	5,18
788,378	5,25
788,802	5,23
789,225	5,18
789,648	5,16
790,071	5,28
790,495	5,14
790,918	5,26
791,34	5,18
791,763	5,25
792,186	5,23
792,609	5,27
793,031	5,24
793,454	5,04
793,876	5,12
794,298	5,15
794,721	5,15
795,143	5,27
795,565	5,27
795,986	5,17
796,408	5,17
796,83	5,24
797,252	5,18
797,673	5,23
798,094	5,29
798,516	5,22
798,937	5,24
799,358	5,24
799,779	5,21
800,2	5,3
800,621	5,23
801,042	5,24
801,462	5,06
801,883	5,21
802,303	5,14
802,724	5,17
803,144	5,28
803,564	5,24
803,984	5,31
804,404	5,11
804,824	5,28
805,244	5,17
805,664	5,12
806,084	5,11
806,503	5,24
806,923	5,18
807,342	5,17
807,761	5,21
808,18	5,38
808,599	5,23
809,018	5,22
809,437	5,31
809,856	5,16
810,275	5,21
810,693	5,3
811,112	5,14
811,53	5,26
811,949	5,17
812,367	5,18
812,785	5,18
813,203	5,27
813,621	5,25
814,039	5,26
814,457	5,23
814,874	5,13
815,292	5,21
815,709	5,09
816,127	5,26
816,544	5,02
816,961	5,21
817,378	5,11
817,795	5,09
818,212	5,25
818,629	5,15
819,046	5,07
819,462	5,17
819,879	5,32
820,295	5,13
820,712	5,09
821,128	5,21
821,544	5,18
821,96	5,08
822,376	5,2
822,792	5,06
823,208	5,26
823,624	5,16
824,039	5,09
824,455	5,17
824,87	5,21
825,286	5,21
825,701	5,14
826,116	5,17
826,531	5,07
826,946	5,17
827,361	5,14
827,776	5,33
828,19	5,13
828,605	5,07
829,02	5,18
829,434	5,12
829,848	5,26
830,263	5,33
830,677	5,15
831,091	5,17
831,505	5,22
831,919	5,11
832,332	5,14
832,746	5,09
833,16	5,17
833,573	5,14
833,987	5,15
834,4	5,16
834,813	5,2
835,226	5,21
835,639	5,22
836,052	5,07
836,465	5,18
836,878	5,15
837,29	5,1
837,703	5,06
838,116	5,17
838,528	5,17
838,94	5,14
839,352	5,18
839,765	5,29
840,177	5,16
840,589	5,21
841	5,16
841,412	5,27
841,824	5,15
842,235	5,19
842,647	5,24
843,058	5,07
843,47	5,04
843,881	5,09
844,292	5,29
844,703	5,09
845,114	5,25
845,525	5,27
845,935	5,09
846,346	5,19
846,757	5,17
847,167	5,21
847,577	5,22
847,988	5,19
848,398	5,05
848,808	5,2
849,218	5,18
849,628	5,09
850,038	5,06
850,448	5,22
850,857	5,21
851,267	5,15
851,676	5,09
852,086	5,1
852,495	5,24
852,904	4,99
853,313	5,09
853,722	5,27
854,131	5,24
854,54	5,14
854,949	5,14
855,357	5,15
855,766	5,21
856,174	5,22
856,583	5,19
856,991	5,21
857,399	5,05
857,807	5,09
858,215	5,04
858,623	4,92
859,031	5,05
859,439	4,99
859,846	5,21
860,254	5,23
860,661	5,09
861,069	5,33
861,476	5,12
861,883	5,17
862,29	5,06
862,697	5,03
863,104	4,98
863,511	5,17
863,918	5,01
864,325	5,08
864,731	5,11
865,138	5,01
865,544	5,14
865,95	5,11
866,357	5,12
866,763	5,18
867,169	5,19
867,575	5,21
867,98	5,21
868,386	5,05
868,792	5,23
869,197	5,25
869,603	5,04
870,008	5,07
870,414	5,2
870,819	5,15
871,224	5,29
871,629	5,2
872,034	4,96
872,439	5,13
872,844	5,08
873,248	5,12
873,653	5,12
874,057	5,15
874,462	5,07
874,866	5,13
875,27	5,12
875,674	5,15
876,078	5,09
876,482	5,04
876,886	5,14
877,29	5,28
877,694	5,15
878,097	5,07
878,501	5,11
878,904	5,09
879,308	5,24
879,711	5,26
880,114	5,09
880,517	5,15
880,92	5,15
881,323	5,23
881,726	5,25
882,128	5,2
882,531	5,27
882,934	5,15
883,336	5,14
883,738	5,1
884,141	5,27
884,543	5,2
884,945	5,16
885,347	5,24
885,749	5,24
886,151	5,17
886,552	5,06
886,954	5,08
887,355	5,16
887,757	5,21
888,158	5,13
888,56	5,27
888,961	5,18
889,362	5,12
889,763	5,25
890,164	5,11
890,565	5,23
890,965	5,12
891,366	5,11
891,767	5,19
892,167	4,95
892,567	5,17
892,968	5,12
893,368	5,08
893,768	5,13
894,168	5,06
894,568	5,11
894,968	5,15
895,368	5,01
895,767	4,99
896,167	5,15
896,566	5,08
896,966	5,03
897,365	5,09
897,764	5,16
898,164	4,97
898,563	5,26
898,962	5,07
899,361	5,23
899,759	5,14
900,158	5,04
900,557	5,3
900,955	5,01
901,354	5,2
901,752	5,12
902,15	5,07
902,548	5,13
902,947	5,1
903,345	5,06
903,742	5,03
904,14	5,08
904,538	5,03
904,936	5,3
905,333	5,15
905,731	5,09
906,128	5,2
906,525	5,03
906,923	5,24
907,32	5,05
907,717	5,1
908,114	5,12
908,511	5,13
908,907	5,14
909,304	5,11
909,701	5,13
910,097	5,21
910,494	5,03
910,89	5,21
911,286	5,24
911,682	5,11
912,078	5,32
912,474	5,35
912,87	5,07
913,266	5,25
913,662	5,2
914,058	5,06
914,453	5,09
914,849	4,98
915,244	5,16
915,639	5,09
916,034	5,28
916,43	5,15
916,825	5,22
917,22	5,07
917,614	5,13
918,009	5,21
918,404	5,12
918,798	5,08
919,193	5,33
919,587	5,14
919,982	5,09
920,376	5,24
920,77	5,25
921,164	5,24
921,558	5,18
921,952	5,17
922,346	5,26
922,74	5,13
923,133	5,15
923,527	5,24
923,92	5,27
924,314	5,1
924,707	5,15
925,1	5,13
925,493	5,26
925,886	5,19
926,279	5,05
926,672	5,09
927,065	5,28
927,457	5,11
927,85	5,51
928,243	5,38
928,635	5,16
929,027	5,39
929,42	5,33
929,812	5,34
930,204	5,16
930,596	5,17
930,988	5,1
931,379	5,1
931,771	5,42
932,163	5,31
932,554	5,35
932,946	5,2
933,337	5,16
933,729	5,38
934,12	5,31
934,511	5,31
934,902	5,19
935,293	5,59
935,684	5,19
936,075	5,54
936,465	5,45
936,856	4,98
937,246	5,59
937,637	5,53
938,027	5,41
938,417	5,53
938,808	5,47
939,198	5,73
939,588	5,64
939,978	5,44
940,368	5,89
940,757	5,8
941,147	6,03
941,537	5,81
941,926	6,02
942,315	5,92
942,705	5,83
943,094	5,79
943,483	6,16
943,872	5,54
944,261	5,81
944,65	5,88
945,039	5,93
945,428	5,54
945,816	6,16
946,205	5,84
946,593	5,77
946,982	5,9
947,37	5,7
947,758	5,85
948,146	5,57
948,534	5,38
948,922	5,7
949,31	5,39
949,698	5,91
950,086	5,37
950,473	6,1
950,861	5,55
951,248	5,52
951,636	5,73
952,023	5,49
952,41	5,61
952,797	5,59
953,184	5,6
953,571	5,43
953,958	5,64
954,345	5,56
954,731	5,55
955,118	5,71
955,505	5,34
955,891	5,17
956,277	5,63
956,664	5,36
957,05	5,43
957,436	5,49
957,822	5,21
958,208	5,31
958,594	5,25
958,979	5,2
959,365	5,13
959,751	5,38
960,136	5,23
960,522	5,39
960,907	5,12
961,292	5,23
961,677	5,05
962,062	5,3
962,447	5,08
962,832	5,24
963,217	5,54
963,602	5,42
963,986	5,32
964,371	5,15
964,756	4,96
965,14	5,34
965,524	4,9
965,908	5,16
966,293	5,06
966,677	5,25
967,061	5,15
967,445	5,08
967,828	5,14
968,212	5,07
968,596	5,15
968,979	5,05
969,363	5,17
969,746	5,35
970,129	4,92
970,513	5,24
970,896	5,34
971,279	5,19
971,662	5,12
972,045	5,27
972,428	5,14
972,81	5,36
973,193	5,24
973,575	5,29
973,958	4,86
974,34	5,31
974,723	5,17
975,105	5,34
975,487	5,18
975,869	5,04
976,251	5,04
976,633	5,28
977,015	4,99
977,396	5,32
977,778	5,22
978,16	5,23
978,541	5,31
978,922	5,25
979,304	5,24
979,685	5,13
980,066	5,14
980,447	5,27
980,828	5,15
981,209	5,32
981,59	5,23
981,97	5,15
982,351	5,15
982,732	5,28
983,112	5,2
983,493	5,22
983,873	5,21
984,253	5,31
984,633	5,1
985,013	5,28
985,393	5,28
985,773	5,51
986,153	5,41
986,533	5,37
986,912	5,25
987,292	5,49
987,671	5,18
988,051	5,38
988,43	5,31
988,809	5,27
989,188	5,35
989,567	5,1
989,946	5,34
990,325	5,23
990,704	5,29
991,083	5,42
991,461	5,22
991,84	5,34
992,218	5,19
992,597	5,27
992,975	5,22
993,353	5,01
993,732	5,55
994,11	5
994,488	5,2
994,866	5,38
995,243	5,29
995,621	5,19
995,999	5,26
996,376	5,14
996,754	5,25
997,131	5,42
997,509	5,73
997,886	5,15
998,263	5,23
998,64	5,29
999,017	5,34
999,394	5,38
999,771	5,46
1000,148	5,35
1000,524	5,37
1000,901	5,11
1001,277	5,23
1001,654	5,37
1002,03	5,27
1002,406	5,55
1002,783	5,52
1003,159	5,5
1003,535	5,22
1003,911	5,31
1004,286	5,27
1004,662	5,48
1005,038	5,65
1005,414	5,21
1005,789	5,62
1006,164	5,58
1006,54	5,5
1006,915	5,73
1007,29	5,55
1007,665	5,45
1008,04	5,48
1008,415	5,53
1008,79	5,35
1009,165	5,19
1009,54	5,64
1009,914	5,53
1010,289	5,36
1010,663	5,43
1011,038	5,53
1011,412	5,94
1011,786	5,37
1012,16	5,66
1012,535	5,64
1012,909	5,76
1013,282	5,33
1013,656	5,76
1014,03	6,15
1014,404	5,53
1014,777	5,67
1015,151	5,45
1015,524	5,58
1015,897	5,44
1016,271	5,45
1016,644	5,57
1017,017	5,75
1017,39	5,18
1017,763	5,68
1018,136	5,22
1018,508	6,04
1018,881	5,39
1019,254	5,44
1019,626	5,86
1019,999	5,76
1020,371	5,64
1020,743	5,68
1021,116	5,8
1021,488	5,73
1021,86	5,63
1022,232	5,85
1022,604	5,76
1022,975	5,45
1023,347	6,32
1023,719	5,56
1024,09	5,94
1024,462	5,76
1024,833	5,5
1025,204	5,84
1025,576	5,84
1025,947	5,84
1026,318	5,83
1026,689	5,66
1027,06	6,01
1027,431	5,97
1027,801	5,86
1028,172	5,84
1028,543	5,82
1028,913	5,52
1029,284	5,44
1029,654	6,19
1030,024	5,42
1030,394	5,87
1030,764	5,86
1031,135	5,78
1031,504	5,98
1031,874	5,94
1032,244	5,98
1032,614	6,11
1032,983	5,88
1033,353	5,72
1033,722	6,03
1034,092	6,38
1034,461	6,15
1034,83	6,09
1035,2	5,67
1035,569	5,79
1035,938	6,13
1036,307	6,74
1036,675	6,06
1037,044	6,08
1037,413	5,9
1037,781	6,03
1038,15	6,14
1038,518	6,07
1038,887	5,97
1039,255	5,89
1039,623	6,02
1039,991	5,92
1040,359	6,18
1040,727	6,25
1041,095	6,1
1041,463	6,17
1041,831	6,27
1042,198	6,14
1042,566	6,04
1042,933	6,28
1043,301	6,35
1043,668	6,36
1044,035	6,3
1044,402	6,06
1044,77	6,31
1045,137	6,41
1045,503	5,52
1045,87	6,47
1046,237	6,22
1046,604	6,41
1046,97	5,6
1047,337	6,5
1047,703	6,32
1048,07	6,76
1048,436	6
1048,802	6,31
1049,168	6,37
1049,534	6,56
1049,9	6,16
1050,266	6,49
1050,632	6,81
1050,998	6,31
1051,364	6,13
1051,729	6,78
1052,095	6,67
1052,46	6,47
1052,825	6,67
1053,191	6,14
1053,556	6,8
1053,921	6,89
1054,286	6,36
1054,651	6,95
1055,016	6,75
1055,381	6,86
1055,745	6,48
1056,11	6,92
1056,475	7,5
1056,839	7,03
1057,203	6,98
1057,568	6,09
1057,932	7,26
1058,296	7,5
1058,66	6,53
1059,024	7,41
1059,388	6,34
1059,752	7,2
1060,116	7,23
1060,48	7,41
1060,843	7,22
1061,207	7,24
1061,57	7,26
1061,934	7,42
1062,297	7,86
1062,66	7,2
1063,023	7,68
1063,386	8,25
1063,749	7,28
1064,112	7,86
1064,475	7,56
1064,838	6,89
1065,201	8,2
1065,563	8,3
1065,926	7,97
1066,288	7,26
1066,651	7,29
1067,013	7,5
1067,375	7,72
1067,737	7,78
1068,099	7,84
1068,461	7,68
1068,823	8,21
1069,185	7,49
1069,547	7,88
1069,909	7,96
1070,27	7,84
1070,632	7,69
1070,993	7,47
1071,355	8,84
1071,716	8,58
1072,077	9,05
1072,438	7,57
1072,799	7,42
1073,16	8,34
1073,521	8,08
1073,882	7,92
1074,243	7,58
1074,603	8,84
1074,964	8,72
1075,325	8,62
1075,685	9,63
1076,045	8,18
1076,406	8,19
1076,766	9,98
1077,126	8,59
1077,486	7,78
1077,846	9,32
1078,206	8,84
1078,566	8,49
1078,925	8,86
1079,285	9,38
1079,645	8,79
1080,004	9,09
1080,364	8,95
1080,723	9,48
1081,082	9,65
1081,442	9,33
1081,801	9,86
1082,16	10,71
1082,519	8,23
1082,878	8,96
1083,237	9,44
1083,595	9,46
1083,954	10,11
1084,313	11,08
1084,671	10,2
1085,03	10,35
1085,388	10,82
1085,746	9,58
1086,104	10,08
1086,463	10,17
1086,821	11,39
1087,179	10,05
1087,537	10,9
1087,894	10,44
1088,252	9,26
1088,61	11,2
1088,967	9,64
1089,325	10,95
1089,682	10,33
1090,04	11,37
1090,397	10,49
1090,754	11,34
1091,111	10,29
1091,469	9,76
1091,826	10,8
1092,182	10,88
1092,539	11,18
1092,896	13,26
1093,253	9,92
1093,609	10,63
1093,966	10,86
1094,322	10,48
1094,679	11,35
1095,035	11,24
1095,391	11,46
1095,748	12
1096,104	11,66
1096,46	11,74
1096,816	11,36
1097,171	12,39
1097,527	10,81
1097,883	12,21
1098,239	13,81
1098,594	13,08
1098,95	10,49
1099,305	12,88
1099,66	10,9
1100,016	10,7
1100,371	13,19
1100,726	13,3
1101,081	11,32
1101,436	12,15
1101,791	12,02
1102,146	14,06
1102,5	13,67
1102,855	13,51
1103,21	12,05
1103,564	11,31
1103,918	14,86
1104,273	12,21
1104,627	13,25
1104,981	14,36
1105,335	12,68
1105,69	13,52
1106,043	14,42
1106,397	13,45
1106,751	14,81
1107,105	13,89
1107,459	14,38
1107,812	15,45
1108,166	15,3
1108,519	15,63
1108,873	14,42
1109,226	15,36
1109,579	15,03
1109,932	14,36
1110,285	16,14
1110,638	16,45
1110,991	12,91
1111,344	18,18
1111,697	13,2
1112,05	15,78
1112,402	18,81
1112,755	17,18
1113,107	19,33
1113,46	17,91
1113,812	19,57
1114,164	20,35
1114,517	19,71
1114,869	69,54
1115,221	61,11
1115,573	65,69
1115,924	67,53
