Data from G_4_Relative__6__00152.txt Node

Date: Tue Jan 30 10:10:55 CET 2024
User: diatiterra
Spectrometer: HDX00911
Trigger mode: 0
Integration Time (sec): 6,000000E-3
Scans to average: 2
Nonlinearity correction enabled: false
Boxcar width: 0
Storing dark spectrum: false
XAxis mode: Wavelengths
Number of Pixels in Spectrum: 2068
>>>>>Begin Spectral Data<<<<<
194,468	88,4
195,025	102,42
195,581	88,64
196,138	91,08
196,694	86,07
197,251	81,06
197,807	72,08
198,363	69,26
198,919	71,06
199,474	77,54
200,03	67,32
200,586	71,81
201,141	79,41
201,696	66,39
202,251	84,08
202,806	71,91
203,361	71,95
203,916	79,25
204,471	73,76
205,025	74,48
205,58	78,8
206,134	69,32
206,688	69,53
207,242	74,77
207,796	70,34
208,35	86,3
208,904	74,6
209,457	72,87
210,011	79,91
210,564	75,23
211,117	82,55
211,67	78,54
212,223	70,12
212,776	80,93
213,329	77,22
213,881	78,35
214,434	70,49
214,986	79,46
215,538	81,1
216,09	79,12
216,642	77,27
217,194	87,56
217,746	76,89
218,297	74,79
218,849	79,09
219,4	75,76
219,951	79,65
220,502	78,99
221,053	79,24
221,604	80,31
222,155	72,88
222,705	68,94
223,256	76,78
223,806	72,5
224,356	82,35
224,906	80,62
225,456	63,87
226,006	83,93
226,556	83,19
227,106	76,76
227,655	79,53
228,204	81,45
228,754	76,79
229,303	84,23
229,852	81,66
230,401	79,82
230,949	71,63
231,498	83,48
232,047	71,31
232,595	79,52
233,143	86,84
233,691	77,03
234,239	72,9
234,787	80,72
235,335	79,65
235,883	81,08
236,43	84,32
236,978	73,91
237,525	78,72
238,072	75,77
238,619	67,71
239,166	78,88
239,713	79,32
240,26	76,61
240,806	77,59
241,353	94,02
241,899	80,66
242,445	70,29
242,991	76,64
243,537	76,62
244,083	83,71
244,629	81,5
245,174	77,87
245,72	76,45
246,265	83,71
246,81	82,22
247,355	81,02
247,9	81,25
248,445	75,79
248,99	67,66
249,534	75,09
250,079	84,72
250,623	86,73
251,168	82,04
251,712	62,88
252,256	73,14
252,8	86,28
253,343	78,95
253,887	82,25
254,43	81,48
254,974	72,4
255,517	77,88
256,06	75,53
256,603	77,78
257,146	70,77
257,689	81,78
258,232	76,02
258,774	79,74
259,317	84,05
259,859	80,95
260,401	83,64
260,943	75,93
261,485	75,45
262,027	76,17
262,569	82,87
263,11	72,12
263,652	73,45
264,193	80
264,734	88,43
265,275	76,39
265,816	74,79
266,357	62,24
266,898	74,79
267,438	82,13
267,979	67,67
268,519	77,88
269,059	66,01
269,6	70,8
270,14	73,71
270,68	71,31
271,219	78,26
271,759	72,49
272,298	64,8
272,838	69,32
273,377	79,73
273,916	63,42
274,455	60,38
274,994	74,19
275,533	69,2
276,072	77,87
276,61	71,05
277,149	74,17
277,687	85,59
278,225	69,55
278,763	64,89
279,301	71,02
279,839	77,46
280,377	66,12
280,914	70,37
281,452	70,33
281,989	79,34
282,526	67,08
283,064	73,56
283,601	71,67
284,137	70,67
284,674	71,55
285,211	70,74
285,747	66,14
286,284	77,16
286,82	71,37
287,356	63,11
287,892	67,49
288,428	70,82
288,964	70,95
289,5	79,07
290,035	75,93
290,571	71,98
291,106	71,49
291,641	66,81
292,176	71,6
292,711	71,55
293,246	67,05
293,781	68,26
294,315	65,12
294,85	69,32
295,384	75,47
295,918	68,8
296,453	72,87
296,987	78,39
297,52	66,52
298,054	69,68
298,588	66
299,121	77,03
299,655	78,3
300,188	70,76
300,721	78,57
301,254	78,03
301,787	71,49
302,32	80,34
302,853	80
303,385	73,73
303,918	68,44
304,45	73,8
304,982	67,6
305,514	72,76
306,046	89,38
306,578	69,29
307,11	73,48
307,641	65,97
308,173	73,48
308,704	70,73
309,236	77,83
309,767	66,67
310,298	71,2
310,829	65,89
311,359	77,43
311,89	69,23
312,421	66,94
312,951	77,82
313,481	76,78
314,012	65,89
314,542	71,62
315,072	71,24
315,601	72,18
316,131	71,67
316,661	72,2
317,19	63,27
317,72	77,12
318,249	77,06
318,778	73,25
319,307	66,94
319,836	74,8
320,365	74,89
320,893	74,41
321,422	60,99
321,95	72,61
322,479	65,46
323,007	63,35
323,535	70,94
324,063	70,04
324,591	68,2
325,118	63,64
325,646	77,16
326,173	72,77
326,701	66,53
327,228	75,92
327,755	67,62
328,282	84,55
328,809	65,79
329,336	74,04
329,862	73,36
330,389	74,01
330,915	67,05
331,441	81,01
331,968	58,57
332,494	73,78
333,02	67,36
333,545	72,47
334,071	69,33
334,597	79,34
335,122	69,37
335,648	72,4
336,173	73,73
336,698	68,24
337,223	73,71
337,748	72,16
338,272	69,1
338,797	75,3
339,322	75,21
339,846	65,46
340,37	78,17
340,894	73,84
341,419	74,6
341,942	73,26
342,466	59,73
342,99	65,78
343,514	74,49
344,037	67,29
344,56	66,93
345,084	73,73
345,607	64,91
346,13	66,53
346,653	69,74
347,175	70,76
347,698	72,53
348,221	76,92
348,743	77,74
349,265	62,45
349,787	67,6
350,309	67,15
350,831	71,48
351,353	71,43
351,875	67,77
352,397	66,1
352,918	70,92
353,439	64,54
353,961	60,84
354,482	67,11
355,003	62,78
355,524	69,59
356,044	62,18
356,565	66,67
357,086	63,64
357,606	59,67
358,126	59,2
358,646	58,62
359,167	65,12
359,687	62,71
360,206	64,86
360,726	62,46
361,246	63,78
361,765	62,46
362,285	58,05
362,804	51,83
363,323	57,96
363,842	62,38
364,361	56,97
364,88	62,46
365,398	52,27
365,917	57,1
366,435	59,78
366,954	54,1
367,472	57,06
367,99	49,86
368,508	57,27
369,026	58,92
369,544	55,07
370,061	53,89
370,579	61,6
371,096	51,05
371,613	50,4
372,131	52,22
372,648	56,6
373,165	54,88
373,681	54,19
374,198	55,95
374,715	47,16
375,231	51,11
375,747	50,12
376,264	46,36
376,78	55,21
377,296	49,52
377,812	50,37
378,327	50,47
378,843	48,92
379,359	48,02
379,874	45,53
380,389	46,8
380,905	49,68
381,42	45,31
381,935	52,59
382,449	47,46
382,964	41,4
383,479	48,64
383,993	48
384,508	42,12
385,022	46,14
385,536	42,38
386,05	42,67
386,564	38,95
387,078	46,42
387,592	38,85
388,105	42,22
388,619	40,23
389,132	38,6
389,645	39,17
390,158	38,11
390,671	39,65
391,184	39,61
391,697	35,85
392,21	35,05
392,722	36,61
393,235	36,26
393,747	36,38
394,259	37,19
394,771	34,24
395,283	36,32
395,795	34,53
396,307	34,7
396,818	33,51
397,33	33,51
397,841	31,85
398,353	30,84
398,864	32,96
399,375	28,14
399,886	30,54
400,397	28,59
400,907	29,91
401,418	27,82
401,928	28,06
402,439	27,03
402,949	26,36
403,459	26,24
403,969	25,87
404,479	26,92
404,989	25,74
405,498	23,48
406,008	25,65
406,517	22,37
407,027	22,08
407,536	22,52
408,045	21,36
408,554	19,88
409,063	18,02
409,572	19,73
410,08	17,68
410,589	18,8
411,097	16,44
411,606	16,67
412,114	14,72
412,622	15,18
413,13	14,7
413,638	15,16
414,145	14,76
414,653	12,79
415,16	13,18
415,668	13,33
416,175	13,11
416,682	12,05
417,189	12,11
417,696	12,17
418,203	12,16
418,71	11,33
419,216	11,05
419,723	11,25
420,229	11,04
420,735	10,55
421,242	10,86
421,748	10,45
422,254	11,92
422,759	10,1
423,265	9,36
423,771	9,82
424,276	9,33
424,781	10,6
425,287	9,95
425,792	8,99
426,297	9,79
426,802	10,02
427,306	8,7
427,811	8,85
428,316	10,23
428,82	9,15
429,324	9,08
429,829	9,23
430,333	9,27
430,837	8,22
431,34	8,07
431,844	8,41
432,348	8,87
432,851	9,07
433,355	8,3
433,858	8,75
434,361	8,21
434,864	8,56
435,367	8,83
435,87	8,11
436,373	8,05
436,876	8,11
437,378	7,92
437,88	7,47
438,383	8,38
438,885	7,85
439,387	7,53
439,889	7,45
440,391	8,16
440,892	8,11
441,394	8,13
441,896	8,29
442,397	8,47
442,898	7,85
443,399	7,43
443,9	7,85
444,401	7,75
444,902	7,38
445,403	7,54
445,903	7,91
446,404	8,29
446,904	8,3
447,405	7,88
447,905	7,81
448,405	7,71
448,905	8,3
449,404	7,67
449,904	7,73
450,404	7,89
450,903	7,7
451,403	7,3
451,902	7,63
452,401	7,96
452,9	7,94
453,399	8,14
453,898	7,97
454,396	8,51
454,895	7,93
455,393	7,77
455,892	8,26
456,39	7,66
456,888	8,43
457,386	8
457,884	7,77
458,382	8,24
458,879	8,28
459,377	8,46
459,874	7,34
460,372	8,07
460,869	8,11
461,366	8,07
461,863	8,04
462,36	7,92
462,857	7,5
463,353	7,76
463,85	7,77
464,346	7,66
464,843	7,89
465,339	8,23
465,835	7,92
466,331	7,44
466,827	7,94
467,323	7,44
467,818	7,41
468,314	8,11
468,809	7,71
469,305	7,63
469,8	8,15
470,295	7,53
470,79	7,63
471,285	7,76
471,78	7,38
472,274	7,34
472,769	7,47
473,263	7,52
473,758	7,68
474,252	7,64
474,746	7,82
475,24	8,1
475,734	7,84
476,228	7,4
476,721	7,46
477,215	7,83
477,708	7,51
478,202	7,82
478,695	7,62
479,188	8,1
479,681	7,32
480,174	7,62
480,667	7,71
481,159	7,98
481,652	8,03
482,144	7,56
482,637	7,64
483,129	7,56
483,621	7,78
484,113	7,55
484,605	7,6
485,097	7,71
485,588	7,8
486,08	7,65
486,571	7,57
487,063	8,33
487,554	7,37
488,045	7,57
488,536	7,65
489,027	7,83
489,518	8,08
490,008	7,98
490,499	8,31
490,989	7,79
491,48	7,84
491,97	8,1
492,46	8,38
492,95	7,7
493,44	8,23
493,93	8,11
494,419	8,57
494,909	8,43
495,398	8,7
495,888	8,56
496,377	8,86
496,866	8,52
497,355	8,57
497,844	8,37
498,333	8,79
498,821	9,14
499,31	9,12
499,798	9,07
500,287	9,65
500,775	9,34
501,263	9,61
501,751	9,59
502,239	10,01
502,727	10,41
503,215	10,45
503,702	10,18
504,19	10,51
504,677	10,94
505,164	10,83
505,651	10,95
506,139	11,19
506,625	11,14
507,112	11,9
507,599	11,63
508,086	12,31
508,572	12,32
509,058	12,26
509,545	12,36
510,031	12,75
510,517	13,54
511,003	13,53
511,489	14,03
511,974	14,09
512,46	14,06
512,946	14,64
513,431	14,84
513,916	15,33
514,401	15,36
514,887	15,83
515,371	16,47
515,856	16,73
516,341	16,97
516,826	17,01
517,31	17,28
517,795	17,73
518,279	17,93
518,763	18,53
519,247	18,41
519,731	19,29
520,215	19,58
520,699	19,38
521,182	20,19
521,666	20,13
522,149	20,67
522,633	21,01
523,116	21,22
523,599	22,36
524,082	22,37
524,565	22,84
525,048	22,8
525,53	22,74
526,013	23,55
526,495	23,61
526,978	24,35
527,46	23,94
527,942	24,98
528,424	24,79
528,906	24,99
529,388	24,91
529,87	25,76
530,351	25,49
530,833	26,23
531,314	26,2
531,795	26,33
532,277	26,76
532,758	26,23
533,238	27,05
533,719	26,89
534,2	26,92
534,681	27,22
535,161	27,47
535,642	27,31
536,122	27,21
536,602	26,81
537,082	27,46
537,562	27,53
538,042	28,03
538,522	27,67
539,001	27,94
539,481	28,03
539,96	27,96
540,44	28,22
540,919	28,13
541,398	28
541,877	28,15
542,356	28,84
542,835	28,4
543,313	28,36
543,792	28,61
544,27	28,8
544,749	28,65
545,227	28,71
545,705	28,14
546,183	29,11
546,661	29,73
547,139	28,96
547,616	28,85
548,094	29,21
548,571	29,03
549,049	29,16
549,526	28,92
550,003	29,15
550,48	28,96
550,957	29,74
551,434	28,95
551,911	29,21
552,387	29,29
552,864	29,27
553,34	28,99
553,817	28,98
554,293	29,46
554,769	29,01
555,245	29,48
555,721	29,26
556,197	29,1
556,672	29,57
557,148	29,08
557,623	29,46
558,099	29,09
558,574	29,09
559,049	29,06
559,524	29,16
559,999	28,86
560,474	28,82
560,948	28,41
561,423	28,34
561,897	28,64
562,372	28,55
562,846	27,79
563,32	28,15
563,794	27,52
564,268	27,83
564,742	28,15
565,216	27,36
565,69	27,53
566,163	26,77
566,636	27,01
567,11	27,5
567,583	27,29
568,056	26,42
568,529	26,13
569,002	26,16
569,475	26,41
569,947	25,96
570,42	25,78
570,892	25,79
571,365	25,75
571,837	25,02
572,309	25,21
572,781	24,97
573,253	24,48
573,725	24,05
574,197	24,24
574,668	24,09
575,14	23,73
575,611	23,84
576,082	23,33
576,554	23,74
577,025	23,1
577,496	23,3
577,967	22,62
578,437	22,93
578,908	22,5
579,379	22,43
579,849	22,17
580,319	22,01
580,79	22,32
581,26	21,73
581,73	21,69
582,2	21,73
582,669	21,56
583,139	21,45
583,609	21
584,078	21,26
584,548	20,71
585,017	21,57
585,486	20,66
585,955	20,65
586,424	20,66
586,893	20,69
587,362	20,18
587,83	20,25
588,299	20,37
588,767	19,98
589,236	20,2
589,704	19,95
590,172	19,92
590,64	19,63
591,108	19,53
591,576	19,73
592,043	19,39
592,511	19,56
592,978	19,62
593,446	19,2
593,913	19,48
594,38	19,49
594,847	19,33
595,314	19,2
595,781	19,28
596,248	19,09
596,715	19,05
597,181	18,9
597,647	18,87
598,114	18,96
598,58	19
599,046	18,88
599,512	18,61
599,978	18,85
600,444	19,12
600,91	18,87
601,375	18,99
601,841	18,48
602,306	18,73
602,771	18,39
603,236	18,11
603,702	18,3
604,167	18,18
604,631	18,14
605,096	18,32
605,561	17,88
606,025	17,96
606,49	17,82
606,954	17,85
607,418	17,59
607,882	17,62
608,347	17,86
608,81	17,47
609,274	17,37
609,738	17,28
610,202	17,22
610,665	17,23
611,128	16,79
611,592	16,89
612,055	16,56
612,518	16,73
612,981	16,5
613,444	16,37
613,907	16,24
614,369	16,14
614,832	16,18
615,294	15,99
615,757	15,88
616,219	15,89
616,681	15,62
617,143	15,61
617,605	15,32
618,067	15,43
618,529	15,33
618,99	15,23
619,452	15,19
619,913	15,01
620,375	15,02
620,836	15,06
621,297	14,73
621,758	14,69
622,219	14,67
622,68	14,67
623,14	14,46
623,601	14,82
624,061	14,55
624,522	14,54
624,982	14,64
625,442	14,54
625,902	14,49
626,362	14,45
626,822	14,46
627,282	14,44
627,742	14,43
628,201	14,35
628,661	14,29
629,12	14,31
629,579	14,35
630,038	14,32
630,497	14,04
630,956	14,32
631,415	14,14
631,874	14,08
632,332	13,93
632,791	14,37
633,249	13,97
633,708	14,04
634,166	13,67
634,624	13,74
635,082	13,66
635,54	13,54
635,998	13,59
636,455	13,67
636,913	13,5
637,37	13,34
637,828	13,27
638,285	13
638,742	13,02
639,199	12,77
639,656	12,7
640,113	12,55
640,57	12,31
641,027	12,09
641,483	12,19
641,94	12,09
642,396	11,76
642,852	11,68
643,309	11,7
643,765	11,45
644,221	11,41
644,676	10,94
645,132	10,89
645,588	10,74
646,043	10,66
646,499	10,74
646,954	10,33
647,409	10,35
647,864	10,02
648,319	10
648,774	9,83
649,229	9,87
649,684	9,76
650,139	9,67
650,593	9,47
651,047	9,54
651,502	9,54
651,956	9,4
652,41	9,28
652,864	9,35
653,318	9,15
653,772	9,51
654,225	9,15
654,679	9,03
655,133	8,99
655,586	9,08
656,039	8,93
656,492	8,94
656,946	8,96
657,399	8,66
657,851	8,59
658,304	8,62
658,757	8,57
659,209	8,56
659,662	8,48
660,114	8,33
660,567	8,04
661,019	8,08
661,471	7,93
661,923	7,86
662,375	7,66
662,826	7,71
663,278	7,58
663,73	7,68
664,181	7,47
664,632	7,46
665,084	7,27
665,535	7,24
665,986	7,26
666,437	7,04
666,888	7,31
667,338	7,27
667,789	7,02
668,24	7,13
668,69	7,04
669,14	7,01
669,591	7,21
670,041	7,1
670,491	7,2
670,941	7,19
671,391	7,06
671,84	7,36
672,29	7,23
672,74	7,28
673,189	7,39
673,638	7,42
674,088	7,62
674,537	7,5
674,986	7,57
675,435	7,68
675,883	7,69
676,332	7,76
676,781	7,96
677,229	8,11
677,678	8,08
678,126	8,21
678,574	8,3
679,022	8,43
679,47	8,51
679,918	8,72
680,366	8,68
680,814	8,88
681,261	8,99
681,709	9,16
682,156	9,32
682,604	9,4
683,051	9,59
683,498	9,64
683,945	10
684,392	10,04
684,839	10,3
685,286	10,38
685,732	10,69
686,179	10,74
686,625	10,97
687,071	11,13
687,518	11,58
687,964	11,75
688,41	11,86
688,856	12,33
689,301	12,5
689,747	13,09
690,193	13,41
690,638	13,96
691,084	14,12
691,529	14,66
691,974	15,26
692,419	15,86
692,864	16,38
693,309	16,96
693,754	17,39
694,199	17,98
694,643	18,53
695,088	18,8
695,532	19,82
695,977	20,08
696,421	20,93
696,865	21,45
697,309	22,18
697,753	22,65
698,197	23,35
698,64	24,07
699,084	24,6
699,527	25,49
699,971	26,08
700,414	26,64
700,857	26,66
701,3	27,47
701,743	28,05
702,186	28,87
702,629	29,2
703,072	29,98
703,515	30,25
703,957	30,82
704,399	31,33
704,842	31,94
705,284	32,27
705,726	32,94
706,168	33,27
706,61	33,76
707,052	34,23
707,494	34,59
707,935	34,93
708,377	35,47
708,818	35,99
709,26	36,7
709,701	36,9
710,142	37,28
710,583	37,66
711,024	38,44
711,465	38,68
711,905	39,19
712,346	38,8
712,787	39,48
713,227	40,34
713,667	40,54
714,108	40,69
714,548	41,14
714,988	41,82
715,428	41,6
715,868	42,13
716,307	42,36
716,747	43
717,186	43,37
717,626	43,3
718,065	43,95
718,504	43,75
718,944	44,28
719,383	44,7
719,822	44,88
720,261	45,24
720,699	45,26
721,138	45,54
721,576	45,95
722,015	46,44
722,453	46,04
722,892	46,94
723,33	46,58
723,768	46,89
724,206	47,36
724,644	47,5
725,081	47,4
725,519	47,87
725,957	47,49
726,394	48,51
726,832	48,5
727,269	48,92
727,706	49,07
728,143	49,2
728,58	48,87
729,017	49,25
729,454	49,14
729,89	49,2
730,327	49,65
730,764	49,67
731,2	50,44
731,636	50,04
732,072	50,14
732,509	50,08
732,945	50,28
733,38	50,31
733,816	50,85
734,252	50,7
734,688	50,64
735,123	50,97
735,559	50,8
735,994	50,73
736,429	51,41
736,864	51,25
737,299	51,11
737,734	50,91
738,169	51,16
738,604	51,14
739,038	51,39
739,473	51,62
739,907	51,33
740,342	51,76
740,776	51,87
741,21	51,25
741,644	51,77
742,078	51,63
742,512	51,89
742,946	51,81
743,379	51,81
743,813	51,67
744,246	51,84
744,68	51,75
745,113	51,87
745,546	51,24
745,979	51,74
746,412	51,43
746,845	51,37
747,278	51,54
747,711	51,4
748,143	51,72
748,576	51,96
749,008	50,86
749,441	51,42
749,873	51,58
750,305	51,38
750,737	51,41
751,169	51,27
751,601	51,22
752,032	51,29
752,464	51,12
752,896	51,12
753,327	51,25
753,758	51
754,19	51,41
754,621	51,24
755,052	50,97
755,483	51,1
755,914	50,79
756,344	51,29
756,775	51,22
757,206	50,87
757,636	50,67
758,066	50,84
758,497	50,68
758,927	51,04
759,357	51,03
759,787	50,73
760,217	50,71
760,647	50,25
761,076	50,67
761,506	50,57
761,935	51
762,365	50,24
762,794	50,11
763,223	49,99
763,653	50,7
764,082	50,4
764,51	50,24
764,939	50,72
765,368	50,32
765,797	50,42
766,225	50,34
766,654	50,14
767,082	49,91
767,51	50,32
767,938	50,17
768,367	50,46
768,795	50,44
769,222	49,64
769,65	49,68
770,078	50,14
770,505	49,58
770,933	50,18
771,36	49,9
771,788	49,62
772,215	50,04
772,642	49,64
773,069	49,58
773,496	50,08
773,923	49,88
774,349	49,77
774,776	49,97
775,203	49,53
775,629	49,67
776,055	50,24
776,482	50,07
776,908	49,77
777,334	49,17
777,76	49,54
778,186	49,52
778,611	49,73
779,037	49,5
779,463	49,82
779,888	48,99
780,314	49,48
780,739	49,24
781,164	49,4
781,589	49,32
782,014	49,19
782,439	49,09
782,864	49,17
783,289	49,67
783,713	49,15
784,138	49,49
784,562	49,52
784,987	49,35
785,411	49,1
785,835	49,52
786,259	49,61
786,683	49,46
787,107	49,14
787,531	49,23
787,954	49,55
788,378	49,11
788,802	49,28
789,225	49,18
789,648	49,29
790,071	49,37
790,495	49,27
790,918	49,54
791,34	49,3
791,763	49,1
792,186	49,33
792,609	49,25
793,031	48,99
793,454	49,06
793,876	48,92
794,298	49,28
794,721	49,48
795,143	49,1
795,565	49,27
795,986	48,98
796,408	48,84
796,83	48,78
797,252	49,11
797,673	48,58
798,094	49,36
798,516	48,98
798,937	49,22
799,358	49,13
799,779	49,48
800,2	48,98
800,621	48,38
801,042	49,32
801,462	49,2
801,883	48,39
802,303	48,72
802,724	48,9
803,144	49,05
803,564	49,21
803,984	49,03
804,404	49,07
804,824	48,96
805,244	49,43
805,664	48,98
806,084	48,61
806,503	49,06
806,923	49,11
807,342	48,97
807,761	48,66
808,18	49,4
808,599	49,47
809,018	48,83
809,437	49,04
809,856	48,76
810,275	49,23
810,693	48,68
811,112	49,04
811,53	48,81
811,949	48,91
812,367	49,35
812,785	48,95
813,203	48,82
813,621	48,84
814,039	49,25
814,457	48,68
814,874	48,83
815,292	48,64
815,709	48,63
816,127	48,83
816,544	48,53
816,961	48,8
817,378	48,86
817,795	48,4
818,212	49
818,629	48,95
819,046	49,03
819,462	48,69
819,879	49,03
820,295	48,73
820,712	48,99
821,128	49
821,544	48,76
821,96	48,81
822,376	49,14
822,792	48,95
823,208	48,71
823,624	48,52
824,039	48,86
824,455	48,97
824,87	48,83
825,286	48,98
825,701	48,8
826,116	48,82
826,531	49,08
826,946	48,4
827,361	48,69
827,776	48,78
828,19	48,84
828,605	48,05
829,02	48,43
829,434	48,5
829,848	48,59
830,263	48,74
830,677	48,8
831,091	49,09
831,505	48,46
831,919	48,51
832,332	48,57
832,746	48,49
833,16	48,2
833,573	48,56
833,987	48,42
834,4	48,46
834,813	48,47
835,226	48,33
835,639	48,88
836,052	48,97
836,465	48,66
836,878	48,82
837,29	48,32
837,703	49,35
838,116	48,69
838,528	48,85
838,94	48,41
839,352	49,21
839,765	48,65
840,177	48,77
840,589	48,41
841	48,71
841,412	48,77
841,824	48,49
842,235	48,62
842,647	48,13
843,058	48,49
843,47	48,94
843,881	48,79
844,292	48,33
844,703	48,61
845,114	48,6
845,525	48,57
845,935	48,41
846,346	48,62
846,757	48,18
847,167	48,21
847,577	48,12
847,988	48,88
848,398	48,29
848,808	48,53
849,218	48,14
849,628	48,59
850,038	48,54
850,448	48,67
850,857	48,43
851,267	49,28
851,676	48,48
852,086	49,21
852,495	48,59
852,904	48,73
853,313	48,37
853,722	48,36
854,131	48,25
854,54	48,99
854,949	48,56
855,357	48,51
855,766	48,51
856,174	48,38
856,583	48,66
856,991	48,44
857,399	48,04
857,807	48,87
858,215	48,35
858,623	48,58
859,031	48,42
859,439	48,36
859,846	48,81
860,254	48,56
860,661	48,13
861,069	48,66
861,476	48,37
861,883	48,25
862,29	48,34
862,697	48,91
863,104	48,42
863,511	48,92
863,918	48,21
864,325	48,41
864,731	48,48
865,138	48,76
865,544	48,32
865,95	48,43
866,357	48,54
866,763	47,98
867,169	48,49
867,575	48,51
867,98	48,28
868,386	48,88
868,792	48,67
869,197	48,55
869,603	48,18
870,008	48,14
870,414	48,84
870,819	48,91
871,224	48,29
871,629	48,49
872,034	48,22
872,439	48,49
872,844	48,11
873,248	48,27
873,653	48,46
874,057	48,27
874,462	48,54
874,866	48,35
875,27	48,5
875,674	48,39
876,078	48,45
876,482	48,4
876,886	48,38
877,29	47,96
877,694	48,37
878,097	48,33
878,501	48,47
878,904	48,2
879,308	48,16
879,711	48,25
880,114	48,76
880,517	48,21
880,92	47,98
881,323	48,86
881,726	48,8
882,128	48,38
882,531	48,53
882,934	48,65
883,336	48,22
883,738	48,36
884,141	48,57
884,543	48,5
884,945	48,37
885,347	48,48
885,749	48,42
886,151	48,56
886,552	48,14
886,954	48,04
887,355	48,44
887,757	48,46
888,158	48,96
888,56	48,56
888,961	48,61
889,362	47,95
889,763	48,32
890,164	47,86
890,565	48,12
890,965	48,28
891,366	48,33
891,767	48,3
892,167	48,15
892,567	48,7
892,968	48,4
893,368	48,33
893,768	48,07
894,168	48,36
894,568	48,12
894,968	48,9
895,368	47,99
895,767	48,16
896,167	48,5
896,566	48,22
896,966	48,1
897,365	48,11
897,764	48,13
898,164	48,23
898,563	49,09
898,962	48,34
899,361	48,26
899,759	48,47
900,158	48,2
900,557	48,24
900,955	48,51
901,354	48,33
901,752	48,3
902,15	48,24
902,548	48,18
902,947	48,19
903,345	48,26
903,742	48,44
904,14	47,98
904,538	48,23
904,936	48,53
905,333	48,47
905,731	48,67
906,128	48,54
906,525	48,37
906,923	48,25
907,32	48,09
907,717	48,19
908,114	48,34
908,511	48,32
908,907	48,29
909,304	48,57
909,701	48,3
910,097	48,17
910,494	48,14
910,89	48,71
911,286	48,36
911,682	48,05
912,078	48,48
912,474	48,82
912,87	48,36
913,266	48,6
913,662	48,43
914,058	48,19
914,453	48,51
914,849	48,45
915,244	49,33
915,639	48,37
916,034	48,77
916,43	48,24
916,825	48,64
917,22	48,37
917,614	48,33
918,009	48,58
918,404	48,25
918,798	48,37
919,193	48,68
919,587	48,06
919,982	47,97
920,376	48,58
920,77	48,7
921,164	48,57
921,558	48,68
921,952	48,65
922,346	48,32
922,74	48,7
923,133	48,22
923,527	47,6
923,92	48,46
924,314	47,92
924,707	48,63
925,1	47,92
925,493	47,89
925,886	48,18
926,279	47,88
926,672	48,09
927,065	48,48
927,457	48,31
927,85	47,99
928,243	47,91
928,635	47,49
929,027	47,6
929,42	48,7
929,812	47,83
930,204	48,74
930,596	48,61
930,988	47,9
931,379	48,53
931,771	47,87
932,163	48,15
932,554	48,38
932,946	48,35
933,337	48,44
933,729	47,58
934,12	48,12
934,511	48,04
934,902	48,07
935,293	47,51
935,684	48,29
936,075	48,24
936,465	48,57
936,856	47,84
937,246	48,68
937,637	48,86
938,027	48,61
938,417	47,62
938,808	48,44
939,198	48,07
939,588	48,8
939,978	48,85
940,368	48,38
940,757	48,46
941,147	48,56
941,537	48,35
941,926	48,64
942,315	48,39
942,705	48,15
943,094	48,78
943,483	49,57
943,872	48,01
944,261	48,37
944,65	47,7
945,039	48,43
945,428	48,08
945,816	48,81
946,205	47,38
946,593	48,82
946,982	48
947,37	48,24
947,758	48,4
948,146	48,53
948,534	47,62
948,922	49,14
949,31	48,47
949,698	47,85
950,086	48,09
950,473	48,14
950,861	47,43
951,248	46,74
951,636	47,34
952,023	46,77
952,41	46,64
952,797	47,97
953,184	47,44
953,571	48,21
953,958	47,4
954,345	47,55
954,731	47,42
955,118	47,57
955,505	47,06
955,891	47,32
956,277	47,31
956,664	46,92
957,05	47,13
957,436	47,02
957,822	47,14
958,208	47,23
958,594	47,52
958,979	47,13
959,365	47,78
959,751	47
960,136	47,43
960,522	46,97
960,907	47,29
961,292	47,29
961,677	46,67
962,062	46,82
962,447	46,67
962,832	46,99
963,217	47,2
963,602	46,9
963,986	46,87
964,371	46,64
964,756	46,45
965,14	46,77
965,524	47,49
965,908	46,39
966,293	46,54
966,677	46,69
967,061	46,74
967,445	46,97
967,828	46,9
968,212	47,29
968,596	47,25
968,979	47,19
969,363	46,99
969,746	47,23
970,129	47,05
970,513	47,1
970,896	47,07
971,279	46,61
971,662	47,04
972,045	46,9
972,428	47,22
972,81	47,21
973,193	47,36
973,575	46,77
973,958	46,97
974,34	46,83
974,723	46,45
975,105	46,18
975,487	46,75
975,869	47,52
976,251	45,64
976,633	47,3
977,015	47,03
977,396	47,32
977,778	46,62
978,16	47,09
978,541	47,22
978,922	46,71
979,304	46,95
979,685	46,71
980,066	47,1
980,447	46,76
980,828	47,8
981,209	46,94
981,59	46,81
981,97	46,59
982,351	46,87
982,732	46,92
983,112	47,1
983,493	46,47
983,873	46,46
984,253	47,35
984,633	47,29
985,013	46,94
985,393	47,49
985,773	46,76
986,153	47,38
986,533	47,33
986,912	46,66
987,292	47,24
987,671	46,9
988,051	47,01
988,43	47,19
988,809	47,52
989,188	47,4
989,567	46,76
989,946	47,41
990,325	47,9
990,704	47,25
991,083	47,68
991,461	46,75
991,84	47,25
992,218	47,06
992,597	47,37
992,975	46,74
993,353	47,23
993,732	47,53
994,11	46,63
994,488	47,49
994,866	47,98
995,243	46,62
995,621	47,49
995,999	46,68
996,376	47,56
996,754	47,04
997,131	47,12
997,509	47,99
997,886	47,01
998,263	47,37
998,64	47,47
999,017	47,47
999,394	47,61
999,771	47,08
1000,148	47,64
1000,524	47,32
1000,901	48,02
1001,277	47,9
1001,654	48,01
1002,03	47,64
1002,406	48,18
1002,783	47,23
1003,159	47,44
1003,535	47,29
1003,911	47,28
1004,286	46,83
1004,662	47,82
1005,038	48,59
1005,414	47,65
1005,789	47,52
1006,164	48,08
1006,54	48,4
1006,915	48,5
1007,29	48,15
1007,665	47,39
1008,04	47,27
1008,415	47,75
1008,79	47,14
1009,165	46,25
1009,54	47
1009,914	47,88
1010,289	47,21
1010,663	47,52
1011,038	46,54
1011,412	47,98
1011,786	47,83
1012,16	47,86
1012,535	48,18
1012,909	48,42
1013,282	47,7
1013,656	48,06
1014,03	48,43
1014,404	47,61
1014,777	47,02
1015,151	47,96
1015,524	48,28
1015,897	48,48
1016,271	47,56
1016,644	48,14
1017,017	48,35
1017,39	47,69
1017,763	48,68
1018,136	47,48
1018,508	49,43
1018,881	48,11
1019,254	47,87
1019,626	47,66
1019,999	48,5
1020,371	47,74
1020,743	47,88
1021,116	48,6
1021,488	48,45
1021,86	48,16
1022,232	48,53
1022,604	48,91
1022,975	47,27
1023,347	48,84
1023,719	49,18
1024,09	48,8
1024,462	48,51
1024,833	48,52
1025,204	47,82
1025,576	48,5
1025,947	48,24
1026,318	48,23
1026,689	48,81
1027,06	48,93
1027,431	48,28
1027,801	49,56
1028,172	47,96
1028,543	47,98
1028,913	48,41
1029,284	48,23
1029,654	48,74
1030,024	47,55
1030,394	48,94
1030,764	47,81
1031,135	47,93
1031,504	48,92
1031,874	47,89
1032,244	48,56
1032,614	48,77
1032,983	48,58
1033,353	47,77
1033,722	48,64
1034,092	48,63
1034,461	49,24
1034,83	48,5
1035,2	47,73
1035,569	48,43
1035,938	49,01
1036,307	49,01
1036,675	48,01
1037,044	49,41
1037,413	48,35
1037,781	48,48
1038,15	48,85
1038,518	48,36
1038,887	50,68
1039,255	49,03
1039,623	49,47
1039,991	47,84
1040,359	50,29
1040,727	49,16
1041,095	48,78
1041,463	49,32
1041,831	49,63
1042,198	48,31
1042,566	48,51
1042,933	47,51
1043,301	48,87
1043,668	48,69
1044,035	49,36
1044,402	49,67
1044,77	49,8
1045,137	48,58
1045,503	49,33
1045,87	49,96
1046,237	49,04
1046,604	48,46
1046,97	48,96
1047,337	49,24
1047,703	48,97
1048,07	49,75
1048,436	48,59
1048,802	48,86
1049,168	48,83
1049,534	49,36
1049,9	51,12
1050,266	48,47
1050,632	49,86
1050,998	48,28
1051,364	48,42
1051,729	49,98
1052,095	49,43
1052,46	48,08
1052,825	49,44
1053,191	48,48
1053,556	50,58
1053,921	49,77
1054,286	48,38
1054,651	49,97
1055,016	49,37
1055,381	48,73
1055,745	49
1056,11	49,76
1056,475	48,58
1056,839	49,99
1057,203	49,69
1057,568	49,43
1057,932	51,48
1058,296	50,77
1058,66	49,69
1059,024	50,14
1059,388	48,84
1059,752	48,89
1060,116	49,44
1060,48	50,89
1060,843	47,55
1061,207	48,45
1061,57	50,39
1061,934	51,44
1062,297	51,1
1062,66	50,58
1063,023	50,76
1063,386	52,24
1063,749	50,18
1064,112	51,48
1064,475	50,1
1064,838	50,63
1065,201	49,18
1065,563	51,57
1065,926	51,49
1066,288	50,21
1066,651	49,54
1067,013	50
1067,375	50,43
1067,737	50,43
1068,099	50,1
1068,461	49,95
1068,823	51,99
1069,185	50,08
1069,547	51,83
1069,909	50,24
1070,27	50,75
1070,632	50,8
1070,993	50,58
1071,355	50,27
1071,716	51,34
1072,077	50,77
1072,438	51,61
1072,799	50,42
1073,16	51,23
1073,521	51,42
1073,882	49,62
1074,243	48,92
1074,603	51,01
1074,964	51,11
1075,325	51,34
1075,685	51,58
1076,045	51,16
1076,406	50,37
1076,766	50,71
1077,126	50,79
1077,486	51,58
1077,846	50,54
1078,206	50,42
1078,566	52,22
1078,925	52,25
1079,285	51,3
1079,645	53,6
1080,004	52,21
1080,364	51,22
1080,723	51,77
1081,082	50,65
1081,442	50,74
1081,801	49,81
1082,16	53,6
1082,519	52,62
1082,878	49,43
1083,237	52,05
1083,595	52
1083,954	50,44
1084,313	53,77
1084,671	50,45
1085,03	49,8
1085,388	51,55
1085,746	52,65
1086,104	49,79
1086,463	51,75
1086,821	52,12
1087,179	50,8
1087,537	52,82
1087,894	54,6
1088,252	51,21
1088,61	54,5
1088,967	52,38
1089,325	51,16
1089,682	54,44
1090,04	54,52
1090,397	54,34
1090,754	52,22
1091,111	49,71
1091,469	54,37
1091,826	51,76
1092,182	50,99
1092,539	52,52
1092,896	53,86
1093,253	52,58
1093,609	50,71
1093,966	51,91
1094,322	52,95
1094,679	52,37
1095,035	56,63
1095,391	51,82
1095,748	52,39
1096,104	53,76
1096,46	50,9
1096,816	52,76
1097,171	54,42
1097,527	50
1097,883	51,65
1098,239	53,45
1098,594	52,83
1098,95	51,5
1099,305	52,76
1099,66	53,2
1100,016	53,44
1100,371	51,9
1100,726	54,23
1101,081	51,02
1101,436	54,47
1101,791	50,64
1102,146	53,7
1102,5	53,54
1102,855	50,71
1103,21	54,75
1103,564	54,11
1103,918	55,26
1104,273	51,44
1104,627	53,8
1104,981	54,88
1105,335	50,18
1105,69	50,62
1106,043	55,92
1106,397	51,26
1106,751	51,06
1107,105	54,87
1107,459	55,41
1107,812	55,39
1108,166	55,5
1108,519	56,35
1108,873	54,65
1109,226	52,68
1109,579	52,29
1109,932	55,97
1110,285	56,01
1110,638	53,64
1110,991	53,03
1111,344	56,7
1111,697	50,97
1112,05	59,56
1112,402	56,29
1112,755	56,98
1113,107	56,34
1113,46	55,9
1113,812	57,41
1114,164	57,43
1114,517	59,71
1114,869	87,42
1115,221	86,81
1115,573	85,4
1115,924	76,62
