Data from G_4_Relative__7__00153.txt Node

Date: Tue Jan 30 10:11:12 CET 2024
User: diatiterra
Spectrometer: HDX00911
Trigger mode: 0
Integration Time (sec): 6,000000E-3
Scans to average: 2
Nonlinearity correction enabled: false
Boxcar width: 0
Storing dark spectrum: false
XAxis mode: Wavelengths
Number of Pixels in Spectrum: 2068
>>>>>Begin Spectral Data<<<<<
194,468	101,1
195,025	119,35
195,581	97,73
196,138	94,9
196,694	89,55
197,251	81,94
197,807	84,17
198,363	78,28
198,919	91,49
199,474	84,32
200,03	81,5
200,586	87,67
201,141	85,29
201,696	86,13
202,251	96,02
202,806	82,13
203,361	82,52
203,916	80,91
204,471	92,08
205,025	79,5
205,58	88,02
206,134	83,67
206,688	76,82
207,242	86,49
207,796	86,86
208,35	97,26
208,904	88,31
209,457	92,64
210,011	87,34
210,564	85,14
211,117	99,15
211,67	87,45
212,223	76,49
212,776	83,9
213,329	85,23
213,881	90,91
214,434	84,43
214,986	87,05
215,538	86,22
216,09	90,36
216,642	78,51
217,194	93,78
217,746	81,67
218,297	80,67
218,849	75,29
219,4	84,42
219,951	88,5
220,502	78,6
221,053	89,83
221,604	79,53
222,155	81,78
222,705	77,45
223,256	77,53
223,806	88,33
224,356	88,24
224,906	84,14
225,456	76,47
226,006	80,8
226,556	85,84
227,106	82,57
227,655	84,19
228,204	85,97
228,754	81,86
229,303	79,73
229,852	86,9
230,401	95,96
230,949	69,86
231,498	78,12
232,047	84,84
232,595	84,74
233,143	88,16
233,691	79,15
234,239	78,63
234,787	90,58
235,335	81,82
235,883	90,99
236,43	89,83
236,978	80,87
237,525	83,83
238,072	79,3
238,619	79,37
239,166	75,43
239,713	83,12
240,26	82,26
240,806	87,5
241,353	92,31
241,899	76,95
242,445	74,06
242,991	85,25
243,537	80,95
244,083	77,83
244,629	79,3
245,174	82,13
245,72	78,38
246,265	85,52
246,81	94,22
247,355	85,77
247,9	89,58
248,445	69,44
248,99	74,47
249,534	75,09
250,079	87,5
250,623	94,25
251,168	84,49
251,712	71,62
252,256	72,73
252,8	94,25
253,343	83
253,887	87,45
254,43	76,67
254,974	83,2
255,517	90,38
256,06	71,31
256,603	84,77
257,146	74,23
257,689	80,51
258,232	83,26
258,774	80,62
259,317	83,19
259,859	90,95
260,401	88,79
260,943	74,27
261,485	78,64
262,027	80,85
262,569	92,59
263,11	81,86
263,652	85,84
264,193	78,6
264,734	93,98
265,275	82,4
265,816	73,08
266,357	78,42
266,898	86,32
267,438	82,55
267,979	81,9
268,519	82,69
269,059	75,49
269,6	83,19
270,14	78,45
270,68	87,3
271,219	80
271,759	79,91
272,298	78,4
272,838	81,67
273,377	93,69
273,916	81,71
274,455	78,46
274,994	86,64
275,533	74,9
276,072	84,68
276,61	85,96
277,149	80,42
277,687	87,71
278,225	82,3
278,763	71,76
279,301	79,59
279,839	86,48
280,377	75,92
280,914	81,48
281,452	85,37
281,989	79,75
282,526	79,17
283,064	85,82
283,601	83,33
284,137	76,89
284,674	79,08
285,211	82,97
285,747	82,28
286,284	89,22
286,82	80,24
287,356	86,67
287,892	74,9
288,428	77,25
288,964	85,48
289,5	75,81
290,035	77,59
290,571	79,77
291,106	78,28
291,641	87,34
292,176	78,4
292,711	82,33
293,246	83,52
293,781	80,87
294,315	84,19
294,85	76,49
295,384	79,25
295,918	83,2
296,453	78,95
296,987	81,78
297,52	80,09
298,054	81,45
298,588	76
299,121	76,58
299,655	80,66
300,188	79,66
300,721	87,5
301,254	78,48
301,787	84,21
302,32	80,77
302,853	90,21
303,385	79,61
303,918	77,78
304,45	84,72
304,982	78
305,514	72,76
306,046	78,76
306,578	80,5
307,11	79,17
307,641	73,95
308,173	84,35
308,704	86,18
309,236	82,61
309,767	77,5
310,298	74,8
310,829	76,74
311,359	91,59
311,89	76,54
312,421	68,57
312,951	83,68
313,481	87,68
314,012	73,64
314,542	90,09
315,072	81,97
315,601	74,19
316,131	82,83
316,661	80,31
317,19	73,06
317,72	78,39
318,249	78,9
318,778	84,77
319,307	80,24
319,836	77,6
320,365	86,81
320,893	79,53
321,422	78,03
321,95	81,3
322,479	75,9
323,007	74,5
323,535	81,89
324,063	75,49
324,591	74,71
325,118	74,03
325,646	74,14
326,173	86,61
326,701	70,92
327,228	77,96
327,755	73,33
328,282	82,27
328,809	75,44
329,336	83,83
329,862	77,01
330,389	77,53
330,915	74,42
331,441	85,65
331,968	74,5
332,494	79,56
333,02	76,15
333,545	74,49
334,071	76,47
334,597	76,86
335,122	75,23
335,648	83,6
336,173	75
336,698	77,25
337,223	74,65
337,748	74,9
338,272	72,1
338,797	79,68
339,322	80,34
339,846	74,7
340,37	78,6
340,894	74,68
341,419	74,19
341,942	74,42
342,466	70,8
342,99	70,34
343,514	83,81
344,037	72,18
344,56	80,08
345,084	81,36
345,607	73,58
346,13	77,42
346,653	68,27
347,175	76,69
347,698	77,29
348,221	79,76
348,743	78,11
349,265	74,69
349,787	71,43
350,309	73,72
350,831	72,89
351,353	70,2
351,875	75,82
352,397	70,17
352,918	74,1
353,439	73,31
353,961	70,63
354,482	76,51
355,003	69,72
355,524	71,96
356,044	74,91
356,565	71,53
357,086	68,18
357,606	59
358,126	65,55
358,646	64,48
359,167	65,78
359,687	72,94
360,206	74,76
360,726	69,4
361,246	71,83
361,765	65,37
362,285	68,79
362,804	60,67
363,323	63,36
363,842	71,29
364,361	65,33
364,88	69,07
365,398	65,86
365,917	60,65
366,435	66,12
366,954	68,39
367,472	76,28
367,99	61,19
368,508	70
369,026	67,71
369,544	67,83
370,061	65,15
370,579	68,23
371,096	62,04
371,613	58,98
372,131	67,36
372,648	63,45
373,165	65,44
373,681	60,99
374,198	64,05
374,715	57,22
375,231	62,72
375,747	63,7
376,264	61,89
376,78	57,82
377,296	64,29
377,812	61,6
378,327	58,69
378,843	62,59
379,359	59,91
379,874	56,55
380,389	59,36
380,905	62,21
381,42	55,92
381,935	61,21
382,449	58,2
382,964	56,33
383,479	57,41
383,993	59
384,508	54,04
385,022	56,31
385,536	58,18
386,05	52,32
386,564	55,44
387,078	58,64
387,592	56,23
388,105	56,62
388,619	52,5
389,132	55,41
389,645	49
390,158	53,54
390,671	50,37
391,184	50,53
391,697	53,06
392,21	49,53
392,722	50,21
393,235	49,04
393,747	51,26
394,259	49,19
394,771	49,07
395,283	46,19
395,795	47,33
396,307	48,48
396,818	45,89
397,33	49,87
397,841	47,13
398,353	48,9
398,864	44,16
399,375	44,83
399,886	46,59
400,397	46,17
400,907	42,6
401,418	40,74
401,928	42,86
402,439	43,66
402,949	44,08
403,459	40,57
403,969	41,41
404,479	42,65
404,989	38,61
405,498	39,67
406,008	39,38
406,517	39,49
407,027	36,34
407,536	39,55
408,045	37,14
408,554	35,58
409,063	36,47
409,572	34,68
410,08	35,11
410,589	32,91
411,097	32,88
411,606	33,75
412,114	30,01
412,622	30,69
413,13	32,03
413,638	31,51
414,145	30,87
414,653	29,24
415,16	30,32
415,668	31,03
416,175	29,22
416,682	28,37
417,189	28,73
417,696	29,64
418,203	29,2
418,71	28,5
419,216	29,66
419,723	27,42
420,229	28,69
420,735	28,16
421,242	27,18
421,748	27,69
422,254	28,17
422,759	27,31
423,265	26,32
423,771	26,64
424,276	25,88
424,781	25,88
425,287	25,27
425,792	25,71
426,297	25,33
426,802	26,76
427,306	26,94
427,811	25,84
428,316	27,38
428,82	26,23
429,324	26,19
429,829	25,94
430,333	25,54
430,837	25,37
431,34	26,22
431,844	24,97
432,348	25,87
432,851	25,9
433,355	24,67
433,858	26,4
434,361	24,62
434,864	24,78
435,367	26,32
435,87	24,24
436,373	24,74
436,876	26,06
437,378	24,7
437,88	25,65
438,383	25,44
438,885	24,4
439,387	25,31
439,889	24,88
440,391	25,11
440,892	25,33
441,394	24,3
441,896	24,74
442,397	25,03
442,898	25,1
443,399	23,93
443,9	25,24
444,401	24,9
444,902	25,17
445,403	25,81
445,903	26,02
446,404	25,05
446,904	25,28
447,405	25
447,905	25,68
448,405	24,8
448,905	24,65
449,404	24,95
449,904	25,43
450,404	25,09
450,903	24,89
451,403	24,73
451,902	24,7
452,401	25,33
452,9	25,29
453,399	26,44
453,898	24,65
454,396	26,35
454,895	24,47
455,393	24,95
455,892	25,22
456,39	25,33
456,888	25,86
457,386	25,27
457,884	24,95
458,382	25,34
458,879	25,78
459,377	25,1
459,874	25,22
460,372	24,95
460,869	25,21
461,366	25,56
461,863	25,18
462,36	25,5
462,857	25,18
463,353	24,75
463,85	25,03
464,346	25,36
464,843	25,35
465,339	25,01
465,835	25
466,331	24,54
466,827	25,54
467,323	24,99
467,818	24,45
468,314	24,57
468,809	24,63
469,305	25,26
469,8	26,15
470,295	24,75
470,79	25,78
471,285	25,81
471,78	24,2
472,274	24,85
472,769	24,77
473,263	25,3
473,758	25,53
474,252	24,97
474,746	25,32
475,24	25,25
475,734	24,66
476,228	24,66
476,721	25,55
477,215	25,39
477,708	24,91
478,202	24,48
478,695	25,55
479,188	24,89
479,681	24,62
480,174	24,92
480,667	24,46
481,159	24,73
481,652	24,48
482,144	25,41
482,637	25,35
483,129	25,49
483,621	24,94
484,113	24,31
484,605	25,36
485,097	25,27
485,588	26,12
486,08	25,48
486,571	25,06
487,063	25,97
487,554	25,25
488,045	25,2
488,536	25,78
489,027	25,6
489,518	24,52
490,008	25,89
490,499	25,72
490,989	25,52
491,48	25,79
491,97	25,6
492,46	25,35
492,95	25,55
493,44	26,28
493,93	25,26
494,419	26,43
494,909	26,17
495,398	25,76
495,888	26
496,377	26,11
496,866	26,3
497,355	26,25
497,844	25,91
498,333	26,09
498,821	26,38
499,31	27,05
499,798	27,07
500,287	27,21
500,775	27,14
501,263	27,32
501,751	27,18
502,239	28,11
502,727	27,94
503,215	28,21
503,702	28,74
504,19	27,3
504,677	28,2
505,164	28,29
505,651	28,53
506,139	28,46
506,625	29
507,112	28,9
507,599	29,58
508,086	29,35
508,572	29,52
509,058	29,58
509,545	30,29
510,031	30,2
510,517	30,85
511,003	30,98
511,489	30,82
511,974	31,81
512,46	32,09
512,946	32,17
513,431	31,81
513,916	32,45
514,401	32,84
514,887	32,72
515,371	33,09
515,856	33,29
516,341	33,14
516,826	34,14
517,31	34,15
517,795	34,75
518,279	34,79
518,763	34,96
519,247	35,7
519,731	35,69
520,215	35,8
520,699	36,1
521,182	36,6
521,666	36,85
522,149	37,8
522,633	37,64
523,116	37,55
523,599	38,33
524,082	37,59
524,565	38,82
525,048	38,69
525,53	38,94
526,013	39,94
526,495	40,03
526,978	39,67
527,46	40,28
527,942	40,65
528,424	41,11
528,906	40,74
529,388	40,49
529,87	40,89
530,351	40,82
530,833	41,48
531,314	41,83
531,795	42,55
532,277	41,59
532,758	41,5
533,238	43,27
533,719	42,73
534,2	42,41
534,681	43,38
535,161	43,15
535,642	42,27
536,122	43
536,602	43,38
537,082	43,01
537,562	43,05
538,042	42,96
538,522	43,14
539,001	43,55
539,481	42,9
539,96	43,29
540,44	43,82
540,919	43,2
541,398	43,04
541,877	43,55
542,356	44,08
542,835	43,46
543,313	43,32
543,792	43,67
544,27	43,86
544,749	43,92
545,227	43,84
545,705	43,62
546,183	44,74
546,661	44,32
547,139	43,78
547,616	44,07
548,094	45,03
548,571	43,79
549,049	44,48
549,526	44,78
550,003	44,07
550,48	44,75
550,957	43,42
551,434	44,32
551,911	44,31
552,387	43,81
552,864	44,92
553,34	44,5
553,817	44,2
554,293	43,95
554,769	43,96
555,245	44,17
555,721	44,56
556,197	44,52
556,672	44,24
557,148	44,27
557,623	44,18
558,099	43,94
558,574	43,9
559,049	44,4
559,524	44,3
559,999	43,73
560,474	43,86
560,948	44,01
561,423	43,41
561,897	43,66
562,372	43,48
562,846	43,2
563,32	44,22
563,794	43,03
564,268	43,27
564,742	43,27
565,216	42,93
565,69	42,94
566,163	42,81
566,636	42,19
567,11	43,26
567,583	42,37
568,056	41,4
568,529	42,27
569,002	42,1
569,475	42,14
569,947	41,52
570,42	42,33
570,892	40,96
571,365	41,19
571,837	41,04
572,309	42,14
572,781	41,12
573,253	40,53
573,725	40,59
574,197	40,36
574,668	40,87
575,14	40,14
575,611	39,99
576,082	39,73
576,554	39,69
577,025	39,5
577,496	39,36
577,967	39,06
578,437	39,55
578,908	39,34
579,379	38,42
579,849	38,58
580,319	38,86
580,79	38,62
581,26	38,43
581,73	38,1
582,2	38,52
582,669	37,57
583,139	38,08
583,609	37,59
584,078	37,9
584,548	37,79
585,017	37,63
585,486	36,99
585,955	37,36
586,424	37,47
586,893	36,76
587,362	37,26
587,83	37,07
588,299	36,94
588,767	36,82
589,236	37,25
589,704	35,99
590,172	36,49
590,64	36,1
591,108	36,41
591,576	36,62
592,043	36,46
592,511	36,53
592,978	36,43
593,446	36,27
593,913	35,65
594,38	36,4
594,847	35,9
595,314	36,16
595,781	36,1
596,248	36,02
596,715	35,9
597,181	35,89
597,647	35,76
598,114	35,4
598,58	35,53
599,046	35,59
599,512	35,59
599,978	35,14
600,444	36,24
600,91	35,42
601,375	35,49
601,841	35,22
602,306	35,62
602,771	35,14
603,236	35,53
603,702	34,72
604,167	34,9
604,631	35,43
605,096	34,67
605,561	34,79
606,025	34,78
606,49	34,54
606,954	34,63
607,418	34,91
607,882	34,45
608,347	34,68
608,81	34,15
609,274	34,59
609,738	34,16
610,202	34,15
610,665	34,02
611,128	33,81
611,592	33,67
612,055	33,73
612,518	33,61
612,981	33,57
613,444	33,34
613,907	33,33
614,369	33,56
614,832	33,14
615,294	33,13
615,757	33,05
616,219	33,09
616,681	33,01
617,143	33,04
617,605	32,79
618,067	32,64
618,529	32,55
618,99	32,36
619,452	32,72
619,913	32,6
620,375	32,29
620,836	32,2
621,297	32,43
621,758	31,96
622,219	32,01
622,68	32,07
623,14	31,81
623,601	32,34
624,061	32,1
624,522	31,95
624,982	31,67
625,442	31,7
625,902	31,65
626,362	31,83
626,822	31,59
627,282	32,09
627,742	31,48
628,201	31,64
628,661	31,92
629,12	31,69
629,579	31,63
630,038	31,74
630,497	31,37
630,956	31,8
631,415	31,54
631,874	31,49
632,332	31,39
632,791	31,42
633,249	31,29
633,708	31,14
634,166	31,1
634,624	31,1
635,082	31,59
635,54	31,41
635,998	30,97
636,455	30,94
636,913	30,79
637,37	30,79
637,828	30,81
638,285	30,5
638,742	30,74
639,199	29,94
639,656	29,97
640,113	30,14
640,57	29,87
641,027	29,97
641,483	29,81
641,94	29,58
642,396	29,47
642,852	29,11
643,309	28,83
643,765	29
644,221	29,31
644,676	28,56
645,132	29
645,588	28,37
646,043	28,37
646,499	28,23
646,954	27,97
647,409	28,23
647,864	27,78
648,319	27,91
648,774	27,5
649,229	27,63
649,684	27,43
650,139	27,55
650,593	27,09
651,047	27,32
651,502	27,66
651,956	26,92
652,41	27,15
652,864	26,71
653,318	26,88
653,772	27,01
654,225	27,07
654,679	27,02
655,133	26,6
655,586	26,73
656,039	26,8
656,492	26,76
656,946	26,77
657,399	26,4
657,851	26,18
658,304	26,44
658,757	26,02
659,209	26,16
659,662	26,02
660,114	26,16
660,567	25,76
661,019	25,88
661,471	25,51
661,923	25,54
662,375	25,47
662,826	25,17
663,278	25,26
663,73	25,3
664,181	25,13
664,632	25,12
665,084	24,91
665,535	25,03
665,986	25
666,437	24,7
666,888	25,11
667,338	24,69
667,789	24,41
668,24	24,69
668,69	24,76
669,14	24,63
669,591	24,44
670,041	24,54
670,491	24,88
670,941	24,3
671,391	24,44
671,84	24,8
672,29	24,6
672,74	24,25
673,189	24,7
673,638	24,56
674,088	24,81
674,537	24,57
674,986	24,97
675,435	24,66
675,883	24,98
676,332	24,99
676,781	24,99
677,229	25,36
677,678	25,28
678,126	25,25
678,574	25,57
679,022	25,58
679,47	25,87
679,918	25,86
680,366	25,84
680,814	25,87
681,261	25,84
681,709	26,14
682,156	26,19
682,604	26,25
683,051	26,59
683,498	26,42
683,945	26,95
684,392	26,89
684,839	27,39
685,286	27,11
685,732	27,58
686,179	27,41
686,625	28
687,071	28,12
687,518	28,1
687,964	28,33
688,41	28,71
688,856	29,38
689,301	29,51
689,747	29,73
690,193	29,98
690,638	30,62
691,084	30,73
691,529	31,33
691,974	31,67
692,419	32,15
692,864	32,73
693,309	33,29
693,754	33,59
694,199	34,01
694,643	34,79
695,088	34,8
695,532	35,87
695,977	36,03
696,421	36,78
696,865	36,67
697,309	37,73
697,753	38,08
698,197	39,09
698,64	39,23
699,084	39,69
699,527	40,41
699,971	40,93
700,414	41,33
700,857	41,13
701,3	41,93
701,743	42,27
702,186	43,03
702,629	43,47
703,072	43,93
703,515	44,51
703,957	44,55
704,399	44,94
704,842	45,41
705,284	46
705,726	46,46
706,168	47,35
706,61	47,09
707,052	47,7
707,494	47,93
707,935	49,02
708,377	48,57
708,818	48,99
709,26	49,3
709,701	49,52
710,142	50,55
710,583	50,47
711,024	50,85
711,465	51,3
711,905	51,42
712,346	51,48
712,787	51,83
713,227	52,84
713,667	52,64
714,108	52,91
714,548	53,54
714,988	53,89
715,428	53,89
715,868	54
716,307	54,69
716,747	55,15
717,186	55,17
717,626	55,73
718,065	55,98
718,504	55,75
718,944	56,01
719,383	56,3
719,822	56,91
720,261	57
720,699	57,18
721,138	57,24
721,576	57,28
722,015	58,06
722,453	58,2
722,892	58,51
723,33	58,03
723,768	58,87
724,206	59,03
724,644	58,64
725,081	58,99
725,519	59,37
725,957	58,79
726,394	59,63
726,832	59,77
727,269	60,03
727,706	60,29
728,143	60,65
728,58	60,44
729,017	60,67
729,454	61,03
729,89	60,67
730,327	61,52
730,764	61,21
731,2	61,41
731,636	61,66
732,072	61,37
732,509	61,62
732,945	61,62
733,38	61,42
733,816	61,99
734,252	62,03
734,688	61,81
735,123	62,26
735,559	61,9
735,994	62,25
736,429	62,19
736,864	62,21
737,299	62,43
737,734	62,1
738,169	62,89
738,604	61,94
739,038	62,62
739,473	62,89
739,907	62,99
740,342	62,77
740,776	62,58
741,21	62,35
741,644	62,93
742,078	62,71
742,512	62,65
742,946	62,76
743,379	62,81
743,813	63,22
744,246	62,76
744,68	62,8
745,113	62,55
745,546	62,36
745,979	62,52
746,412	62,87
746,845	62,68
747,278	62,86
747,711	62,74
748,143	63,48
748,576	62,68
749,008	62,57
749,441	63,3
749,873	62,82
750,305	62,83
750,737	63,12
751,169	62,62
751,601	62,49
752,032	62,7
752,464	62,78
752,896	62,6
753,327	62,83
753,758	62,7
754,19	62,79
754,621	63,13
755,052	62,56
755,483	62,52
755,914	62,2
756,344	62,26
756,775	62,6
757,206	62,43
757,636	62,07
758,066	62,08
758,497	62,21
758,927	62,41
759,357	62,68
759,787	62,51
760,217	61,83
760,647	62,06
761,076	62,02
761,506	61,89
761,935	62,17
762,365	62,06
762,794	62,02
763,223	61,26
763,653	61,83
764,082	61,71
764,51	61,93
764,939	62,11
765,368	61,92
765,797	62,13
766,225	61,49
766,654	61,86
767,082	61,68
767,51	61,73
767,938	61,48
768,367	62,01
768,795	61,56
769,222	61,49
769,65	61,81
770,078	61,4
770,505	61,52
770,933	61,24
771,36	61,38
771,788	61,55
772,215	62,02
772,642	61,45
773,069	60,96
773,496	61,49
773,923	61,8
774,349	61,56
774,776	61,62
775,203	61,72
775,629	61,45
776,055	61,68
776,482	61,32
776,908	61,16
777,334	61,1
777,76	61,51
778,186	61,11
778,611	61,42
779,037	61,37
779,463	61,5
779,888	61,07
780,314	61,09
780,739	61,13
781,164	61,46
781,589	60,92
782,014	60,38
782,439	61,14
782,864	61,07
783,289	61,37
783,713	60,85
784,138	61,64
784,562	60,89
784,987	60,56
785,411	60,44
785,835	61,38
786,259	61,4
786,683	60,84
787,107	61,75
787,531	60,92
787,954	61,31
788,378	60,97
788,802	60,63
789,225	60,74
789,648	61,01
790,071	60,63
790,495	61,14
790,918	61,04
791,34	60,93
791,763	60,61
792,186	60,84
792,609	60,8
793,031	60,45
793,454	60,99
793,876	61,26
794,298	60,95
794,721	60,47
795,143	60,66
795,565	60,97
795,986	60,56
796,408	60,86
796,83	60,68
797,252	60,55
797,673	60,33
798,094	60,93
798,516	60,54
798,937	60,61
799,358	61,14
799,779	61,42
800,2	61,07
800,621	60,87
801,042	61,1
801,462	60,9
801,883	60,18
802,303	60,44
802,724	60,59
803,144	60,55
803,564	60,64
803,984	60,64
804,404	60,63
804,824	60,8
805,244	60,8
805,664	60,73
806,084	60,31
806,503	60,61
806,923	60,24
807,342	60,64
807,761	60,32
808,18	60,81
808,599	60,98
809,018	60,42
809,437	60,55
809,856	60,47
810,275	61,12
810,693	61
811,112	60,82
811,53	61,09
811,949	61,05
812,367	60,36
812,785	60,51
813,203	60,63
813,621	60,45
814,039	60,83
814,457	60,51
814,874	60,4
815,292	60,65
815,709	60,08
816,127	60,66
816,544	60,21
816,961	60,3
817,378	60,38
817,795	60,04
818,212	60,34
818,629	60,45
819,046	60,59
819,462	60,5
819,879	60,43
820,295	60,33
820,712	60,06
821,128	60,52
821,544	60,57
821,96	59,94
822,376	60,5
822,792	60,25
823,208	60,32
823,624	60,44
824,039	60,78
824,455	61,01
824,87	60,07
825,286	60,51
825,701	60,19
826,116	60,69
826,531	60,47
826,946	59,93
827,361	60,37
827,776	60,4
828,19	60,21
828,605	60,01
829,02	59,95
829,434	59,54
829,848	60,16
830,263	60,32
830,677	60,26
831,091	59,95
831,505	60,23
831,919	60,51
832,332	59,91
832,746	60,29
833,16	59,6
833,573	59,91
833,987	59,86
834,4	60,22
834,813	59,98
835,226	60,35
835,639	60,06
836,052	60,2
836,465	60,33
836,878	59,83
837,29	59,91
837,703	60,55
838,116	60,6
838,528	60,27
838,94	59,73
839,352	60,56
839,765	60,59
840,177	59,92
840,589	60,51
841	60,22
841,412	60,43
841,824	60,51
842,235	60,22
842,647	60,01
843,058	59,98
843,47	60,11
843,881	60,38
844,292	59,97
844,703	60,15
845,114	60,07
845,525	60,12
845,935	60,09
846,346	60,21
846,757	59,73
847,167	60,18
847,577	59,85
847,988	60,25
848,398	59,71
848,808	60,18
849,218	60,01
849,628	60,49
850,038	59,71
850,448	59,7
850,857	60,08
851,267	61,07
851,676	60,46
852,086	60,2
852,495	60,3
852,904	60,16
853,313	59,93
853,722	59,3
854,131	59,89
854,54	60,51
854,949	59,94
855,357	60,24
855,766	60,34
856,174	60,21
856,583	60,48
856,991	60,19
857,399	60,02
857,807	60,13
858,215	59,51
858,623	59,54
859,031	59,74
859,439	59,91
859,846	60,56
860,254	59,92
860,661	60,66
861,069	60,02
861,476	60,34
861,883	60,04
862,29	60,17
862,697	59,87
863,104	60,35
863,511	60,29
863,918	59,75
864,325	59,74
864,731	59,89
865,138	60,17
865,544	59,99
865,95	60,17
866,357	59,88
866,763	59,7
867,169	60,25
867,575	60,18
867,98	59,46
868,386	60,07
868,792	60,42
869,197	60,6
869,603	60,13
870,008	59,43
870,414	60,35
870,819	59,9
871,224	59,91
871,629	59,82
872,034	59,62
872,439	59,87
872,844	59,11
873,248	60,14
873,653	59,92
874,057	59,41
874,462	59,73
874,866	60,23
875,27	60
875,674	59,69
876,078	59,9
876,482	59,96
876,886	59,68
877,29	59,72
877,694	59,74
878,097	59,68
878,501	60,2
878,904	59,91
879,308	59,28
879,711	59,77
880,114	59,66
880,517	59,71
880,92	59,68
881,323	59,74
881,726	60,59
882,128	59,72
882,531	60,07
882,934	60,28
883,336	60,13
883,738	59,67
884,141	59,49
884,543	60,24
884,945	59,3
885,347	59,66
885,749	59,85
886,151	60,25
886,552	59,34
886,954	59,82
887,355	59,77
887,757	59,7
888,158	60,49
888,56	60,25
888,961	59,87
889,362	59,78
889,763	59,75
890,164	59,27
890,565	59,67
890,965	60,17
891,366	60,36
891,767	59,95
892,167	59,31
892,567	59,75
892,968	59,63
893,368	59,62
893,768	59,74
894,168	59,71
894,568	59,65
894,968	60,37
895,368	59,93
895,767	59,88
896,167	59,93
896,566	59,8
896,966	59,45
897,365	59,8
897,764	60,06
898,164	58,94
898,563	60,06
898,962	59,9
899,361	59,34
899,759	60,04
900,158	59,78
900,557	59,52
900,955	59,62
901,354	60,33
901,752	59,99
902,15	60,18
902,548	59,63
902,947	59,9
903,345	59,1
903,742	59,95
904,14	58,85
904,538	59,6
904,936	59,39
905,333	59,52
905,731	60,03
906,128	59,4
906,525	59,91
906,923	60,28
907,32	59,24
907,717	59,43
908,114	59,63
908,511	59,89
908,907	59,87
909,304	59,77
909,701	59,77
910,097	59,98
910,494	59,95
910,89	59,95
911,286	59,83
911,682	59,92
912,078	59,83
912,474	60,05
912,87	58,9
913,266	60
913,662	59,77
914,058	59,68
914,453	59,56
914,849	59,88
915,244	60,54
915,639	59,87
916,034	60,32
916,43	58,98
916,825	60,47
917,22	59,41
917,614	59,18
918,009	59,51
918,404	59,82
918,798	59,97
919,193	59,39
919,587	60,19
919,982	59,88
920,376	59,72
920,77	59,74
921,164	59,88
921,558	59,62
921,952	59,47
922,346	59
922,74	60
923,133	60,04
923,527	59,35
923,92	59,75
924,314	59,84
924,707	60,14
925,1	59,45
925,493	59,24
925,886	59,72
926,279	58,5
926,672	59,33
927,065	59,76
927,457	59,82
927,85	59,89
928,243	59,64
928,635	59,22
929,027	59,36
929,42	59,63
929,812	59,09
930,204	59,64
930,596	59,97
930,988	59,56
931,379	59,78
931,771	59,5
932,163	59,35
932,554	59,86
932,946	59,62
933,337	59,54
933,729	58,93
934,12	59,8
934,511	58,71
934,902	59,99
935,293	59,29
935,684	59,88
936,075	59,78
936,465	60,25
936,856	59,55
937,246	59,97
937,637	61,16
938,027	59,45
938,417	59,73
938,808	59,37
939,198	59,55
939,588	60,2
939,978	59,77
940,368	59,07
940,757	59,83
941,147	58,74
941,537	59,27
941,926	59,55
942,315	58,74
942,705	59,13
943,094	59,72
943,483	60,1
943,872	58,93
944,261	60,26
944,65	59,38
945,039	58,42
945,428	59,25
945,816	59,78
946,205	58,93
946,593	59,27
946,982	58,38
947,37	60,22
947,758	58,67
948,146	58,56
948,534	58,81
948,922	59,33
949,31	59,03
949,698	59,3
950,086	59,15
950,473	60,12
950,861	58,93
951,248	58,65
951,636	58,22
952,023	58,74
952,41	57
952,797	59,45
953,184	59,09
953,571	59,62
953,958	58,09
954,345	58,92
954,731	58,72
955,118	57,48
955,505	58,47
955,891	58,37
956,277	57,81
956,664	59,19
957,05	58,99
957,436	58,14
957,822	57,93
958,208	58,04
958,594	58,19
958,979	57,94
959,365	58,3
959,751	58,82
960,136	57,98
960,522	58,77
960,907	58,19
961,292	58,35
961,677	57,94
962,062	57,98
962,447	58,47
962,832	57,3
963,217	58,28
963,602	58,19
963,986	58,2
964,371	58,26
964,756	57,38
965,14	58,06
965,524	58,07
965,908	58,57
966,293	57,72
966,677	57,72
967,061	58,21
967,445	58,68
967,828	58,43
968,212	57,78
968,596	57,93
968,979	58,39
969,363	58,55
969,746	57,5
970,129	58,23
970,513	58,78
970,896	58,29
971,279	57,8
971,662	57,99
972,045	57,61
972,428	58,25
972,81	59,09
973,193	58,59
973,575	58,14
973,958	57,97
974,34	58,42
974,723	57,6
975,105	57,64
975,487	58,24
975,869	58,4
976,251	57,5
976,633	59,19
977,015	57,95
977,396	58
977,778	57,97
978,16	58,49
978,541	58,35
978,922	58,18
979,304	58,17
979,685	57,22
980,066	57,83
980,447	58,25
980,828	58
981,209	57,77
981,59	58,34
981,97	57,35
982,351	57,1
982,732	57,56
983,112	58,2
983,493	58,15
983,873	57,4
984,253	59,36
984,633	58,48
985,013	57,87
985,393	57,96
985,773	58
986,153	57,58
986,533	58,95
986,912	57,5
987,292	57,64
987,671	57,99
988,051	59,02
988,43	58,07
988,809	58,59
989,188	58,24
989,567	58,59
989,946	58,82
990,325	58,56
990,704	57,86
991,083	58,56
991,461	57,89
991,84	57,62
992,218	58,54
992,597	58,52
992,975	58,08
993,353	58,41
993,732	57,69
994,11	58,45
994,488	58
994,866	58,32
995,243	58,49
995,621	57,91
995,999	58,77
996,376	58,69
996,754	56,22
997,131	58,85
997,509	58,08
997,886	59,11
998,263	57,72
998,64	58,56
999,017	58,16
999,394	58,19
999,771	58,23
1000,148	59,19
1000,524	59,02
1000,901	59,03
1001,277	59,07
1001,654	58,46
1002,03	58,48
1002,406	58,84
1002,783	58,37
1003,159	57,81
1003,535	58,1
1003,911	58,35
1004,286	58,54
1004,662	59,39
1005,038	58,84
1005,414	58,9
1005,789	59,13
1006,164	59,27
1006,54	59,45
1006,915	60,17
1007,29	58,96
1007,665	58,39
1008,04	58,97
1008,415	58,11
1008,79	58,18
1009,165	58,06
1009,54	58,81
1009,914	59,82
1010,289	59,47
1010,663	59,05
1011,038	58,89
1011,412	60,12
1011,786	59,29
1012,16	59,26
1012,535	59,18
1012,909	59,51
1013,282	58,6
1013,656	58,56
1014,03	59,12
1014,404	59,05
1014,777	58,26
1015,151	59,15
1015,524	59,38
1015,897	59,3
1016,271	58,36
1016,644	59,64
1017,017	59,81
1017,39	58,24
1017,763	60,42
1018,136	57,95
1018,508	59,97
1018,881	59,14
1019,254	59,97
1019,626	59,26
1019,999	58,8
1020,371	58,98
1020,743	59,91
1021,116	59,21
1021,488	59,28
1021,86	58,88
1022,232	59,54
1022,604	59,99
1022,975	59,58
1023,347	60,2
1023,719	59,32
1024,09	59,21
1024,462	59,59
1024,833	59,21
1025,204	60,26
1025,576	59,7
1025,947	60,34
1026,318	58,21
1026,689	59,38
1027,06	59,95
1027,431	59,05
1027,801	60,14
1028,172	58,16
1028,543	59,56
1028,913	58,83
1029,284	60,25
1029,654	59,47
1030,024	59,25
1030,394	60,84
1030,764	58,81
1031,135	58,77
1031,504	59,21
1031,874	59,42
1032,244	58,91
1032,614	60,46
1032,983	60,07
1033,353	59,85
1033,722	59,59
1034,092	59,37
1034,461	59,64
1034,83	59,57
1035,2	59,03
1035,569	60,4
1035,938	59,71
1036,307	60,47
1036,675	59,87
1037,044	60,67
1037,413	59,45
1037,781	59,6
1038,15	59,83
1038,518	59,91
1038,887	60,39
1039,255	59
1039,623	58,69
1039,991	58,91
1040,359	61,51
1040,727	59,66
1041,095	59,94
1041,463	59,72
1041,831	60,75
1042,198	59,49
1042,566	59,52
1042,933	60,11
1043,301	60,13
1043,668	60,17
1044,035	59,32
1044,402	60,76
1044,77	59,98
1045,137	59,59
1045,503	59,15
1045,87	59,65
1046,237	60,85
1046,604	61,41
1046,97	60,67
1047,337	60,07
1047,703	60,07
1048,07	59,68
1048,436	60,19
1048,802	58,93
1049,168	59,05
1049,534	61,25
1049,9	61,02
1050,266	60,76
1050,632	61,57
1050,998	60,62
1051,364	59,55
1051,729	60,48
1052,095	60,4
1052,46	60,25
1052,825	59,34
1053,191	60,29
1053,556	62,58
1053,921	59,62
1054,286	58,8
1054,651	60,33
1055,016	60,65
1055,381	59,49
1055,745	58,88
1056,11	60,17
1056,475	60,18
1056,839	61,06
1057,203	60,83
1057,568	61,79
1057,932	61,06
1058,296	62,33
1058,66	62
1059,024	61,25
1059,388	60,58
1059,752	61,3
1060,116	61,35
1060,48	60,49
1060,843	60,65
1061,207	59,1
1061,57	60,07
1061,934	62,41
1062,297	62,17
1062,66	60,85
1063,023	60,65
1063,386	62,5
1063,749	60,26
1064,112	62,56
1064,475	60,72
1064,838	60,93
1065,201	60,6
1065,563	61,93
1065,926	63,67
1066,288	62,18
1066,651	61,31
1067,013	61,05
1067,375	60,8
1067,737	61,48
1068,099	59,7
1068,461	60,58
1068,823	60,2
1069,185	61,08
1069,547	60,01
1069,909	60,46
1070,27	61,45
1070,632	61,88
1070,993	62,08
1071,355	61,06
1071,716	61,85
1072,077	61,9
1072,438	61,01
1072,799	61,06
1073,16	62,42
1073,521	60,97
1073,882	60,08
1074,243	62,24
1074,603	61,23
1074,964	61,5
1075,325	63,09
1075,685	61,86
1076,045	62,88
1076,406	63,46
1076,766	60,86
1077,126	61,97
1077,486	63,81
1077,846	60,45
1078,206	60,83
1078,566	62,69
1078,925	60,52
1079,285	61,56
1079,645	61,38
1080,004	64,54
1080,364	61,33
1080,723	63,41
1081,082	62,38
1081,442	61,63
1081,801	60,79
1082,16	61,53
1082,519	61,68
1082,878	60,53
1083,237	60,8
1083,595	62,29
1083,954	60,7
1084,313	62,73
1084,671	61,25
1085,03	60,85
1085,388	63,66
1085,746	66,19
1086,104	59,56
1086,463	61,86
1086,821	62,71
1087,179	62,62
1087,537	64,77
1087,894	61,75
1088,252	62,13
1088,61	64,25
1088,967	63,66
1089,325	61,17
1089,682	64,25
1090,04	63,81
1090,397	61,34
1090,754	61,9
1091,111	60,41
1091,469	62,76
1091,826	65,39
1092,182	63,02
1092,539	65,17
1092,896	63,2
1093,253	65,91
1093,609	62,63
1093,966	63,55
1094,322	65,92
1094,679	64,38
1095,035	63,99
1095,391	62,74
1095,748	64,19
1096,104	65,22
1096,46	65
1096,816	62,16
1097,171	64,32
1097,527	62,68
1097,883	64,01
1098,239	65,76
1098,594	64,73
1098,95	59,65
1099,305	63,8
1099,66	64,56
1100,016	64,14
1100,371	63,69
1100,726	64,95
1101,081	62,74
1101,436	66,61
1101,791	62,34
1102,146	65,79
1102,5	63,3
1102,855	64,72
1103,21	62,82
1103,564	62,26
1103,918	64,64
1104,273	61,03
1104,627	67,14
1104,981	68,97
1105,335	62,59
1105,69	60,41
1106,043	67,77
1106,397	63,12
1106,751	63,75
1107,105	65,28
1107,459	64,19
1107,812	65,79
1108,166	64,6
1108,519	68
1108,873	65,31
1109,226	65,46
1109,579	68,41
1109,932	63,25
1110,285	64,56
1110,638	65,67
1110,991	65,03
1111,344	62,84
1111,697	66,46
1112,05	66,09
1112,402	66,71
1112,755	67,31
1113,107	74,26
1113,46	68,39
1113,812	66,62
1114,164	63,49
1114,517	70,66
1114,869	92,05
1115,221	94,44
1115,573	104,38
1115,924	85,06
