Data from H_1_Relative__7__00173.txt Node

Date: Tue Jan 30 10:13:26 CET 2024
User: diatiterra
Spectrometer: HDX00911
Trigger mode: 0
Integration Time (sec): 6,000000E-3
Scans to average: 2
Nonlinearity correction enabled: false
Boxcar width: 0
Storing dark spectrum: false
XAxis mode: Wavelengths
Number of Pixels in Spectrum: 2068
>>>>>Begin Spectral Data<<<<<
194,468	98,34
195,025	112,9
195,581	100,76
196,138	97,45
196,694	89,55
197,251	78,85
197,807	80
198,363	79,92
198,919	86,81
199,474	85,59
200,03	80,71
200,586	88,55
201,141	89,5
201,696	80,67
202,251	88,06
202,806	83,83
203,361	82,52
203,916	83,82
204,471	82,18
205,025	88,7
205,58	88,94
206,134	74,9
206,688	89,27
207,242	99,1
207,796	78,81
208,35	94,06
208,904	85,89
209,457	85,66
210,011	89,96
210,564	83,78
211,117	88,94
211,67	80,57
212,223	82,07
212,776	98,31
213,329	86,08
213,881	95,67
214,434	81,97
214,986	94,2
215,538	92,13
216,09	89,16
216,642	84,3
217,194	110,53
217,746	84,46
218,297	86,13
218,849	84,79
219,4	90,48
219,951	86,73
220,502	88,72
221,053	92,8
221,604	87,4
222,155	81,78
222,705	81,7
223,256	82,4
223,806	85
224,356	100
224,906	88,11
225,456	79,83
226,006	94,2
226,556	83,19
227,106	80,91
227,655	95,35
228,204	92,76
228,754	86,92
229,303	96,4
229,852	86,46
230,401	81,61
230,949	80,14
231,498	88,39
232,047	93,44
232,595	84,34
233,143	88,16
233,691	86,93
234,239	80,53
234,787	90,13
235,335	72,73
235,883	91,44
236,43	84,75
236,978	81,3
237,525	83,4
238,072	82,38
238,619	76,23
239,166	84,91
239,713	91,98
240,26	83,06
240,806	86,64
241,353	90,6
241,899	79,42
242,445	87,45
242,991	85,25
243,537	85,28
244,083	82,81
244,629	74,45
245,174	81,28
245,72	77,61
246,265	88,24
246,81	94,67
247,355	80,66
247,9	93,75
248,445	75,4
248,99	82,13
249,534	80
250,079	91,2
250,623	90,27
251,168	97,96
251,712	78,6
252,256	79,34
252,8	94,25
253,343	94,74
253,887	87,88
254,43	79,26
254,974	83,6
255,517	82,21
256,06	79,32
256,603	88,48
257,146	85,38
257,689	88,56
258,232	81,9
258,774	79,3
259,317	84,48
259,859	87,14
260,401	89,25
260,943	81,33
261,485	97,73
262,027	79,57
262,569	89,81
263,11	83,63
263,652	78,32
264,193	91,16
264,734	85,65
265,275	80,69
265,816	81,2
266,357	73,03
266,898	88,46
267,438	84,68
267,979	83,19
268,519	94,23
269,059	67,98
269,6	85,84
270,14	83,62
270,68	76,64
271,219	88,26
271,759	82,97
272,298	76,8
272,838	78,09
273,377	93,24
273,916	88,33
274,455	75,38
274,994	82,95
275,533	83,65
276,072	83,4
276,61	88,6
277,149	78,33
277,687	87,71
278,225	76,54
278,763	79,01
279,301	86,94
279,839	80,74
280,377	75,51
280,914	82,41
281,452	81,71
281,989	84,71
282,526	77,08
283,064	78,54
283,601	91,25
284,137	83,11
284,674	77,41
285,211	84,72
285,747	84,65
286,284	84,48
286,82	85,48
287,356	75,56
287,892	73,25
288,428	74,68
288,964	87,55
289,5	86,51
290,035	79,67
290,571	85,99
291,106	84,62
291,641	78,6
292,176	81,2
292,711	87,07
293,246	79,31
293,781	70,43
294,315	80,47
294,85	71,31
295,384	89,62
295,918	79,2
296,453	84,62
296,987	82,63
297,52	76,92
298,054	78,73
298,588	74,8
299,121	82,43
299,655	77,36
300,188	73,31
300,721	76,79
301,254	84,75
301,787	86,4
302,32	78,21
302,853	84,68
303,385	76,47
303,918	81,78
304,45	74,24
304,982	78,8
305,514	77,24
306,046	88,5
306,578	81,74
307,11	80,3
307,641	84,03
308,173	83,48
308,704	86,59
309,236	79,13
309,767	78,75
310,298	84,4
310,829	77,91
311,359	77,88
311,89	76,15
312,421	65,71
312,951	78,66
313,481	86,26
314,012	68,6
314,542	79,73
315,072	84,98
315,601	77,82
316,131	86,27
316,661	84,94
317,19	71,43
317,72	79,66
318,249	86,24
318,778	85,6
319,307	79,44
319,836	85,2
320,365	93,62
320,893	91,34
321,422	75,78
321,95	87,83
322,479	81,12
323,007	71,31
323,535	83,02
324,063	80,54
324,591	85,82
325,118	75,76
325,646	89,22
326,173	87,05
326,701	73,31
327,228	86,12
327,755	79,52
328,282	92,27
328,809	78,07
329,336	85,96
329,862	82,85
330,389	77,53
330,915	73,64
331,441	96,62
331,968	82,47
332,494	84,89
333,02	81,17
333,545	73,28
334,071	87,39
334,597	78,51
335,122	84,23
335,648	85,2
336,173	85,59
336,698	83,26
337,223	87,32
337,748	77,65
338,272	86,27
338,797	82,07
339,322	83,76
339,846	82,73
340,37	84,72
340,894	81,43
341,419	76,21
341,942	74,81
342,466	73,89
342,99	72,62
343,514	85,83
344,037	75,19
344,56	82,87
345,084	79,66
345,607	79,25
346,13	79,03
346,653	69,37
347,175	84,75
347,698	80,22
348,221	85,43
348,743	88,3
349,265	82,86
349,787	71,78
350,309	73,36
350,831	76,06
351,353	78,37
351,875	73,26
352,397	69,49
352,918	84,86
353,439	82,47
353,961	67,13
354,482	73,49
355,003	67,82
355,524	77,03
356,044	74,18
356,565	65,28
357,086	66,23
357,606	68
358,126	71,24
358,646	67,59
359,167	68,44
359,687	64,69
360,206	78,91
360,726	62,78
361,246	72,45
361,765	65,37
362,285	69,13
362,804	56,4
363,323	67,27
363,842	69,64
364,361	63,47
364,88	64,26
365,398	67,07
365,917	64,5
366,435	60,33
366,954	65,35
367,472	63,66
367,99	63,74
368,508	70,3
369,026	64,59
369,544	68,99
370,061	60,86
370,579	68,23
371,096	59,16
371,613	64,88
372,131	59,53
372,648	64,47
373,165	64,12
373,681	58,38
374,198	57,47
374,715	55,15
375,231	59,01
375,747	58,27
376,264	55,58
376,78	60,19
377,296	57,86
377,812	56,61
378,327	64,79
378,843	59,95
379,359	56,61
379,874	57,38
380,389	55,71
380,905	57,11
381,42	47,55
381,935	60,99
382,449	53,12
382,964	53,5
383,479	53,65
383,993	57,4
384,508	55,58
385,022	54,24
385,536	46,1
386,05	51,95
386,564	49,65
387,078	50,44
387,592	49,84
388,105	49,17
388,619	44,1
389,132	54,08
389,645	45,62
390,158	46,3
390,671	45,23
391,184	48,41
391,697	44,95
392,21	45,2
392,722	45,16
393,235	42,99
393,747	44,24
394,259	43,56
394,771	44,65
395,283	43,66
395,795	42
396,307	42,38
396,818	40,81
397,33	39,74
397,841	39,03
398,353	36,52
398,864	36,41
399,375	36,36
399,886	38,08
400,397	36,89
400,907	36,1
401,418	35,16
401,928	35,25
402,439	32,22
402,949	30,59
403,459	32,09
403,969	30,69
404,479	35,55
404,989	31,3
405,498	29,29
406,008	30,83
406,517	27,46
407,027	26,03
407,536	27,36
408,045	25,19
408,554	23,4
409,063	25,3
409,572	24,51
410,08	21,8
410,589	21,65
411,097	21,64
411,606	20,02
412,114	18,48
412,622	18,44
413,13	19,1
413,638	17,64
414,145	19,48
414,653	16,99
415,16	16,67
415,668	16,74
416,175	15,93
416,682	14,67
417,189	14,8
417,696	15,43
418,203	15,04
418,71	14,5
419,216	14,48
419,723	14,74
420,229	14,55
420,735	13,68
421,242	13,38
421,748	13,19
422,254	14,1
422,759	13,1
423,265	13,08
423,771	12,42
424,276	12,38
424,781	12,43
425,287	12,89
425,792	11,95
426,297	12,62
426,802	11,45
427,306	12,26
427,811	11,14
428,316	11,67
428,82	11,36
429,324	11,56
429,829	11,73
430,333	11,65
430,837	11,53
431,34	11,14
431,844	10,98
432,348	11,58
432,851	11,74
433,355	10,75
433,858	11,38
434,361	11,1
434,864	11,13
435,367	11,17
435,87	10,44
436,373	10,29
436,876	11,81
437,378	11,05
437,88	10,34
438,383	10,6
438,885	10,33
439,387	9,5
439,889	10,25
440,391	10,27
440,892	10,36
441,394	10,5
441,896	10,31
442,397	10,82
442,898	10,45
443,399	10,45
443,9	10,2
444,401	10,22
444,902	10,33
445,403	10,21
445,903	10,07
446,404	10,92
446,904	10,11
447,405	10,19
447,905	10,2
448,405	9,85
448,905	11,01
449,404	10,11
449,904	10,3
450,404	10,73
450,903	10,21
451,403	10,37
451,902	10,59
452,401	10,4
452,9	11,08
453,399	10,43
453,898	10,22
454,396	10,21
454,895	10,09
455,393	9,85
455,892	10,67
456,39	10,76
456,888	10,69
457,386	10,21
457,884	9,94
458,382	10,36
458,879	10,64
459,377	10,81
459,874	10,33
460,372	10,18
460,869	10,59
461,366	10,32
461,863	10,54
462,36	9,97
462,857	10,05
463,353	10,18
463,85	10,37
464,346	10,48
464,843	10,64
465,339	9,99
465,835	10,1
466,331	9,8
466,827	10,19
467,323	9,8
467,818	9,74
468,314	10,08
468,809	9,49
469,305	9,69
469,8	10,61
470,295	10,41
470,79	9,78
471,285	10,18
471,78	9,47
472,274	10,01
472,769	10,04
473,263	9,67
473,758	10,4
474,252	9,8
474,746	9,99
475,24	9,79
475,734	10,1
476,228	9,68
476,721	10,18
477,215	9,86
477,708	10,01
478,202	9,75
478,695	9,89
479,188	10,22
479,681	10,01
480,174	9,78
480,667	9,9
481,159	9,92
481,652	9,96
482,144	10,03
482,637	9,74
483,129	9,53
483,621	10,19
484,113	9,77
484,605	9,87
485,097	10,47
485,588	10,54
486,08	9,95
486,571	10,08
487,063	10,25
487,554	10,18
488,045	10
488,536	9,99
489,027	10,56
489,518	9,81
490,008	10,18
490,499	10,24
490,989	10,1
491,48	10,13
491,97	9,97
492,46	10,2
492,95	10,37
493,44	10,12
493,93	10,22
494,419	10,57
494,909	10,31
495,398	10,88
495,888	10,62
496,377	10,61
496,866	10,9
497,355	10,55
497,844	10,71
498,333	11,18
498,821	10,89
499,31	10,74
499,798	11,55
500,287	11,36
500,775	11,28
501,263	11,73
501,751	11,19
502,239	11,64
502,727	11,96
503,215	12,32
503,702	11,94
504,19	12,43
504,677	12,23
505,164	12,28
505,651	12,38
506,139	12,88
506,625	12,53
507,112	13,16
507,599	13,23
508,086	13,6
508,572	13,83
509,058	13,96
509,545	14,22
510,031	14,28
510,517	14,51
511,003	14,9
511,489	14,9
511,974	15,4
512,46	15,87
512,946	16,07
513,431	15,85
513,916	16,62
514,401	16,75
514,887	17,13
515,371	16,91
515,856	17,82
516,341	18,01
516,826	18,29
517,31	19,21
517,795	18,97
518,279	19,23
518,763	19,79
519,247	20,38
519,731	20,67
520,215	20,95
520,699	21,94
521,182	21,42
521,666	21,68
522,149	22,4
522,633	22,79
523,116	22,99
523,599	23,46
524,082	23,61
524,565	24,39
525,048	24,31
525,53	24,72
526,013	25,71
526,495	25,61
526,978	25,57
527,46	26,85
527,942	27
528,424	27,52
528,906	26,7
529,388	27,47
529,87	27,57
530,351	27,51
530,833	27,66
531,314	28,5
531,795	28,74
532,277	28,38
532,758	28,99
533,238	29,53
533,719	29,06
534,2	29,33
534,681	30,22
535,161	30,52
535,642	29,89
536,122	30,03
536,602	30,2
537,082	29,77
537,562	30,51
538,042	30,25
538,522	29,95
539,001	30,97
539,481	30,11
539,96	30,56
540,44	30,5
540,919	30,79
541,398	30,63
541,877	30,72
542,356	31,52
542,835	30,79
543,313	31,28
543,792	31,03
544,27	31,12
544,749	31,07
545,227	30,98
545,705	31,58
546,183	31,54
546,661	31,32
547,139	31,59
547,616	31,38
548,094	32,11
548,571	31,38
549,049	32,04
549,526	32,02
550,003	31,62
550,48	32,35
550,957	31,73
551,434	31,76
551,911	31,59
552,387	32,11
552,864	31,84
553,34	31,84
553,817	31,6
554,293	31,9
554,769	31,53
555,245	32,29
555,721	32,02
556,197	31,7
556,672	31,97
557,148	31,5
557,623	31,79
558,099	31,91
558,574	31,61
559,049	31,91
559,524	31,02
559,999	31,03
560,474	31,3
560,948	30,98
561,423	30,85
561,897	30,63
562,372	31,21
562,846	30,4
563,32	30,82
563,794	30,33
564,268	29,94
564,742	29,92
565,216	29,74
565,69	29,86
566,163	29,8
566,636	29,14
567,11	29,74
567,583	29,31
568,056	27,99
568,529	28,21
569,002	28,35
569,475	28,26
569,947	27,77
570,42	27,44
570,892	27,61
571,365	27,24
571,837	26,84
572,309	27,25
572,781	26,52
573,253	26,27
573,725	26,22
574,197	25,58
574,668	25,58
575,14	25,59
575,611	25,42
576,082	24,99
576,554	24,98
577,025	24,34
577,496	24,42
577,967	24,61
578,437	24,59
578,908	24,36
579,379	23,62
579,849	23,26
580,319	23,49
580,79	23,34
581,26	23,32
581,73	22,89
582,2	23,06
582,669	22,85
583,139	22,72
583,609	22,24
584,078	22,29
584,548	22,22
585,017	22,16
585,486	21,52
585,955	21,54
586,424	21,7
586,893	21,68
587,362	21,54
587,83	21,24
588,299	21,67
588,767	20,96
589,236	21,46
589,704	20,92
590,172	20,77
590,64	20,72
591,108	20,88
591,576	20,93
592,043	20,57
592,511	20,38
592,978	20,52
593,446	20,59
593,913	20,31
594,38	20,47
594,847	20,14
595,314	20,08
595,781	20,38
596,248	20,13
596,715	20,38
597,181	20,18
597,647	20,17
598,114	20,14
598,58	19,88
599,046	19,86
599,512	19,71
599,978	19,39
600,444	20,17
600,91	19,94
601,375	19,62
601,841	19,62
602,306	19,56
602,771	19,51
603,236	19,22
603,702	19,36
604,167	19,14
604,631	19,43
605,096	19,06
605,561	18,84
606,025	18,85
606,49	18,4
606,954	18,91
607,418	18,61
607,882	18,53
608,347	18,65
608,81	18,5
609,274	18,1
609,738	18,48
610,202	17,9
610,665	17,82
611,128	17,91
611,592	17,36
612,055	17,62
612,518	17,74
612,981	17,45
613,444	17,32
613,907	17,3
614,369	17,28
614,832	16,93
615,294	16,92
615,757	16,67
616,219	16,45
616,681	16,74
617,143	16,65
617,605	16,31
618,067	16,3
618,529	16,12
618,99	16,26
619,452	16,05
619,913	16,24
620,375	15,99
620,836	15,86
621,297	15,82
621,758	15,66
622,219	15,57
622,68	15,72
623,14	15,5
623,601	15,68
624,061	15,39
624,522	15,46
624,982	15,45
625,442	15,23
625,902	15,21
626,362	15,24
626,822	15,59
627,282	15,1
627,742	15,18
628,201	15,24
628,661	15,42
629,12	15,2
629,579	15,06
630,038	15,18
630,497	15,19
630,956	15,06
631,415	15,14
631,874	15,08
632,332	15,28
632,791	14,95
633,249	14,93
633,708	14,99
634,166	14,83
634,624	14,68
635,082	14,67
635,54	14,72
635,998	14,61
636,455	14,51
636,913	14,08
637,37	14,41
637,828	14,12
638,285	14,11
638,742	13,82
639,199	13,75
639,656	13,95
640,113	13,61
640,57	13,31
641,027	13,31
641,483	13,14
641,94	13,08
642,396	12,86
642,852	12,66
643,309	12,85
643,765	12,8
644,221	12,33
644,676	12,17
645,132	12,27
645,588	12,05
646,043	12
646,499	11,96
646,954	11,73
647,409	11,71
647,864	11,56
648,319	11,4
648,774	11,29
649,229	11,36
649,684	11,3
650,139	11,07
650,593	10,99
651,047	10,97
651,502	10,9
651,956	10,97
652,41	10,76
652,864	10,76
653,318	10,61
653,772	10,78
654,225	10,69
654,679	10,59
655,133	10,58
655,586	10,55
656,039	10,4
656,492	10,44
656,946	10,45
657,399	10,04
657,851	10,39
658,304	10,25
658,757	9,99
659,209	10,01
659,662	9,93
660,114	9,93
660,567	9,64
661,019	9,83
661,471	9,6
661,923	9,53
662,375	9,49
662,826	9,29
663,278	9,18
663,73	9,34
664,181	9,34
664,632	9,26
665,084	9,33
665,535	9,26
665,986	9,24
666,437	9,29
666,888	9,16
667,338	9,18
667,789	9,01
668,24	9,15
668,69	9,05
669,14	9,02
669,591	9,19
670,041	9,27
670,491	9,2
670,941	9,27
671,391	9,25
671,84	9,28
672,29	9,33
672,74	9,31
673,189	9,65
673,638	9,59
674,088	9,78
674,537	9,81
674,986	9,74
675,435	9,72
675,883	10,09
676,332	9,99
676,781	10,14
677,229	10,22
677,678	10,33
678,126	10,17
678,574	10,46
679,022	10,49
679,47	10,59
679,918	10,9
680,366	10,75
680,814	11,15
681,261	10,96
681,709	11,21
682,156	11,14
682,604	11,5
683,051	11,51
683,498	11,69
683,945	11,88
684,392	11,87
684,839	12,1
685,286	12,05
685,732	12,18
686,179	12,31
686,625	12,59
687,071	12,72
687,518	12,95
687,964	13,19
688,41	13,35
688,856	13,59
689,301	13,76
689,747	14,1
690,193	14,5
690,638	14,96
691,084	15,02
691,529	15,59
691,974	15,76
692,419	16,63
692,864	17,06
693,309	17,83
693,754	18,02
694,199	18,61
694,643	19,29
695,088	19,8
695,532	20,61
695,977	21,19
696,421	22,03
696,865	22,45
697,309	23,18
697,753	24,07
698,197	25,07
698,64	25,65
699,084	26,08
699,527	26,98
699,971	27,64
700,414	28,55
700,857	28,78
701,3	29,97
701,743	30,37
702,186	31,41
702,629	31,95
703,072	32,79
703,515	33,46
703,957	34,04
704,399	34,44
704,842	35,66
705,284	36,32
705,726	37,1
706,168	37,48
706,61	38,31
707,052	38,92
707,494	39,62
707,935	39,9
708,377	40,95
708,818	41,1
709,26	42,27
709,701	42,59
710,142	43,51
710,583	44,09
711,024	44,29
711,465	45,08
711,905	45,6
712,346	45,76
712,787	46,38
713,227	47,56
713,667	47,94
714,108	48,5
714,548	49,44
714,988	49,64
715,428	49,93
715,868	50,73
716,307	51,21
716,747	51,67
717,186	52,3
717,626	52,81
718,065	53,29
718,504	53,47
718,944	54,25
719,383	54,46
719,822	54,88
720,261	55,45
720,699	56,15
721,138	56,39
721,576	56,72
722,015	57,19
722,453	57,63
722,892	58,66
723,33	58,89
723,768	59,07
724,206	59,37
724,644	59,49
725,081	59,7
725,519	59,6
725,957	60,15
726,394	60,12
726,832	60,77
727,269	61,81
727,706	61,84
728,143	62,15
728,58	62,23
729,017	62,81
729,454	62,76
729,89	62,9
730,327	63,37
730,764	63,6
731,2	64
731,636	63,89
732,072	63,88
732,509	64,57
732,945	65,06
733,38	64,59
733,816	64,82
734,252	65,15
734,688	65,35
735,123	65,65
735,559	65,36
735,994	65,85
736,429	65,46
736,864	66,3
737,299	66,3
737,734	66,07
738,169	66,47
738,604	66,52
739,038	66,32
739,473	67,28
739,907	66,83
740,342	67,33
740,776	67,45
741,21	66,68
741,644	67,28
742,078	66,77
742,512	67,04
742,946	67,18
743,379	67,11
743,813	67,7
744,246	67,87
744,68	67,51
745,113	67,1
745,546	67
745,979	67,4
746,412	67,57
746,845	67
747,278	67,29
747,711	67,53
748,143	67,71
748,576	67,72
749,008	66,99
749,441	67,63
749,873	67,67
750,305	68,06
750,737	67,34
751,169	67,42
751,601	67,59
752,032	67,45
752,464	67,74
752,896	67,22
753,327	67,98
753,758	67,45
754,19	67,71
754,621	67,51
755,052	67,31
755,483	67,27
755,914	66,93
756,344	67,24
756,775	67,26
757,206	67,12
757,636	67,1
758,066	66,71
758,497	67,13
758,927	67,48
759,357	67,13
759,787	67,25
760,217	66,59
760,647	66,67
761,076	66,51
761,506	66,62
761,935	67,3
762,365	66,65
762,794	66,29
763,223	66,35
763,653	67
764,082	66,86
764,51	66,43
764,939	67,04
765,368	66,82
765,797	66,81
766,225	65,85
766,654	66,32
767,082	66,71
767,51	66,75
767,938	66,23
768,367	66,73
768,795	66,52
769,222	66,1
769,65	66,57
770,078	66,64
770,505	66,5
770,933	66,34
771,36	66,42
771,788	66,11
772,215	66,42
772,642	66,57
773,069	65,61
773,496	66,22
773,923	66
774,349	66,08
774,776	66,18
775,203	66,33
775,629	66,47
776,055	65,82
776,482	66,05
776,908	65,9
777,334	65,96
777,76	66,13
778,186	65,79
778,611	66,29
779,037	65,98
779,463	66,42
779,888	65,78
780,314	65,46
780,739	65,85
781,164	65,69
781,589	65,93
782,014	65,24
782,439	65,83
782,864	65,58
783,289	66,15
783,713	65,32
784,138	65,87
784,562	65,66
784,987	65,61
785,411	65,04
785,835	65,95
786,259	65,96
786,683	66,02
787,107	66,03
787,531	65,16
787,954	65,52
788,378	65,89
788,802	65,56
789,225	65,77
789,648	65,44
790,071	65,54
790,495	65,33
790,918	65,96
791,34	65,04
791,763	65,14
792,186	65,61
792,609	65,37
793,031	65,08
793,454	65,34
793,876	65,41
794,298	65,79
794,721	65,64
795,143	64,73
795,565	65,76
795,986	65,04
796,408	64,92
796,83	65,55
797,252	65,34
797,673	65,18
798,094	65,83
798,516	65,12
798,937	64,88
799,358	65,43
799,779	65,83
800,2	65,75
800,621	65,31
801,042	65,85
801,462	65,6
801,883	65,05
802,303	65,13
802,724	65
803,144	65,51
803,564	65,74
803,984	65,52
804,404	65,23
804,824	65,43
805,244	65,87
805,664	65,46
806,084	65,01
806,503	65,07
806,923	65,22
807,342	65,87
807,761	65,32
808,18	65,77
808,599	65,79
809,018	65,35
809,437	65,3
809,856	65,1
810,275	65,55
810,693	65,49
811,112	65,21
811,53	65,45
811,949	65,74
812,367	65,72
812,785	65,06
813,203	64,91
813,621	65,6
814,039	65,6
814,457	65,24
814,874	65,06
815,292	65,11
815,709	64,72
816,127	65,37
816,544	64,37
816,961	65,12
817,378	65,59
817,795	64,87
818,212	64,76
818,629	64,88
819,046	65,47
819,462	65,48
819,879	65,16
820,295	64,95
820,712	65,07
821,128	65,25
821,544	65,17
821,96	65,03
822,376	65,84
822,792	65,25
823,208	65,33
823,624	65,37
824,039	64,87
824,455	65,31
824,87	64,71
825,286	65,1
825,701	64,53
826,116	64,96
826,531	64,51
826,946	64,74
827,361	64,86
827,776	64,54
828,19	65,16
828,605	64,27
829,02	65,08
829,434	64,45
829,848	64,82
830,263	65,4
830,677	64,77
831,091	64,68
831,505	64,65
831,919	64,77
832,332	65,11
832,746	64,72
833,16	64,66
833,573	64,54
833,987	64,06
834,4	64,68
834,813	64,27
835,226	64,68
835,639	65
836,052	65,4
836,465	65,07
836,878	65,04
837,29	64,68
837,703	64,96
838,116	65,05
838,528	64,77
838,94	64,61
839,352	65,22
839,765	64,39
840,177	64,84
840,589	64,84
841	64,83
841,412	65,24
841,824	65,01
842,235	65,1
842,647	64,42
843,058	65,05
843,47	64,62
843,881	64,85
844,292	64,45
844,703	64,55
845,114	64,73
845,525	64,68
845,935	64,9
846,346	64,95
846,757	64,66
847,167	64,72
847,577	64,24
847,988	65,03
848,398	64,54
848,808	64,9
849,218	64,44
849,628	64,87
850,038	64,43
850,448	64,42
850,857	64,49
851,267	65,36
851,676	64,84
852,086	65,01
852,495	64,66
852,904	65,03
853,313	64,25
853,722	64,44
854,131	64,36
854,54	64,78
854,949	64,44
855,357	65
855,766	65,1
856,174	65
856,583	64,78
856,991	64,73
857,399	64,21
857,807	64,82
858,215	64,53
858,623	65
859,031	64,29
859,439	64,74
859,846	64,89
860,254	64,94
860,661	64,61
861,069	64,56
861,476	64,32
861,883	64,22
862,29	64,9
862,697	64,88
863,104	64,57
863,511	64,54
863,918	64,24
864,325	64,79
864,731	64,33
865,138	64,98
865,544	65,18
865,95	64,68
866,357	64,94
866,763	64,78
867,169	65,16
867,575	64,11
867,98	64,62
868,386	64,91
868,792	64,94
869,197	64,5
869,603	64,49
870,008	64,52
870,414	65,12
870,819	64,3
871,224	64,51
871,629	64,37
872,034	64,47
872,439	63,98
872,844	64,26
873,248	64,57
873,653	64,7
874,057	64,71
874,462	64,73
874,866	64,71
875,27	64,88
875,674	64,3
876,078	64,48
876,482	64,02
876,886	64,55
877,29	64,48
877,694	64,89
878,097	64,56
878,501	64,7
878,904	64,27
879,308	64,1
879,711	63,93
880,114	64,67
880,517	64,27
880,92	64,42
881,323	64,52
881,726	64,37
882,128	64,94
882,531	64,55
882,934	64,95
883,336	64,53
883,738	64,78
884,141	64,15
884,543	65,1
884,945	64,32
885,347	65,03
885,749	64,11
886,151	64,8
886,552	63,96
886,954	64,27
887,355	64,63
887,757	64,57
888,158	64,71
888,56	64,57
888,961	64,42
889,362	63,87
889,763	64,54
890,164	64,42
890,565	64,72
890,965	64,03
891,366	64,9
891,767	64,61
892,167	64,2
892,567	64,5
892,968	63,99
893,368	64,14
893,768	63,95
894,168	64,72
894,568	63,82
894,968	64,53
895,368	64,66
895,767	64,79
896,167	64,51
896,566	64,37
896,966	64,21
897,365	64,26
897,764	64,47
898,164	63,76
898,563	64,89
898,962	64,21
899,361	64,4
899,759	64,79
900,158	64,37
900,557	64,11
900,955	63,99
901,354	64,35
901,752	64,65
902,15	64,49
902,548	64,42
902,947	64,65
903,345	64,36
903,742	64,74
904,14	63,98
904,538	64,51
904,936	64,14
905,333	64,73
905,731	64,59
906,128	64,49
906,525	64,42
906,923	64,97
907,32	64,22
907,717	64,23
908,114	64,26
908,511	64,63
908,907	64,47
909,304	64,89
909,701	64,44
910,097	64,39
910,494	64,99
910,89	64,4
911,286	64,48
911,682	64,74
912,078	64,87
912,474	64,46
912,87	64,15
913,266	64,4
913,662	64,25
914,058	64,15
914,453	64,77
914,849	64,13
915,244	64,54
915,639	64,65
916,034	65,46
916,43	64,2
916,825	65,46
917,22	64,23
917,614	64,77
918,009	64,47
918,404	64,68
918,798	64,35
919,193	64,04
919,587	64,12
919,982	64,44
920,376	64,75
920,77	64,55
921,164	64,58
921,558	64,6
921,952	64,23
922,346	64,41
922,74	64,6
923,133	64,32
923,527	63,65
923,92	64,16
924,314	63,4
924,707	64,02
925,1	64,2
925,493	64,25
925,886	64,32
926,279	63,18
926,672	63,64
927,065	63,58
927,457	63,87
927,85	63,76
928,243	63,98
928,635	63,87
929,027	63,92
929,42	64,05
929,812	64,1
930,204	64,79
930,596	64,41
930,988	64,55
931,379	63,68
931,771	64,62
932,163	63,65
932,554	64,32
932,946	63,86
933,337	63,43
933,729	63,54
934,12	64,6
934,511	63,41
934,902	63,89
935,293	64,13
935,684	63,72
936,075	64,04
936,465	64,46
936,856	64,41
937,246	63,56
937,637	64,85
938,027	63,9
938,417	63,96
938,808	64,03
939,198	63,91
939,588	64,4
939,978	64,42
940,368	63,66
940,757	62,92
941,147	63,87
941,537	63,73
941,926	64,32
942,315	63,86
942,705	63,77
943,094	63,97
943,483	63,63
943,872	64,36
944,261	62,98
944,65	63,54
945,039	63,52
945,428	63,85
945,816	65,01
946,205	63,36
946,593	63,76
946,982	62,98
947,37	64
947,758	63,34
948,146	63,64
948,534	63,28
948,922	63,64
949,31	62,44
949,698	63,56
950,086	63,37
950,473	63,56
950,861	61,96
951,248	63,13
951,636	62,46
952,023	62,43
952,41	62,1
952,797	62,44
953,184	62,4
953,571	62,6
953,958	62,9
954,345	62,47
954,731	62,03
955,118	62,11
955,505	61,82
955,891	62,98
956,277	61,77
956,664	62,77
957,05	61,84
957,436	61,72
957,822	62,06
958,208	62,06
958,594	62,2
958,979	61,9
959,365	61,9
959,751	61,75
960,136	61,39
960,522	62,14
960,907	62,26
961,292	62,26
961,677	61,07
962,062	61,51
962,447	61,12
962,832	60,61
963,217	62,03
963,602	61,8
963,986	61,62
964,371	61,51
964,756	61,17
965,14	61,92
965,524	61,95
965,908	61,13
966,293	61,46
966,677	61,16
967,061	61,77
967,445	61,71
967,828	61,78
968,212	61,97
968,596	61,54
968,979	61,22
969,363	62,33
969,746	61,02
970,129	62,13
970,513	60,89
970,896	61,35
971,279	61,3
971,662	61,52
972,045	61,29
972,428	61,42
972,81	62,29
973,193	61,96
973,575	61,51
973,958	61,1
974,34	61,52
974,723	60,89
975,105	61,52
975,487	61,8
975,869	61,66
976,251	61,2
976,633	61,79
977,015	62,08
977,396	61,84
977,778	61,63
978,16	62,89
978,541	61,45
978,922	61,03
979,304	61,05
979,685	61,06
980,066	61,63
980,447	61,33
980,828	60,85
981,209	61,49
981,59	62,39
981,97	60,58
982,351	61
982,732	61,57
983,112	61,98
983,493	61,18
983,873	61,19
984,253	61,79
984,633	61,31
985,013	61,57
985,393	62,29
985,773	61,72
986,153	61,57
986,533	61,71
986,912	61,52
987,292	61,35
987,671	61,23
988,051	61,56
988,43	61,46
988,809	62,5
989,188	61,55
989,567	61,49
989,946	61,17
990,325	62,27
990,704	61,96
991,083	61,59
991,461	62,69
991,84	61,29
992,218	62,09
992,597	62,61
992,975	62,08
993,353	61,82
993,732	61,67
994,11	61,9
994,488	61,93
994,866	62,2
995,243	62,24
995,621	62,04
995,999	61,57
996,376	62,54
996,754	61,69
997,131	61,93
997,509	62,49
997,886	62,49
998,263	61,92
998,64	61,82
999,017	61,46
999,394	62,59
999,771	62,13
1000,148	61,99
1000,524	62,43
1000,901	62,59
1001,277	63,23
1001,654	62,09
1002,03	62,09
1002,406	64,18
1002,783	61,74
1003,159	62,49
1003,535	61,15
1003,911	61,63
1004,286	61,71
1004,662	63,11
1005,038	62,59
1005,414	63,19
1005,789	62,19
1006,164	62,37
1006,54	63,07
1006,915	62,71
1007,29	63,16
1007,665	61,2
1008,04	62,47
1008,415	62,66
1008,79	62,53
1009,165	62,86
1009,54	62,63
1009,914	63,33
1010,289	63,05
1010,663	63,22
1011,038	62,78
1011,412	63,1
1011,786	63,41
1012,16	63,97
1012,535	62,71
1012,909	63,43
1013,282	62,4
1013,656	62,99
1014,03	64,15
1014,404	62,51
1014,777	62,22
1015,151	62,67
1015,524	63,03
1015,897	63,22
1016,271	62,31
1016,644	63,17
1017,017	63,62
1017,39	62,74
1017,763	64,82
1018,136	63,17
1018,508	63,23
1018,881	62,94
1019,254	63,4
1019,626	64,08
1019,999	62,22
1020,371	63,14
1020,743	63,67
1021,116	63,76
1021,488	63,23
1021,86	63,45
1022,232	63,35
1022,604	64,22
1022,975	63,12
1023,347	64,59
1023,719	63,71
1024,09	64,65
1024,462	63,08
1024,833	64,02
1025,204	65,45
1025,576	62,93
1025,947	63,59
1026,318	63,18
1026,689	63,68
1027,06	65,01
1027,431	63,89
1027,801	66,18
1028,172	64,01
1028,543	63,92
1028,913	63,77
1029,284	63,54
1029,654	63,86
1030,024	64,84
1030,394	64,66
1030,764	62,85
1031,135	65,51
1031,504	64,93
1031,874	63,79
1032,244	64,02
1032,614	64,18
1032,983	63,93
1033,353	64,07
1033,722	63,68
1034,092	65,49
1034,461	64,38
1034,83	64,39
1035,2	64,24
1035,569	64,73
1035,938	63,56
1036,307	65,15
1036,675	63,61
1037,044	65,61
1037,413	64,07
1037,781	63,05
1038,15	64,62
1038,518	65,09
1038,887	65,35
1039,255	64,44
1039,623	64,11
1039,991	65,01
1040,359	65,42
1040,727	64,22
1041,095	64,81
1041,463	65,06
1041,831	65,2
1042,198	63,75
1042,566	63,63
1042,933	64,78
1043,301	64,84
1043,668	65,24
1044,035	64,81
1044,402	66,16
1044,77	64,27
1045,137	64,2
1045,503	64,7
1045,87	65,25
1046,237	64,86
1046,604	65,1
1046,97	63,91
1047,337	64,02
1047,703	66,32
1048,07	65,02
1048,436	65,46
1048,802	63,96
1049,168	64,8
1049,534	64,47
1049,9	66,28
1050,266	65,53
1050,632	64,2
1050,998	65,06
1051,364	65,13
1051,729	65,05
1052,095	65,52
1052,46	64,37
1052,825	66,62
1053,191	65,4
1053,556	65,84
1053,921	65,68
1054,286	64
1054,651	66,31
1055,016	65,78
1055,381	65,48
1055,745	63,93
1056,11	64,06
1056,475	65
1056,839	67,15
1057,203	65,62
1057,568	64,87
1057,932	67,87
1058,296	67,71
1058,66	65,82
1059,024	64,14
1059,388	65,36
1059,752	65,88
1060,116	65,67
1060,48	66,19
1060,843	66,26
1061,207	65,23
1061,57	66,05
1061,934	66,6
1062,297	65,74
1062,66	66,61
1063,023	65,67
1063,386	66,78
1063,749	68,92
1064,112	66,58
1064,475	65,84
1064,838	64,43
1065,201	66,71
1065,563	67,41
1065,926	67,72
1066,288	67,97
1066,651	65,27
1067,013	64,83
1067,375	67,62
1067,737	65,85
1068,099	65,61
1068,461	66,31
1068,823	66,35
1069,185	66,58
1069,547	65,16
1069,909	65,49
1070,27	65,54
1070,632	67,05
1070,993	65,42
1071,355	66,67
1071,716	65,89
1072,077	66,05
1072,438	66,97
1072,799	65,67
1073,16	67,05
1073,521	66,57
1073,882	66,87
1074,243	65,7
1074,603	65,22
1074,964	68,28
1075,325	66,53
1075,685	67,26
1076,045	66,02
1076,406	67,57
1076,766	68,55
1077,126	66,64
1077,486	70,21
1077,846	64,3
1078,206	67,5
1078,566	64,89
1078,925	65,56
1079,285	67,29
1079,645	66,04
1080,004	65,48
1080,364	65,55
1080,723	67
1081,082	65,91
1081,442	67,17
1081,801	65,67
1082,16	66,86
1082,519	65,72
1082,878	65,54
1083,237	68,76
1083,595	66,15
1083,954	68,89
1084,313	66,32
1084,671	64,65
1085,03	66,58
1085,388	69,77
1085,746	69,47
1086,104	66,11
1086,463	68,54
1086,821	67,8
1087,179	66,74
1087,537	69,36
1087,894	67,83
1088,252	67,48
1088,61	66,61
1088,967	66,33
1089,325	67,38
1089,682	68,6
1090,04	66,73
1090,397	67,67
1090,754	68,52
1091,111	65,96
1091,469	67,64
1091,826	69,9
1092,182	66,63
1092,539	69,23
1092,896	69,49
1093,253	69,97
1093,609	69,27
1093,966	67,83
1094,322	68,61
1094,679	67,94
1095,035	68,54
1095,391	70,22
1095,748	68,37
1096,104	69,22
1096,46	70,14
1096,816	67,67
1097,171	71,23
1097,527	67,8
1097,883	69,61
1098,239	68,92
1098,594	70,39
1098,95	66,1
1099,305	66,67
1099,66	68,9
1100,016	66,41
1100,371	72,69
1100,726	70,02
1101,081	68,16
1101,436	69,19
1101,791	66,56
1102,146	70,56
1102,5	67,45
1102,855	71,48
1103,21	69,02
1103,564	70,82
1103,918	68,11
1104,273	69,05
1104,627	65,98
1104,981	71,36
1105,335	69,15
1105,69	65,3
1106,043	69,51
1106,397	67,04
1106,751	69,83
1107,105	69,82
1107,459	69,59
1107,812	65,69
1108,166	71,8
1108,519	72,51
1108,873	69,59
1109,226	70,21
1109,579	73,53
1109,932	69,69
1110,285	68,35
1110,638	69,98
1110,991	69,37
1111,344	70,8
1111,697	66,83
1112,05	71,76
1112,402	76,24
1112,755	72,74
1113,107	71,19
1113,46	77,2
1113,812	71,37
1114,164	73,45
1114,517	76,64
1114,869	99,34
1115,221	95,14
1115,573	90,51
1115,924	91,56
