Data from H_1_Relative__9__00175.txt Node

Date: Tue Jan 30 10:13:33 CET 2024
User: diatiterra
Spectrometer: HDX00911
Trigger mode: 0
Integration Time (sec): 6,000000E-3
Scans to average: 2
Nonlinearity correction enabled: false
Boxcar width: 0
Storing dark spectrum: false
XAxis mode: Wavelengths
Number of Pixels in Spectrum: 2068
>>>>>Begin Spectral Data<<<<<
194,468	95,58
195,025	100,81
195,581	89,39
196,138	88,54
196,694	95,52
197,251	81,94
197,807	81,25
198,363	80,74
198,919	77,02
199,474	81,78
200,03	78,35
200,586	81,06
201,141	76,47
201,696	75,21
202,251	81,59
202,806	79,15
203,361	78,05
203,916	78,84
204,471	83,66
205,025	73,22
205,58	86,64
206,134	77,69
206,688	82,4
207,242	90,09
207,796	80,51
208,35	86,76
208,904	84,27
209,457	77,13
210,011	86,46
210,564	86,94
211,117	87,66
211,67	83,4
212,223	82,07
212,776	86,86
213,329	76,79
213,881	78,35
214,434	82,38
214,986	90,62
215,538	79,53
216,09	81,93
216,642	85,12
217,194	96,65
217,746	82,07
218,297	85,29
218,849	80,99
219,4	75,76
219,951	94,69
220,502	83,66
221,053	87,29
221,604	86,61
222,155	72,46
222,705	87,66
223,256	79,03
223,806	81,67
224,356	98,53
224,906	94,27
225,456	81,09
226,006	89,29
226,556	88,05
227,106	85,06
227,655	80,47
228,204	92,76
228,754	93,25
229,303	95,5
229,852	95,2
230,401	87,44
230,949	73,76
231,498	91,52
232,047	90,57
232,595	71,49
233,143	89,91
233,691	77,74
234,239	86,64
234,787	86,55
235,335	87,01
235,883	87,84
236,43	84,32
236,978	88,7
237,525	85,11
238,072	75,33
238,619	69,06
239,166	85,78
239,713	83,12
240,26	83,87
240,806	82,33
241,353	85,47
241,899	75,31
242,445	82,43
242,991	79,51
243,537	77,49
244,083	86,43
244,629	82,82
245,174	76,17
245,72	82,63
246,265	84,16
246,81	89,33
247,355	75,18
247,9	88,75
248,445	67,86
248,99	80,85
249,534	78,87
250,079	85,19
250,623	88,94
251,168	93,88
251,712	75,98
252,256	76,86
252,8	86,28
253,343	80,16
253,887	87,01
254,43	81,85
254,974	83,6
255,517	84,13
256,06	81,01
256,603	88,89
257,146	74,23
257,689	85,17
258,232	85,97
258,774	83,7
259,317	88,36
259,859	96,67
260,401	93,93
260,943	83,4
261,485	83,18
262,027	84,26
262,569	87,96
263,11	84,51
263,652	76,55
264,193	86,05
264,734	89,81
265,275	79,4
265,816	66,67
266,357	84,23
266,898	84,62
267,438	76,6
267,979	74,57
268,519	92,79
269,059	72,33
269,6	80,53
270,14	76,29
270,68	78,28
271,219	80,43
271,759	75,11
272,298	85,2
272,838	82,07
273,377	91,44
273,916	77,04
274,455	68,46
274,994	79,26
275,533	71,1
276,072	77,87
276,61	81,58
277,149	74,58
277,687	84,75
278,225	81,07
278,763	69,47
279,301	80,82
279,839	91,39
280,377	74,29
280,914	77,78
281,452	73,58
281,989	87,6
282,526	76,67
283,064	76,63
283,601	75,83
284,137	81,78
284,674	88,28
285,211	79,48
285,747	77,95
286,284	82,33
286,82	83,47
287,356	78,22
287,892	81,07
288,428	73,39
288,964	78,01
289,5	75,35
290,035	80,91
290,571	78,21
291,106	77,83
291,641	87,77
292,176	84,8
292,711	81,03
293,246	71,26
293,781	81,3
294,315	86,51
294,85	76,49
295,384	79,72
295,918	77,2
296,453	79,76
296,987	75,85
297,52	74,66
298,054	81,45
298,588	77,2
299,121	78,83
299,655	91,98
300,188	75,42
300,721	83,93
301,254	80,72
301,787	87,28
302,32	84,19
302,853	85,11
303,385	81,57
303,918	79,56
304,45	83,41
304,982	74,8
305,514	68,7
306,046	89,38
306,578	81,74
307,11	72,35
307,641	79,83
308,173	75,22
308,704	87,4
309,236	90,43
309,767	75,83
310,298	80,8
310,829	83,33
311,359	88,05
311,89	80,77
312,421	74,69
312,951	83,26
313,481	81,04
314,012	76,36
314,542	78,83
315,072	78,54
315,601	90,73
316,131	89,27
316,661	86,49
317,19	71,43
317,72	80,08
318,249	89,45
318,778	92,18
319,307	82,66
319,836	81,2
320,365	88,51
320,893	87,01
321,422	78,92
321,95	86,09
322,479	74,3
323,007	81,67
323,535	78,49
324,063	76,65
324,591	91,19
325,118	74,89
325,646	77,59
326,173	81,25
326,701	82,47
327,228	78,78
327,755	81,43
328,282	89,09
328,809	72,37
329,336	80,85
329,862	80,29
330,389	84,58
330,915	73,26
331,441	97,89
331,968	71,71
332,494	83,11
333,02	79,92
333,545	80,16
334,071	78,15
334,597	78,1
335,122	85,59
335,648	91,6
336,173	81,78
336,698	72,53
337,223	88,73
337,748	82,35
338,272	90,56
338,797	79,28
339,322	86,32
339,846	80,72
340,37	82,97
340,894	78,06
341,419	82,66
341,942	81,4
342,466	79,65
342,99	76,43
343,514	84,62
344,037	79,32
344,56	78,88
345,084	87,71
345,607	77,36
346,13	82,66
346,653	71,22
347,175	75,42
347,698	76,56
348,221	77,33
348,743	81,13
349,265	84,49
349,787	77
350,309	74,09
350,831	70,42
351,353	80,41
351,875	79,12
352,397	72,88
352,918	87,25
353,439	74,9
353,961	72,38
354,482	74,5
355,003	71,61
355,524	70,61
356,044	76,36
356,565	72,57
357,086	73,05
357,606	60,67
358,126	68,56
358,646	65,86
359,167	72,76
359,687	71,62
360,206	71,57
360,726	68,45
361,246	69,97
361,765	65,05
362,285	74,83
362,804	61,89
363,323	65,47
363,842	73,93
364,361	63,16
364,88	68,47
365,398	63,14
365,917	68,05
366,435	62,81
366,954	67,17
367,472	64,56
367,99	59,21
368,508	75,45
369,026	65,44
369,544	63,77
370,061	63
370,579	57,46
371,096	63,61
371,613	58,18
372,131	59,53
372,648	65,74
373,165	65,44
373,681	56,28
374,198	61,52
374,715	61,6
375,231	61,98
375,747	59,26
376,264	54,37
376,78	55,69
377,296	53,1
377,812	56,36
378,327	61,74
378,843	59,47
379,359	55,95
379,874	50,94
380,389	53,42
380,905	55,41
381,42	53,06
381,935	54,53
382,449	51,95
382,964	51,04
383,479	54,7
383,993	53,8
384,508	46,73
385,022	46,89
385,536	47,58
386,05	48,79
386,564	43,33
387,078	50,44
387,592	46,56
388,105	45,86
388,619	42,65
389,132	42,43
389,645	44,7
390,158	41,1
390,671	43,47
391,184	44,46
391,697	41,68
392,21	41,27
392,722	39,27
393,235	38,19
393,747	42,28
394,259	39,56
394,771	40,09
395,283	38,05
395,795	38,93
396,307	38,15
396,818	37,94
397,33	36,88
397,841	37,47
398,353	34,19
398,864	35,42
399,375	32,75
399,886	32,12
400,397	35,17
400,907	31,06
401,418	33,92
401,928	31,76
402,439	32,12
402,949	31,31
403,459	30,47
403,969	30,02
404,479	29,86
404,989	30,56
405,498	27,09
406,008	29,19
406,517	27,8
407,027	25,54
407,536	27,6
408,045	23,35
408,554	24,72
409,063	23,04
409,572	23
410,08	19,29
410,589	20,7
411,097	19,49
411,606	19,02
412,114	17,74
412,622	18,49
413,13	18,67
413,638	18,62
414,145	18,32
414,653	16,24
415,16	16,2
415,668	17,1
416,175	15,51
416,682	14,72
417,189	14,59
417,696	14,8
418,203	14,79
418,71	13,52
419,216	13,35
419,723	14,39
420,229	13,1
420,735	12,93
421,242	12,81
421,748	13,12
422,254	14,17
422,759	11,73
423,265	11,67
423,771	12,12
424,276	12,03
424,781	12,18
425,287	11,42
425,792	11,41
426,297	11,14
426,802	11,75
427,306	11,21
427,811	11,37
428,316	11,93
428,82	11,1
429,324	11,31
429,829	10,91
430,333	10,77
430,837	11,1
431,34	10,92
431,844	10,8
432,348	11,07
432,851	10,34
433,355	9,92
433,858	10,77
434,361	10,58
434,864	10,76
435,367	10,59
435,87	9,84
436,373	9,43
436,876	10,39
437,378	9,89
437,88	9,73
438,383	10,06
438,885	10,21
439,387	9,63
439,889	10,12
440,391	10
440,892	10,27
441,394	10,07
441,896	10,1
442,397	10,4
442,898	9,73
443,399	10,16
443,9	9,73
444,401	9,78
444,902	9,76
445,403	9,38
445,903	10,17
446,404	10,3
446,904	10,02
447,405	9,67
447,905	10,09
448,405	10
448,905	9,93
449,404	9,16
449,904	9,44
450,404	9,17
450,903	9,65
451,403	9,38
451,902	9,64
452,401	9,46
452,9	9,59
453,399	10,48
453,898	9,39
454,396	9,66
454,895	9,41
455,393	9,9
455,892	9,84
456,39	9,15
456,888	9,88
457,386	9,54
457,884	9,4
458,382	9,44
458,879	9,51
459,377	9,22
459,874	9,17
460,372	9,56
460,869	9,7
461,366	9,08
461,863	9,32
462,36	9,72
462,857	9,08
463,353	9,26
463,85	9,77
464,346	9,43
464,843	9,62
465,339	9,1
465,835	9,37
466,331	9,25
466,827	9
467,323	9,13
467,818	9,22
468,314	9,35
468,809	8,76
469,305	9,07
469,8	9,7
470,295	9,38
470,79	9,09
471,285	9,15
471,78	9,04
472,274	9,35
472,769	9,09
473,263	8,9
473,758	9,57
474,252	8,77
474,746	9,08
475,24	9,55
475,734	8,83
476,228	9,31
476,721	9,3
477,215	9,26
477,708	8,86
478,202	9,08
478,695	8,73
479,188	9,22
479,681	9,27
480,174	9
480,667	9,21
481,159	9,21
481,652	8,85
482,144	9,05
482,637	8,95
483,129	9,11
483,621	9,43
484,113	8,95
484,605	9,39
485,097	9,16
485,588	9,26
486,08	9,44
486,571	9,36
487,063	9,29
487,554	9,34
488,045	9,41
488,536	9,52
489,027	9,22
489,518	9,08
490,008	9,6
490,499	9,67
490,989	9,31
491,48	9,5
491,97	9,73
492,46	9,26
492,95	9,6
493,44	9,57
493,93	9,34
494,419	9,73
494,909	9,62
495,398	9,66
495,888	10,07
496,377	9,94
496,866	9,9
497,355	9,88
497,844	9,76
498,333	10,02
498,821	10,3
499,31	9,96
499,798	10,23
500,287	10,43
500,775	10,47
501,263	10,75
501,751	10,78
502,239	10,83
502,727	10,65
503,215	11,01
503,702	11,07
504,19	11,09
504,677	11,49
505,164	11,6
505,651	11,48
506,139	12,36
506,625	11,74
507,112	12,26
507,599	12,78
508,086	13,35
508,572	12,61
509,058	12,64
509,545	13,52
510,031	13,75
510,517	13,61
511,003	14,09
511,489	14,28
511,974	14,43
512,46	14,85
512,946	15,47
513,431	15,28
513,916	16,07
514,401	16,49
514,887	16,23
515,371	16,43
515,856	17,04
516,341	17,39
516,826	17,68
517,31	17,63
517,795	18,68
518,279	19,23
518,763	19,5
519,247	19,34
519,731	20,19
520,215	20,27
520,699	20,81
521,182	21,74
521,666	21,31
522,149	22,48
522,633	22,27
523,116	22,88
523,599	23,53
524,082	23,56
524,565	24
525,048	24,34
525,53	24,79
526,013	24,85
526,495	25,57
526,978	25,59
527,46	26,33
527,942	26,99
528,424	27,42
528,906	26,88
529,388	27,71
529,87	27,56
530,351	27,82
530,833	28,3
531,314	28,22
531,795	28,64
532,277	28,8
532,758	28,81
533,238	29,64
533,719	29,37
534,2	29,55
534,681	29,91
535,161	30,87
535,642	30,98
536,122	30,67
536,602	30,1
537,082	30,51
537,562	30,7
538,042	31,05
538,522	30,1
539,001	31,13
539,481	30,58
539,96	31,36
540,44	31,1
540,919	31,21
541,398	31,1
541,877	30,85
542,356	31,07
542,835	30,81
543,313	31,63
543,792	31,24
544,27	31,23
544,749	31,78
545,227	31,4
545,705	31,42
546,183	31,53
546,661	32,12
547,139	31,83
547,616	32,1
548,094	31,97
548,571	31,95
549,049	32,13
549,526	32,8
550,003	32,24
550,48	32,36
550,957	32,26
551,434	32,59
551,911	32,78
552,387	32,57
552,864	32,37
553,34	32,14
553,817	32,22
554,293	32,45
554,769	32,67
555,245	32,27
555,721	32,08
556,197	32,04
556,672	31,79
557,148	32,24
557,623	32,2
558,099	32
558,574	32,13
559,049	31,86
559,524	32,12
559,999	31,4
560,474	31,49
560,948	31,07
561,423	30,94
561,897	31,75
562,372	31,1
562,846	31,09
563,32	31,08
563,794	30,25
564,268	30,33
564,742	30,47
565,216	29,88
565,69	30,11
566,163	29,9
566,636	29,74
567,11	29,71
567,583	29,25
568,056	28,51
568,529	28,47
569,002	28,87
569,475	28,56
569,947	27,56
570,42	28,01
570,892	27,57
571,365	27,49
571,837	27,32
572,309	27,01
572,781	26,69
573,253	26,34
573,725	26,18
574,197	25,67
574,668	25,52
575,14	25,6
575,611	25,26
576,082	24,78
576,554	24,73
577,025	24,57
577,496	24,77
577,967	23,89
578,437	24,26
578,908	24,14
579,379	23,71
579,849	23,46
580,319	23,73
580,79	23,17
581,26	23,01
581,73	22,62
582,2	22,74
582,669	22,75
583,139	22,51
583,609	22,58
584,078	22,18
584,548	22,07
585,017	22,04
585,486	21,83
585,955	21,6
586,424	21,67
586,893	21,66
587,362	21,26
587,83	21,15
588,299	21,15
588,767	21,17
589,236	20,88
589,704	20,54
590,172	20,8
590,64	20,67
591,108	20,53
591,576	20,48
592,043	20,33
592,511	20,34
592,978	20,5
593,446	20,43
593,913	20,17
594,38	20,33
594,847	20,2
595,314	19,9
595,781	20,1
596,248	20,11
596,715	20,23
597,181	19,76
597,647	19,78
598,114	20,11
598,58	19,64
599,046	19,64
599,512	19,35
599,978	19,66
600,444	19,99
600,91	19,46
601,375	19,49
601,841	19,38
602,306	19,47
602,771	19,21
603,236	18,95
603,702	18,91
604,167	18,83
604,631	19,02
605,096	18,78
605,561	18,91
606,025	18,82
606,49	18,65
606,954	18,67
607,418	18,44
607,882	17,99
608,347	18,17
608,81	18,3
609,274	17,88
609,738	17,93
610,202	17,61
610,665	17,61
611,128	17,51
611,592	17,3
612,055	17,39
612,518	17,45
612,981	17,1
613,444	17,09
613,907	16,89
614,369	16,68
614,832	16,64
615,294	16,35
615,757	16,54
616,219	16,49
616,681	16,23
617,143	16,38
617,605	15,92
618,067	15,9
618,529	15,91
618,99	15,53
619,452	15,61
619,913	15,51
620,375	15,61
620,836	15,18
621,297	15,37
621,758	15,3
622,219	14,99
622,68	15,1
623,14	14,9
623,601	15,12
624,061	15,06
624,522	15,06
624,982	15
625,442	14,87
625,902	14,72
626,362	14,83
626,822	14,91
627,282	14,92
627,742	14,54
628,201	14,85
628,661	14,93
629,12	14,96
629,579	14,69
630,038	14,55
630,497	14,53
630,956	14,55
631,415	14,53
631,874	14,57
632,332	14,42
632,791	14,3
633,249	14,45
633,708	14,38
634,166	14,41
634,624	14,31
635,082	14,2
635,54	14,36
635,998	14,24
636,455	13,92
636,913	14
637,37	13,98
637,828	13,54
638,285	13,72
638,742	13,53
639,199	13,26
639,656	13,24
640,113	13
640,57	12,76
641,027	12,67
641,483	12,56
641,94	12,75
642,396	12,32
642,852	12,56
643,309	11,94
643,765	11,87
644,221	11,88
644,676	11,63
645,132	11,76
645,588	11,33
646,043	11,18
646,499	10,99
646,954	11,03
647,409	11,16
647,864	10,93
648,319	10,9
648,774	10,59
649,229	10,56
649,684	10,54
650,139	10,28
650,593	10,26
651,047	10,17
651,502	10,24
651,956	10,37
652,41	10,06
652,864	10,1
653,318	10,03
653,772	9,97
654,225	9,96
654,679	9,92
655,133	9,81
655,586	9,68
656,039	9,81
656,492	9,61
656,946	9,78
657,399	9,5
657,851	9,29
658,304	9,46
658,757	9,47
659,209	9,56
659,662	9,05
660,114	9,14
660,567	8,98
661,019	9,04
661,471	8,96
661,923	8,85
662,375	8,67
662,826	8,75
663,278	8,69
663,73	8,71
664,181	8,69
664,632	8,64
665,084	8,43
665,535	8,5
665,986	8,44
666,437	8,48
666,888	8,54
667,338	8,38
667,789	8,49
668,24	8,38
668,69	8,51
669,14	8,37
669,591	8,5
670,041	8,51
670,491	8,47
670,941	8,62
671,391	8,7
671,84	8,87
672,29	8,88
672,74	8,81
673,189	9,01
673,638	8,94
674,088	9,17
674,537	9,07
674,986	9,3
675,435	9,4
675,883	9,59
676,332	9,49
676,781	9,65
677,229	9,77
677,678	9,87
678,126	9,95
678,574	9,96
679,022	10,16
679,47	10,42
679,918	10,46
680,366	10,64
680,814	10,76
681,261	10,78
681,709	10,98
682,156	11,11
682,604	11,24
683,051	11,29
683,498	11,58
683,945	11,63
684,392	11,9
684,839	11,91
685,286	12,09
685,732	12,24
686,179	12,17
686,625	12,61
687,071	12,69
687,518	12,59
687,964	12,93
688,41	12,92
688,856	13,49
689,301	13,6
689,747	13,99
690,193	14,34
690,638	14,87
691,084	15,09
691,529	15,67
691,974	15,86
692,419	16,43
692,864	17,23
693,309	17,72
693,754	18,22
694,199	18,86
694,643	19,37
695,088	20,02
695,532	20,6
695,977	21,73
696,421	22,22
696,865	22,99
697,309	23,86
697,753	24,24
698,197	25,34
698,64	25,95
699,084	26,69
699,527	27,2
699,971	28,14
700,414	29,16
700,857	29,38
701,3	30,48
701,743	31,09
702,186	32,21
702,629	32,59
703,072	33,43
703,515	34
703,957	34,84
704,399	35,05
704,842	36,27
705,284	36,7
705,726	37,93
706,168	38,51
706,61	39,02
707,052	39,27
707,494	39,99
707,935	41,12
708,377	41,92
708,818	42,01
709,26	43,09
709,701	43,32
710,142	44,34
710,583	44,41
711,024	45,43
711,465	46,39
711,905	46,71
712,346	47,11
712,787	47,53
713,227	48,49
713,667	48,96
714,108	49,36
714,548	50,53
714,988	50,91
715,428	51,03
715,868	51,61
716,307	52,26
716,747	52,8
717,186	53,46
717,626	53,73
718,065	54,66
718,504	54,91
718,944	54,98
719,383	55,38
719,822	56,25
720,261	56,36
720,699	56,88
721,138	57,3
721,576	57,99
722,015	58,4
722,453	58,34
722,892	59,36
723,33	59,39
723,768	60,07
724,206	60,22
724,644	60,19
725,081	60,52
725,519	61
725,957	61,59
726,394	61,52
726,832	62,36
727,269	62,35
727,706	62,36
728,143	63,4
728,58	63,57
729,017	63,87
729,454	63,29
729,89	63,58
730,327	64,36
730,764	64,38
731,2	65,06
731,636	65,44
732,072	65,1
732,509	65,12
732,945	65,69
733,38	65,66
733,816	65,74
734,252	66,22
734,688	66,27
735,123	66,3
735,559	66,33
735,994	66,85
736,429	66,83
736,864	67,22
737,299	66,85
737,734	66,68
738,169	67,43
738,604	67,7
739,038	67,4
739,473	67,84
739,907	67,62
740,342	67,99
740,776	67,86
741,21	67,8
741,644	68,03
742,078	67,86
742,512	68,08
742,946	68,02
743,379	68,25
743,813	68,89
744,246	68,37
744,68	67,82
745,113	67,83
745,546	67,94
745,979	67,78
746,412	68,42
746,845	67,84
747,278	68,11
747,711	68,42
748,143	68,23
748,576	68,3
749,008	67,78
749,441	68,06
749,873	67,93
750,305	67,83
750,737	68,07
751,169	68,09
751,601	67,7
752,032	67,94
752,464	68,04
752,896	67,91
753,327	68,34
753,758	68,1
754,19	68,32
754,621	68,33
755,052	67,88
755,483	68,3
755,914	67,46
756,344	68,08
756,775	67,44
757,206	68,25
757,636	67,21
758,066	67,44
758,497	67,37
758,927	67,63
759,357	67,49
759,787	67,69
760,217	67,43
760,647	67,22
761,076	67,83
761,506	66,97
761,935	67,6
762,365	67,47
762,794	67,3
763,223	66,68
763,653	67,21
764,082	67,34
764,51	66,96
764,939	67,05
765,368	67,28
765,797	66,81
766,225	66,85
766,654	66,49
767,082	66,5
767,51	66,72
767,938	66,3
768,367	66,81
768,795	67,07
769,222	66,71
769,65	66,34
770,078	66,74
770,505	66,45
770,933	65,95
771,36	66,85
771,788	66,3
772,215	66,71
772,642	66,34
773,069	66,29
773,496	66,38
773,923	66,26
774,349	65,86
774,776	66,26
775,203	67,01
775,629	66,48
776,055	66,46
776,482	66,38
776,908	65,97
777,334	65,79
777,76	66,31
778,186	65,89
778,611	66,27
779,037	65,66
779,463	67,01
779,888	65,74
780,314	65,82
780,739	65,93
781,164	65,67
781,589	65,91
782,014	65,42
782,439	65,85
782,864	65,75
783,289	66,07
783,713	65,49
784,138	66,13
784,562	66,1
784,987	65,7
785,411	65,47
785,835	66,14
786,259	65,95
786,683	65,98
787,107	65,98
787,531	66,18
787,954	66,09
788,378	65,76
788,802	65,93
789,225	65,38
789,648	65,33
790,071	65,48
790,495	65,51
790,918	65,8
791,34	65,84
791,763	65,39
792,186	65,69
792,609	65,69
793,031	65,18
793,454	65,97
793,876	65,58
794,298	65,87
794,721	65,89
795,143	65,36
795,565	65,61
795,986	65,31
796,408	65,47
796,83	65,83
797,252	65,5
797,673	64,72
798,094	65,99
798,516	65,24
798,937	65,69
799,358	65,81
799,779	65,94
800,2	65,54
800,621	65,25
801,042	65,46
801,462	65,28
801,883	65,29
802,303	65,4
802,724	65,58
803,144	65,37
803,564	65,3
803,984	65,24
804,404	64,91
804,824	65,42
805,244	66,11
805,664	65,79
806,084	65,38
806,503	65,3
806,923	65,39
807,342	65,61
807,761	65,13
808,18	65,78
808,599	65,75
809,018	65,46
809,437	65,45
809,856	65,15
810,275	65,43
810,693	65,45
811,112	65,74
811,53	65,04
811,949	65,4
812,367	65,36
812,785	65,26
813,203	65,17
813,621	64,92
814,039	65,54
814,457	65,44
814,874	64,62
815,292	64,58
815,709	65,07
816,127	65,26
816,544	64,62
816,961	65,27
817,378	65,07
817,795	65,02
818,212	65,12
818,629	65,15
819,046	64,94
819,462	65,27
819,879	65,52
820,295	64,59
820,712	65,29
821,128	65,51
821,544	65,33
821,96	65,24
822,376	65,81
822,792	65,21
823,208	65,11
823,624	65,3
824,039	65,13
824,455	65,05
824,87	64,94
825,286	64,88
825,701	64,48
826,116	64,96
826,531	65,22
826,946	64,74
827,361	64,97
827,776	65,02
828,19	65,47
828,605	64,64
829,02	65,24
829,434	64,44
829,848	64,65
830,263	65,43
830,677	64,74
831,091	65,08
831,505	65,21
831,919	65,03
832,332	64,9
832,746	65,49
833,16	65,23
833,573	64,79
833,987	64,56
834,4	65
834,813	64,43
835,226	64,38
835,639	65,2
836,052	65,02
836,465	64,75
836,878	64,87
837,29	64,51
837,703	65,33
838,116	65,36
838,528	65,01
838,94	64,25
839,352	65,47
839,765	64,76
840,177	64,81
840,589	64,45
841	65,29
841,412	65,49
841,824	65,41
842,235	64,94
842,647	64,54
843,058	64,96
843,47	65
843,881	64,73
844,292	64,53
844,703	64,98
845,114	64,46
845,525	64,41
845,935	64,62
846,346	64,72
846,757	64,49
847,167	64,93
847,577	64,82
847,988	65,26
848,398	64,21
848,808	65,26
849,218	64,87
849,628	64,71
850,038	64,33
850,448	64,68
850,857	64,83
851,267	64,98
851,676	64,58
852,086	65,54
852,495	64,82
852,904	64,8
853,313	64,41
853,722	64,5
854,131	64,73
854,54	64,69
854,949	64,94
855,357	64,82
855,766	65,15
856,174	64,83
856,583	64,92
856,991	64,74
857,399	64,92
857,807	64,68
858,215	65,14
858,623	64,55
859,031	64,59
859,439	64,74
859,846	65,19
860,254	64,62
860,661	64,3
861,069	64,48
861,476	64,99
861,883	64,91
862,29	64,79
862,697	64,79
863,104	64,68
863,511	65,08
863,918	64,69
864,325	64,53
864,731	64,55
865,138	65,24
865,544	64,97
865,95	64,77
866,357	64,44
866,763	64,15
867,169	64,9
867,575	64,82
867,98	64,91
868,386	64,83
868,792	65,18
869,197	64,87
869,603	64,74
870,008	64,51
870,414	64,93
870,819	64,63
871,224	64,52
871,629	64,93
872,034	64,42
872,439	63,7
872,844	64,47
873,248	64,93
873,653	64,91
874,057	64,09
874,462	64,89
874,866	64,7
875,27	64,85
875,674	64,42
876,078	64,6
876,482	64,13
876,886	64,76
877,29	64,45
877,694	65,16
878,097	64,48
878,501	64,48
878,904	64,27
879,308	64,45
879,711	64,14
880,114	64,57
880,517	63,89
880,92	64,64
881,323	64,27
881,726	64,77
882,128	64,47
882,531	64,29
882,934	64,36
883,336	64,48
883,738	64,49
884,141	64,57
884,543	64,49
884,945	64,53
885,347	64,86
885,749	64,54
886,151	64,9
886,552	64,68
886,954	63,8
887,355	64,51
887,757	64,33
888,158	64,3
888,56	64,78
888,961	64,51
889,362	64,43
889,763	64,25
890,164	64,74
890,565	64,49
890,965	64,26
891,366	64,5
891,767	64,12
892,167	64,79
892,567	64,98
892,968	64,38
893,368	65,04
893,768	64,51
894,168	64,37
894,568	63,91
894,968	64,31
895,368	64,9
895,767	64,26
896,167	64,63
896,566	64,82
896,966	64,79
897,365	63,95
897,764	64,79
898,164	64,4
898,563	65,05
898,962	64,85
899,361	64,64
899,759	64,76
900,158	64,66
900,557	64,52
900,955	64,66
901,354	64,9
901,752	65,12
902,15	64,6
902,548	64,46
902,947	64,57
903,345	64,24
903,742	64,55
904,14	63,63
904,538	64,58
904,936	64,96
905,333	64,75
905,731	64,36
906,128	64,41
906,525	64,52
906,923	64,99
907,32	64,05
907,717	64,12
908,114	64,3
908,511	64,26
908,907	64,43
909,304	64,41
909,701	64,06
910,097	64,53
910,494	64,75
910,89	64,76
911,286	64,3
911,682	64,75
912,078	65
912,474	64,38
912,87	63,97
913,266	65,01
913,662	64,5
914,058	64
914,453	64,47
914,849	64,86
915,244	65,06
915,639	64,65
916,034	65,8
916,43	64,59
916,825	65
917,22	64,45
917,614	64,97
918,009	64,27
918,404	65
918,798	64,61
919,193	64,32
919,587	64,48
919,982	65,13
920,376	64,96
920,77	64,5
921,164	64,92
921,558	64,98
921,952	64,81
922,346	64,42
922,74	64,39
923,133	65,1
923,527	64,92
923,92	64,56
924,314	64,1
924,707	64,51
925,1	64,21
925,493	64,49
925,886	64,98
926,279	64,18
926,672	64,34
927,065	64,9
927,457	65,16
927,85	64,25
928,243	64,51
928,635	63,95
929,027	64,06
929,42	64,88
929,812	64,76
930,204	64,72
930,596	65,55
930,988	64,54
931,379	64,25
931,771	64,33
932,163	63,95
932,554	64,21
932,946	64,29
933,337	64,43
933,729	63,54
934,12	64,4
934,511	63,47
934,902	64,51
935,293	64,03
935,684	63,8
936,075	64,38
936,465	64,95
936,856	64,22
937,246	64,79
937,637	64,63
938,027	64,89
938,417	63,27
938,808	64,67
939,198	63,99
939,588	64,48
939,978	64,57
940,368	64,17
940,757	64,31
941,147	63,13
941,537	64,56
941,926	64,04
942,315	63,32
942,705	64,44
943,094	64,43
943,483	65,09
943,872	64,61
944,261	64,39
944,65	63,32
945,039	64,18
945,428	64,16
945,816	64,8
946,205	62,98
946,593	64,62
946,982	62,44
947,37	65,1
947,758	64,29
948,146	63,61
948,534	63,47
948,922	65,23
949,31	64,04
949,698	64
950,086	63,92
950,473	64,18
950,861	63,12
951,248	63,56
951,636	62,95
952,023	63,07
952,41	62,57
952,797	62,77
953,184	63,3
953,571	62,99
953,958	62,42
954,345	63,45
954,731	63,32
955,118	62,66
955,505	62,91
955,891	63,69
956,277	62,88
956,664	63,37
957,05	63,41
957,436	62,29
957,822	61,93
958,208	63,01
958,594	63,22
958,979	62,71
959,365	63,03
959,751	63,17
960,136	63,41
960,522	63,19
960,907	64,04
961,292	62,97
961,677	63,09
962,062	62,49
962,447	61,92
962,832	62,57
963,217	63,12
963,602	62,22
963,986	62,99
964,371	62,85
964,756	62,02
965,14	62,93
965,524	62,29
965,908	62,61
966,293	62,12
966,677	62,53
967,061	62,74
967,445	62,46
967,828	62,59
968,212	63,27
968,596	62,38
968,979	62,25
969,363	62,8
969,746	62,57
970,129	63,16
970,513	62,98
970,896	62,75
971,279	62,18
971,662	62,64
972,045	61,94
972,428	62,96
972,81	63,03
973,193	62,91
973,575	62,53
973,958	61,72
974,34	62,49
974,723	62,46
975,105	62,23
975,487	62,26
975,869	62,61
976,251	61,66
976,633	62,99
977,015	62,85
977,396	63,12
977,778	62,09
978,16	63,16
978,541	62,33
978,922	62,95
979,304	63,04
979,685	61,61
980,066	62,38
980,447	62,09
980,828	62,61
981,209	62,5
981,59	62,89
981,97	62
982,351	61,84
982,732	62,37
983,112	63,16
983,493	62,84
983,873	62,82
984,253	62,91
984,633	63,37
985,013	62,94
985,393	63,51
985,773	62,55
986,153	63
986,533	62,37
986,912	61,87
987,292	62,58
987,671	62,69
988,051	62,31
988,43	63,05
988,809	63,27
989,188	62,98
989,567	63,02
989,946	63,17
990,325	62,71
990,704	62,66
991,083	63,52
991,461	63,49
991,84	63,01
992,218	63,16
992,597	62,96
992,975	63,83
993,353	63,11
993,732	63,24
994,11	62,82
994,488	63,55
994,866	63,04
995,243	63,36
995,621	62,62
995,999	63,17
996,376	63,86
996,754	61,34
997,131	63,28
997,509	63,1
997,886	63,77
998,263	62,62
998,64	62,76
999,017	63,48
999,394	64,14
999,771	63,57
1000,148	63,68
1000,524	63,67
1000,901	63,12
1001,277	64,48
1001,654	63,29
1002,03	63,82
1002,406	64,53
1002,783	64,11
1003,159	63,98
1003,535	62,98
1003,911	63,22
1004,286	62,66
1004,662	63,42
1005,038	62,71
1005,414	63,29
1005,789	63,47
1006,164	63,95
1006,54	64,83
1006,915	64,02
1007,29	64,3
1007,665	63,61
1008,04	64,34
1008,415	63,41
1008,79	62,62
1009,165	63,08
1009,54	62,56
1009,914	62,99
1010,289	64,36
1010,663	63,88
1011,038	62,81
1011,412	64,09
1011,786	64,06
1012,16	64,43
1012,535	63,61
1012,909	64,96
1013,282	63,2
1013,656	63,88
1014,03	65,08
1014,404	63,76
1014,777	63,93
1015,151	64,94
1015,524	64,2
1015,897	65,08
1016,271	63,17
1016,644	64,38
1017,017	64,64
1017,39	62,87
1017,763	64,64
1018,136	62,96
1018,508	65,45
1018,881	64,83
1019,254	64,71
1019,626	63,74
1019,999	63,6
1020,371	64,58
1020,743	65,69
1021,116	64,42
1021,488	64,16
1021,86	63,32
1022,232	64,35
1022,604	65,5
1022,975	64,43
1023,347	64,54
1023,719	64,59
1024,09	64,91
1024,462	64,11
1024,833	63,58
1025,204	64,93
1025,576	64,15
1025,947	64,6
1026,318	63,37
1026,689	63,97
1027,06	63,92
1027,431	63,97
1027,801	65,31
1028,172	64,27
1028,543	64,7
1028,913	64,5
1029,284	65,83
1029,654	65,22
1030,024	65,11
1030,394	66,16
1030,764	64,57
1031,135	65,36
1031,504	65,23
1031,874	64,16
1032,244	65,28
1032,614	65,61
1032,983	65,25
1033,353	64,65
1033,722	64,9
1034,092	64,9
1034,461	64,76
1034,83	65,18
1035,2	63,58
1035,569	65,26
1035,938	65,25
1036,307	65,86
1036,675	64,81
1037,044	66,83
1037,413	65,21
1037,781	64,41
1038,15	65,38
1038,518	65,82
1038,887	65,11
1039,255	64,12
1039,623	64,91
1039,991	65,21
1040,359	66,44
1040,727	66,28
1041,095	65,65
1041,463	65,49
1041,831	64,8
1042,198	65,32
1042,566	64,34
1042,933	65,13
1043,301	63,17
1043,668	66,39
1044,035	64,57
1044,402	66,03
1044,77	65,8
1045,137	64,05
1045,503	64,74
1045,87	67,18
1046,237	66,2
1046,604	66,81
1046,97	64,98
1047,337	65,39
1047,703	66,22
1048,07	64,63
1048,436	66,19
1048,802	64,5
1049,168	64,08
1049,534	67,31
1049,9	68,25
1050,266	65,39
1050,632	64,95
1050,998	65,22
1051,364	63,49
1051,729	66,69
1052,095	66,35
1052,46	65,11
1052,825	66,56
1053,191	65,79
1053,556	65,3
1053,921	67,03
1054,286	66,37
1054,651	67,39
1055,016	64,9
1055,381	67,33
1055,745	65,06
1056,11	64,5
1056,475	65,19
1056,839	66,53
1057,203	65,9
1057,568	65,18
1057,932	68,88
1058,296	67,74
1058,66	67,01
1059,024	66,82
1059,388	64,46
1059,752	65,9
1060,116	66,83
1060,48	67,95
1060,843	65,25
1061,207	67,15
1061,57	66,05
1061,934	66,68
1062,297	66,68
1062,66	66,06
1063,023	65,09
1063,386	67,63
1063,749	65,56
1064,112	68,71
1064,475	64,7
1064,838	65,54
1065,201	65,37
1065,563	68,08
1065,926	67,47
1066,288	66,85
1066,651	66,6
1067,013	65,63
1067,375	67,07
1067,737	67,45
1068,099	67,18
1068,461	65,09
1068,823	67,46
1069,185	67,28
1069,547	69,11
1069,909	66,09
1070,27	65,85
1070,632	67,4
1070,993	67,94
1071,355	68,97
1071,716	67
1072,077	66,76
1072,438	65,84
1072,799	66,45
1073,16	67,43
1073,521	67,21
1073,882	64,4
1074,243	66,56
1074,603	66,05
1074,964	67,17
1075,325	63,65
1075,685	67,55
1076,045	67,72
1076,406	66,63
1076,766	68,63
1077,126	66,31
1077,486	67,06
1077,846	65,93
1078,206	65,46
1078,566	67,51
1078,925	66,71
1079,285	66,29
1079,645	66,56
1080,004	67,55
1080,364	65,64
1080,723	67,88
1081,082	66,14
1081,442	66,94
1081,801	66,42
1082,16	68,25
1082,519	66,88
1082,878	65,4
1083,237	67,13
1083,595	67,12
1083,954	68,39
1084,313	66,03
1084,671	67,2
1085,03	67,54
1085,388	68,27
1085,746	67,57
1086,104	68,3
1086,463	69,49
1086,821	67,37
1087,179	66,74
1087,537	70,41
1087,894	68,64
1088,252	68,19
1088,61	67,29
1088,967	69,61
1089,325	67,16
1089,682	68,89
1090,04	68,99
1090,397	69,9
1090,754	72,24
1091,111	66,61
1091,469	65,26
1091,826	68,85
1092,182	67,65
1092,539	69,78
1092,896	69,55
1093,253	67,4
1093,609	67,14
1093,966	70,26
1094,322	69
1094,679	69,72
1095,035	70,82
1095,391	68,26
1095,748	68,58
1096,104	71,01
1096,46	67,78
1096,816	67,88
1097,171	71,79
1097,527	67,8
1097,883	70,76
1098,239	70,36
1098,594	71,79
1098,95	66,25
1099,305	67,99
1099,66	70,5
1100,016	69,22
1100,371	71,99
1100,726	70,91
1101,081	70,05
1101,436	71,6
1101,791	65,37
1102,146	71,05
1102,5	70,63
1102,855	71,06
1103,21	69,35
1103,564	68,58
1103,918	70,72
1104,273	68,88
1104,627	71,35
1104,981	73,57
1105,335	68,53
1105,69	67,53
1106,043	72,18
1106,397	68,81
1106,751	68,17
1107,105	71,36
1107,459	70,46
1107,812	69,29
1108,166	71,5
1108,519	71,77
1108,873	71,89
1109,226	71,75
1109,579	75,82
1109,932	70,12
1110,285	72,36
1110,638	69,09
1110,991	67,2
1111,344	69,2
1111,697	71,91
1112,05	71,76
1112,402	75,1
1112,755	73,77
1113,107	74,65
1113,46	74,63
1113,812	73,09
1114,164	68,4
1114,517	72,26
1114,869	96,03
1115,221	101,39
1115,573	101,46
1115,924	94,16
