Data from I_4_Relative__6__00194.txt Node

Date: Tue Jan 30 10:15:25 CET 2024
User: diatiterra
Spectrometer: HDX00911
Trigger mode: 0
Integration Time (sec): 6,000000E-3
Scans to average: 2
Nonlinearity correction enabled: false
Boxcar width: 0
Storing dark spectrum: false
XAxis mode: Wavelengths
Number of Pixels in Spectrum: 2068
>>>>>Begin Spectral Data<<<<<
194,468	100
195,025	98,39
195,581	90,15
196,138	86,62
196,694	84,58
197,251	76,21
197,807	77,92
198,363	68,03
198,919	81,7
199,474	80,08
200,03	74,41
200,586	73,57
201,141	76,05
201,696	71,85
202,251	83,08
202,806	73,19
203,361	70,33
203,916	77,18
204,471	77,23
205,025	74,06
205,58	73,73
206,134	73,31
206,688	74,25
207,242	88,74
207,796	75,85
208,35	77,63
208,904	73,39
209,457	75,19
210,011	82,97
210,564	77,48
211,117	86,38
211,67	78,95
212,223	69,72
212,776	78,39
213,329	72,15
213,881	79,22
214,434	74,18
214,986	80,36
215,538	77,56
216,09	77,91
216,642	71,07
217,194	89,95
217,746	74,5
218,297	71,01
218,849	77,19
219,4	71,43
219,951	83,19
220,502	84,82
221,053	78,81
221,604	73,62
222,155	76,27
222,705	79,57
223,256	71,54
223,806	75,42
224,356	76,47
224,906	86,34
225,456	71,85
226,006	75
226,556	79,65
227,106	78,84
227,655	84,19
228,204	85,97
228,754	74,68
229,303	77,48
229,852	82,1
230,401	82,96
230,949	70,21
231,498	77,68
232,047	75,82
232,595	78,31
233,143	86,84
233,691	76,68
234,239	71,37
234,787	81,17
235,335	80,95
235,883	81,53
236,43	79,66
236,978	80,43
237,525	76,6
238,072	78,85
238,619	61,88
239,166	76,29
239,713	76,37
240,26	80,24
240,806	76,72
241,353	84,62
241,899	72,43
242,445	82,85
242,991	79,92
243,537	78,35
244,083	81,9
244,629	80,18
245,174	83,83
245,72	76,83
246,265	83,71
246,81	80
247,355	79,2
247,9	82,08
248,445	73,41
248,99	76,6
249,534	74,72
250,079	86,11
250,623	80,97
251,168	78,78
251,712	78,6
252,256	68,6
252,8	82,74
253,343	78,14
253,887	86,15
254,43	75,93
254,974	82
255,517	77,4
256,06	74,26
256,603	85,6
257,146	70,38
257,689	76,69
258,232	76,92
258,774	79,3
259,317	86,64
259,859	80,48
260,401	85,05
260,943	75,93
261,485	86,36
262,027	76,17
262,569	83,33
263,11	78,32
263,652	79,65
264,193	76,74
264,734	91,2
265,275	84,55
265,816	77,78
266,357	75,1
266,898	81,62
267,438	78,3
267,979	77,16
268,519	82,21
269,059	74,31
269,6	80,97
270,14	78,88
270,68	77,05
271,219	79,13
271,759	75,55
272,298	69,6
272,838	71,71
273,377	90,09
273,916	80,93
274,455	69,62
274,994	82,03
275,533	74,9
276,072	84,26
276,61	83,77
277,149	74,17
277,687	82,63
278,225	71,19
278,763	69,47
279,301	74,69
279,839	84,84
280,377	72,65
280,914	79,17
281,452	71,95
281,989	88,43
282,526	68,75
283,064	73,95
283,601	78,33
284,137	78,22
284,674	76,99
285,211	76,86
285,747	76,77
286,284	84,91
286,82	71,37
287,356	71,56
287,892	70,78
288,428	72,53
288,964	83,82
289,5	80
290,035	74,27
290,571	71,21
291,106	75,11
291,641	65,94
292,176	67,2
292,711	74,14
293,246	69,35
293,781	76,96
294,315	78,6
294,85	64,54
295,384	70,75
295,918	73,2
296,453	72,47
296,987	69,07
297,52	66,97
298,054	73,76
298,588	66
299,121	76,58
299,655	63,21
300,188	69,49
300,721	77,23
301,254	66,37
301,787	80,26
302,32	73,5
302,853	73,19
303,385	79,61
303,918	72,89
304,45	76,42
304,982	71,2
305,514	60,16
306,046	76,99
306,578	68,46
307,11	68,56
307,641	66,81
308,173	70,43
308,704	80,08
309,236	73,48
309,767	73,75
310,298	72,8
310,829	72,87
311,359	88,05
311,89	78,85
312,421	58,78
312,951	79,92
313,481	83,41
314,012	67,44
314,542	72,97
315,072	69,1
315,601	75,4
316,131	79,4
316,661	75,68
317,19	64,49
317,72	70,34
318,249	72,02
318,778	79,84
319,307	78,23
319,836	70,4
320,365	80,85
320,893	87,01
321,422	76,23
321,95	75,65
322,479	69,08
323,007	69,32
323,535	72,45
324,063	73,93
324,591	77,39
325,118	71,86
325,646	69,4
326,173	72,77
326,701	75,3
327,228	78,37
327,755	79,52
328,282	80,91
328,809	71,93
329,336	77,45
329,862	67,52
330,389	73,13
330,915	68,6
331,441	81,01
331,968	66,93
332,494	84
333,02	73,64
333,545	72,47
334,071	68,49
334,597	73,97
335,122	79,73
335,648	75,6
336,173	82,63
336,698	74,68
337,223	73,71
337,748	72,94
338,272	74,68
338,797	67,73
339,322	78,63
339,846	70,68
340,37	74,67
340,894	77,64
341,419	75,81
341,942	75,58
342,466	69,91
342,99	66,16
343,514	71,66
344,037	68,8
344,56	68,92
345,084	76,69
345,607	72,83
346,13	72,58
346,653	58,67
347,175	75,42
347,698	70,7
348,221	75,71
348,743	85,66
349,265	75,1
349,787	68,29
350,309	66,06
350,831	60,56
351,353	73,88
351,875	68,5
352,397	63,73
352,918	84,06
353,439	72,91
353,961	74,83
354,482	63,09
355,003	72,56
355,524	63,51
356,044	70,55
356,565	64,58
357,086	65,58
357,606	67
358,126	72,91
358,646	63,1
359,167	69,77
359,687	66,67
360,206	70,61
360,726	62,15
361,246	64,71
361,765	63,43
362,285	62,08
362,804	57,62
363,323	66,37
363,842	64,03
364,361	61,3
364,88	63,36
365,398	66,16
365,917	62,72
366,435	66,94
366,954	63,22
367,472	60,96
367,99	61,76
368,508	67,58
369,026	70,25
369,544	68,7
370,061	59,25
370,579	61,88
371,096	58,12
371,613	63
372,131	59,53
372,648	62,69
373,165	59,37
373,681	60,73
374,198	59,49
374,715	59,28
375,231	62,22
375,747	59,26
376,264	51,7
376,78	59,48
377,296	57,62
377,812	59,1
378,327	58,69
378,843	57,31
379,359	57,93
379,874	57,17
380,389	58,45
380,905	60,72
381,42	51,63
381,935	57,11
382,449	47,85
382,964	50,47
383,479	50,31
383,993	55,4
384,508	51,15
385,022	47,27
385,536	50,37
386,05	52,13
386,564	45,96
387,078	46,25
387,592	48,36
388,105	48,18
388,619	46,2
389,132	45,59
389,645	42,7
390,158	45,04
390,671	45,23
391,184	44,61
391,697	44,1
392,21	42,35
392,722	42,92
393,235	42,45
393,747	41,43
394,259	41,48
394,771	44,65
395,283	38,72
395,795	43,73
396,307	41,46
396,818	37,16
397,33	40,91
397,841	37,47
398,353	38,06
398,864	35,55
399,375	36,49
399,886	34,06
400,397	37,97
400,907	35,68
401,418	34,75
401,928	33,2
402,439	34,82
402,949	32,13
403,459	32,19
403,969	33,2
404,479	33,65
404,989	29,07
405,498	28,58
406,008	29,71
406,517	26,78
407,027	26,27
407,536	28,49
408,045	25,57
408,554	23,7
409,063	24,81
409,572	23,14
410,08	23,6
410,589	22,22
411,097	20,92
411,606	21,02
412,114	19,05
412,622	19,67
413,13	19,64
413,638	17,33
414,145	18,12
414,653	16,24
415,16	17,42
415,668	17,38
416,175	16,2
416,682	15,12
417,189	15,38
417,696	15,18
418,203	15,66
418,71	14,31
419,216	14,32
419,723	14,16
420,229	13,47
420,735	14,36
421,242	13,48
421,748	13,9
422,254	14,9
422,759	13,16
423,265	12,21
423,771	12,05
424,276	12,95
424,781	12,69
425,287	12,17
425,792	12,4
426,297	12,1
426,802	12,46
427,306	12,92
427,811	11,48
428,316	13,49
428,82	12,74
429,324	11,72
429,829	12,01
430,333	11,81
430,837	11,91
431,34	11,97
431,844	11,38
432,348	11,63
432,851	11,64
433,355	10,7
433,858	11,86
434,361	10,95
434,864	11,38
435,367	11,95
435,87	10,97
436,373	10,5
436,876	12,19
437,378	10,29
437,88	10,47
438,383	10,35
438,885	11,04
439,387	10,5
439,889	10,65
440,391	10,62
440,892	10,51
441,394	10,65
441,896	10,76
442,397	10,99
442,898	10,66
443,399	10,96
443,9	10,72
444,401	10,65
444,902	10,45
445,403	10,21
445,903	10,93
446,404	10,8
446,904	11,12
447,405	10,63
447,905	9,91
448,405	11,05
448,905	11,08
449,404	10,5
449,904	10,17
450,404	10,95
450,903	10,65
451,403	10,03
451,902	11
452,401	10,2
452,9	10,13
453,399	11,12
453,898	10,4
454,396	11,2
454,895	10,74
455,393	11,37
455,892	11,47
456,39	11,13
456,888	11,26
457,386	10,33
457,884	10,56
458,382	10,4
458,879	10,93
459,377	11,32
459,874	10,7
460,372	11,02
460,869	10,97
461,366	10,56
461,863	11,53
462,36	11,07
462,857	10,99
463,353	10,84
463,85	10,59
464,346	10,85
464,843	10,94
465,339	10,66
465,835	11,61
466,331	10,54
466,827	10,63
467,323	10,56
467,818	10,54
468,314	10,5
468,809	10,68
469,305	11,22
469,8	11,34
470,295	11,04
470,79	10,69
471,285	11,03
471,78	10,21
472,274	10,55
472,769	10,81
473,263	10,86
473,758	11,28
474,252	10,66
474,746	10,72
475,24	11,31
475,734	11,25
476,228	10,22
476,721	10,86
477,215	10,78
477,708	10,98
478,202	10,49
478,695	10,5
479,188	10,81
479,681	11,11
480,174	10,51
480,667	10,87
481,159	11,1
481,652	10,89
482,144	11,19
482,637	11,11
483,129	10,25
483,621	11,15
484,113	10,76
484,605	10,67
485,097	10,56
485,588	11
486,08	10,99
486,571	10,91
487,063	11,1
487,554	10,63
488,045	10,85
488,536	10,97
489,027	11,59
489,518	11,26
490,008	10,92
490,499	11,14
490,989	11,61
491,48	11,3
491,97	11,53
492,46	11,63
492,95	11,55
493,44	11,4
493,93	11,63
494,419	11,67
494,909	11,7
495,398	11,89
495,888	12,14
496,377	11,95
496,866	12,08
497,355	12,21
497,844	11,57
498,333	12,44
498,821	12,86
499,31	12,57
499,798	12,95
500,287	13,12
500,775	13,19
501,263	13,23
501,751	13,31
502,239	13,77
502,727	13,63
503,215	13,66
503,702	14,37
504,19	14,07
504,677	14,61
505,164	14,13
505,651	14,92
506,139	15,08
506,625	14,95
507,112	15,75
507,599	16,09
508,086	16,15
508,572	15,59
509,058	16,55
509,545	16,87
510,031	16,75
510,517	17,1
511,003	17,43
511,489	17,22
511,974	18,17
512,46	18,69
512,946	18,79
513,431	19,01
513,916	19,57
514,401	19,7
514,887	20,13
515,371	20,8
515,856	21,03
516,341	21,34
516,826	21,18
517,31	21,87
517,795	22,53
518,279	22,67
518,763	22,64
519,247	23,11
519,731	23,57
520,215	23,19
520,699	24,44
521,182	25
521,666	24,78
522,149	25,81
522,633	26,01
523,116	25,89
523,599	26,26
524,082	26,65
524,565	27,32
525,048	27,57
525,53	27,77
526,013	28,66
526,495	28,55
526,978	29,03
527,46	29,39
527,942	29,4
528,424	30,07
528,906	29,71
529,388	29,9
529,87	29,73
530,351	30,47
530,833	30,52
531,314	32,12
531,795	31,5
532,277	31,27
532,758	31,25
533,238	31,58
533,719	31,54
534,2	31,92
534,681	32,26
535,161	32,12
535,642	31,62
536,122	32,08
536,602	32,24
537,082	32,18
537,562	32,55
538,042	32,42
538,522	32,29
539,001	33,13
539,481	32,88
539,96	32,83
540,44	33,11
540,919	33,19
541,398	33,28
541,877	32,92
542,356	33,08
542,835	33,17
543,313	33,32
543,792	32,94
544,27	33,63
544,749	33,65
545,227	32,96
545,705	33,74
546,183	33,57
546,661	33,89
547,139	33,11
547,616	34
548,094	34,12
548,571	32,99
549,049	33,75
549,526	34,34
550,003	34,27
550,48	34,2
550,957	33,44
551,434	34,18
551,911	34,14
552,387	34,02
552,864	34,23
553,34	33,86
553,817	34,07
554,293	33,81
554,769	34,41
555,245	34,5
555,721	33,97
556,197	34,17
556,672	33,94
557,148	33,87
557,623	34
558,099	34,1
558,574	33,94
559,049	33,51
559,524	33,66
559,999	33,32
560,474	33,39
560,948	33,64
561,423	33,15
561,897	33,43
562,372	33,13
562,846	32,94
563,32	32,97
563,794	33,28
564,268	32,76
564,742	32,56
565,216	32,28
565,69	32,31
566,163	31,99
566,636	31,71
567,11	32,09
567,583	31,79
568,056	31,13
568,529	31,53
569,002	30,71
569,475	30,86
569,947	30,05
570,42	30,83
570,892	30,37
571,365	29,96
571,837	29,78
572,309	29,99
572,781	29,56
573,253	29,26
573,725	28,97
574,197	28,58
574,668	29,26
575,14	28,45
575,611	28,76
576,082	27,77
576,554	27,81
577,025	27,79
577,496	27,99
577,967	27,32
578,437	27,5
578,908	27,32
579,379	26,68
579,849	26,86
580,319	26,68
580,79	26,73
581,26	25,8
581,73	26,07
582,2	26,2
582,669	25,98
583,139	25,93
583,609	25,53
584,078	25,49
584,548	25,7
585,017	25,49
585,486	25,19
585,955	24,79
586,424	24,94
586,893	24,68
587,362	24,73
587,83	24,43
588,299	24,67
588,767	24,73
589,236	24,38
589,704	24,32
590,172	24,34
590,64	23,96
591,108	23,96
591,576	24,26
592,043	23,95
592,511	23,88
592,978	23,76
593,446	24
593,913	23,56
594,38	23,48
594,847	23,99
595,314	23,42
595,781	23,67
596,248	23,68
596,715	23,79
597,181	23,33
597,647	23,55
598,114	23,09
598,58	23,25
599,046	23,34
599,512	22,79
599,978	23,02
600,444	23,13
600,91	22,87
601,375	22,92
601,841	23
602,306	23
602,771	22,58
603,236	22,63
603,702	22,57
604,167	22,4
604,631	22,74
605,096	22,11
605,561	21,97
606,025	22,28
606,49	22,11
606,954	22,03
607,418	21,98
607,882	21,79
608,347	21,86
608,81	21,87
609,274	21,6
609,738	21,39
610,202	21,19
610,665	21,21
611,128	21,23
611,592	21,16
612,055	20,88
612,518	20,83
612,981	21,02
613,444	20,59
613,907	20,37
614,369	20,3
614,832	20,2
615,294	19,67
615,757	19,99
616,219	19,91
616,681	19,68
617,143	19,8
617,605	19,23
618,067	19,33
618,529	19,76
618,99	19,23
619,452	19,22
619,913	19,23
620,375	19,12
620,836	19,07
621,297	19,1
621,758	18,68
622,219	18,68
622,68	18,59
623,14	18,58
623,601	18,64
624,061	18,74
624,522	18,57
624,982	18,66
625,442	18,2
625,902	18,29
626,362	18,59
626,822	18,15
627,282	18,41
627,742	17,99
628,201	18,1
628,661	18,23
629,12	18,17
629,579	18,15
630,038	18,18
630,497	17,99
630,956	18,29
631,415	18,18
631,874	17,99
632,332	18,01
632,791	18,03
633,249	17,87
633,708	17,72
634,166	17,77
634,624	17,62
635,082	17,68
635,54	17,24
635,998	17,63
636,455	17,31
636,913	17,18
637,37	17,24
637,828	17,12
638,285	16,68
638,742	16,88
639,199	16,43
639,656	16,28
640,113	16,33
640,57	16,09
641,027	15,81
641,483	15,82
641,94	15,71
642,396	15,64
642,852	15,38
643,309	15,19
643,765	15,06
644,221	14,85
644,676	14,75
645,132	14,41
645,588	14,2
646,043	14,35
646,499	14,3
646,954	14,13
647,409	14,14
647,864	13,47
648,319	13,54
648,774	13,18
649,229	13,37
649,684	13,34
650,139	13,24
650,593	13,27
651,047	12,83
651,502	12,99
651,956	12,68
652,41	12,8
652,864	12,77
653,318	12,64
653,772	12,4
654,225	12,59
654,679	12,43
655,133	12,42
655,586	12,26
656,039	12,3
656,492	12,17
656,946	12,02
657,399	11,92
657,851	11,87
658,304	11,8
658,757	11,71
659,209	11,51
659,662	11,48
660,114	11,25
660,567	11,2
661,019	11,05
661,471	11,08
661,923	10,93
662,375	10,66
662,826	10,78
663,278	10,6
663,73	10,5
664,181	10,5
664,632	10,44
665,084	10,29
665,535	10,18
665,986	10,2
666,437	10,05
666,888	10
667,338	10,04
667,789	9,95
668,24	9,86
668,69	9,88
669,14	9,97
669,591	9,81
670,041	9,97
670,491	9,86
670,941	9,89
671,391	9,9
671,84	9,9
672,29	9,93
672,74	9,9
673,189	10
673,638	10,03
674,088	10,35
674,537	10,06
674,986	10,17
675,435	10,24
675,883	10,35
676,332	10,61
676,781	10,37
677,229	10,69
677,678	10,76
678,126	10,71
678,574	10,96
679,022	10,95
679,47	11,01
679,918	11,16
680,366	11,17
680,814	11,39
681,261	11,47
681,709	11,64
682,156	11,81
682,604	11,85
683,051	11,97
683,498	12,07
683,945	12,34
684,392	12,51
684,839	12,66
685,286	12,75
685,732	13,16
686,179	13,1
686,625	13,56
687,071	13,74
687,518	13,86
687,964	14
688,41	14,49
688,856	14,64
689,301	15,26
689,747	15,44
690,193	16,01
690,638	16,7
691,084	16,83
691,529	17,33
691,974	18,02
692,419	18,61
692,864	19,01
693,309	19,72
693,754	20,16
694,199	20,79
694,643	21,39
695,088	21,94
695,532	22,73
695,977	23,73
696,421	24,19
696,865	24,79
697,309	25,28
697,753	26,25
698,197	26,93
698,64	27,43
699,084	28,14
699,527	28,64
699,971	29,27
700,414	30,11
700,857	30,02
701,3	31,36
701,743	31,63
702,186	32,4
702,629	32,88
703,072	33,58
703,515	33,82
703,957	34,28
704,399	34,7
704,842	35,56
705,284	36,14
705,726	36,53
706,168	36,98
706,61	37,19
707,052	37,85
707,494	38,04
707,935	38,71
708,377	39,29
708,818	39,42
709,26	39,85
709,701	40,34
710,142	40,75
710,583	40,84
711,024	41,63
711,465	42,09
711,905	42,12
712,346	42,53
712,787	42,77
713,227	43,56
713,667	43,52
714,108	43,85
714,548	44,59
714,988	44,8
715,428	44,97
715,868	45,39
716,307	45,98
716,747	45,68
717,186	46,33
717,626	46,56
718,065	46,94
718,504	47,02
718,944	47,33
719,383	47,04
719,822	47,98
720,261	48,05
720,699	48,45
721,138	48,74
721,576	48,84
722,015	48,78
722,453	48,98
722,892	49,54
723,33	49,7
723,768	49,65
724,206	50,16
724,644	50,04
725,081	50,08
725,519	50,41
725,957	50,48
726,394	50,9
726,832	50,77
727,269	51,37
727,706	51,53
728,143	51,55
728,58	51,7
729,017	52,17
729,454	51,75
729,89	51,98
730,327	51,99
730,764	51,95
731,2	52,49
731,636	52,44
732,072	52,09
732,509	52,45
732,945	52,8
733,38	52,48
733,816	52,63
734,252	52,82
734,688	52,92
735,123	53,18
735,559	52,64
735,994	52,81
736,429	53,24
736,864	53,09
737,299	53,21
737,734	52,93
738,169	53,61
738,604	53,25
739,038	53,4
739,473	53,87
739,907	53,33
740,342	53,63
740,776	53,51
741,21	53,45
741,644	53,71
742,078	53,57
742,512	53,43
742,946	53,75
743,379	53,82
743,813	53,98
744,246	53,7
744,68	53,7
745,113	53,43
745,546	53,13
745,979	53
746,412	53,45
746,845	53,38
747,278	53,09
747,711	53,34
748,143	53,14
748,576	53,56
749,008	52,89
749,441	53,06
749,873	53,6
750,305	53,19
750,737	53,31
751,169	53,45
751,601	53,04
752,032	53,13
752,464	53,19
752,896	53
753,327	53,38
753,758	53,22
754,19	53,23
754,621	53,15
755,052	52,89
755,483	52,84
755,914	52,58
756,344	52,91
756,775	52,63
757,206	52,6
757,636	52,76
758,066	52,39
758,497	52,83
758,927	52,98
759,357	52,82
759,787	52,73
760,217	52,31
760,647	52,02
761,076	52,61
761,506	52,44
761,935	52,87
762,365	52,08
762,794	52,42
763,223	51,86
763,653	52,4
764,082	52,35
764,51	52,51
764,939	52,53
765,368	52,35
765,797	52,41
766,225	51,82
766,654	52,12
767,082	52,29
767,51	51,89
767,938	52
768,367	52,16
768,795	52,51
769,222	52,19
769,65	52,04
770,078	52,18
770,505	51,85
770,933	51,99
771,36	51,68
771,788	51,78
772,215	52,14
772,642	51,71
773,069	51,69
773,496	52,1
773,923	51,81
774,349	51,8
774,776	51,94
775,203	51,74
775,629	51,43
776,055	51,79
776,482	51,8
776,908	51,51
777,334	51,24
777,76	51,52
778,186	51,58
778,611	51,41
779,037	51,48
779,463	51,41
779,888	51,23
780,314	51,2
780,739	51,39
781,164	51,03
781,589	51,43
782,014	50,99
782,439	50,95
782,864	51,35
783,289	51,62
783,713	50,81
784,138	51,19
784,562	51,2
784,987	51,45
785,411	51,01
785,835	51,45
786,259	51,2
786,683	51,63
787,107	51,5
787,531	51,82
787,954	51,15
788,378	51,37
788,802	51,52
789,225	51,4
789,648	51,28
790,071	51,16
790,495	51,01
790,918	51,45
791,34	51,13
791,763	50,79
792,186	50,8
792,609	50,86
793,031	51,01
793,454	51,52
793,876	51,17
794,298	50,95
794,721	51,18
795,143	50,87
795,565	50,75
795,986	50,72
796,408	51,31
796,83	51,25
797,252	50,81
797,673	50,51
798,094	51,36
798,516	50,75
798,937	51,03
799,358	51,11
799,779	51,4
800,2	51,34
800,621	50,62
801,042	51,19
801,462	50,66
801,883	50,68
802,303	50,83
802,724	50,77
803,144	51,07
803,564	50,82
803,984	50,83
804,404	50,72
804,824	50,47
805,244	51,3
805,664	51,12
806,084	50,72
806,503	50,51
806,923	50,65
807,342	50,89
807,761	50,51
808,18	50,91
808,599	50,97
809,018	50,86
809,437	51,18
809,856	50,69
810,275	50,93
810,693	51
811,112	51,12
811,53	50,78
811,949	51,01
812,367	50,98
812,785	50,28
813,203	50,71
813,621	51,05
814,039	50,88
814,457	50,38
814,874	50,82
815,292	50,53
815,709	50,41
816,127	50,59
816,544	50,63
816,961	50,24
817,378	51,14
817,795	50,61
818,212	50,74
818,629	50,66
819,046	50,64
819,462	50,89
819,879	50,89
820,295	50,89
820,712	51,14
821,128	50,88
821,544	50,53
821,96	50,35
822,376	51,28
822,792	50,41
823,208	50,48
823,624	50,43
824,039	50,53
824,455	51,11
824,87	50,3
825,286	50,95
825,701	50,32
826,116	50,74
826,531	50,56
826,946	50,57
827,361	50,45
827,776	50,63
828,19	50,37
828,605	50,05
829,02	50,31
829,434	50,27
829,848	50,57
830,263	50,69
830,677	50,7
831,091	50,73
831,505	50,59
831,919	50,76
832,332	50,55
832,746	50,47
833,16	50,7
833,573	50,33
833,987	50,25
834,4	50,3
834,813	50,27
835,226	50,39
835,639	49,95
836,052	51,08
836,465	50,67
836,878	50,46
837,29	50,44
837,703	50,69
838,116	50,3
838,528	50,39
838,94	49,97
839,352	50,7
839,765	50,52
840,177	50,79
840,589	50,5
841	50,68
841,412	50,87
841,824	50,7
842,235	50,59
842,647	50,35
843,058	50,16
843,47	50,31
843,881	50,44
844,292	50,33
844,703	50,46
845,114	49,75
845,525	50,59
845,935	50,28
846,346	50,6
846,757	50,14
847,167	50,01
847,577	50,34
847,988	50,58
848,398	49,98
848,808	50,57
849,218	50,1
849,628	50,44
850,038	49,8
850,448	50,19
850,857	49,97
851,267	50,67
851,676	50,22
852,086	50,51
852,495	50,49
852,904	50,45
853,313	50,53
853,722	50,29
854,131	50,62
854,54	50,46
854,949	50,21
855,357	50,47
855,766	50,63
856,174	50,36
856,583	50,48
856,991	50,19
857,399	50,07
857,807	50,42
858,215	50,05
858,623	50,1
859,031	50,06
859,439	50,04
859,846	50,32
860,254	50,38
860,661	50,3
861,069	50,31
861,476	50,72
861,883	50,33
862,29	50,43
862,697	50,43
863,104	50,16
863,511	50,28
863,918	50,33
864,325	50,46
864,731	50,31
865,138	50,58
865,544	50,48
865,95	50,15
866,357	50,14
866,763	50,4
867,169	50,68
867,575	50,37
867,98	50,02
868,386	50,32
868,792	50,4
869,197	50,69
869,603	50,06
870,008	50,23
870,414	50,28
870,819	50,73
871,224	49,81
871,629	50,23
872,034	50,11
872,439	50,01
872,844	49,89
873,248	50,38
873,653	50,65
874,057	49,51
874,462	50,15
874,866	50,09
875,27	50,68
875,674	50,46
876,078	50,32
876,482	50,05
876,886	50
877,29	50,08
877,694	50,04
878,097	50,18
878,501	50,46
878,904	49,81
879,308	50,08
879,711	49,96
880,114	50,06
880,517	50,24
880,92	49,9
881,323	50,04
881,726	50,01
882,128	50,43
882,531	50,53
882,934	50,5
883,336	49,94
883,738	49,76
884,141	50,43
884,543	50,35
884,945	50,23
885,347	49,85
885,749	50,14
886,151	49,99
886,552	50,16
886,954	49,63
887,355	49,94
887,757	49,68
888,158	50,55
888,56	50,53
888,961	50,29
889,362	50,18
889,763	50,31
890,164	50,22
890,565	49,86
890,965	50,69
891,366	50
891,767	50,29
892,167	50,12
892,567	50,57
892,968	50,09
893,368	50
893,768	49,68
894,168	49,98
894,568	49,78
894,968	50,28
895,368	50,3
895,767	50,35
896,167	50,33
896,566	50,35
896,966	50,26
897,365	49,87
897,764	50,61
898,164	49,93
898,563	50
898,962	49,95
899,361	50,26
899,759	50,18
900,158	50,45
900,557	50,22
900,955	50,24
901,354	50,59
901,752	50,09
902,15	50,32
902,548	50,07
902,947	49,93
903,345	50
903,742	50,58
904,14	49,73
904,538	50,16
904,936	50,4
905,333	50,08
905,731	50,22
906,128	50,25
906,525	49,71
906,923	50,57
907,32	49,87
907,717	49,72
908,114	50,21
908,511	50,17
908,907	50,16
909,304	49,75
909,701	50,59
910,097	50,52
910,494	49,86
910,89	50,08
911,286	49,95
911,682	49,73
912,078	50,47
912,474	50,15
912,87	49,23
913,266	50,28
913,662	50,18
914,058	50,52
914,453	49,93
914,849	50,26
915,244	50,43
915,639	50,43
916,034	50,69
916,43	49,71
916,825	50,44
917,22	49,91
917,614	50,64
918,009	49,98
918,404	50,11
918,798	49,99
919,193	50,62
919,587	50,24
919,982	50,25
920,376	50,1
920,77	50,14
921,164	50,04
921,558	50,15
921,952	50,58
922,346	50,21
922,74	50,33
923,133	50,54
923,527	50,01
923,92	50,01
924,314	50,15
924,707	50,25
925,1	49,61
925,493	50,16
925,886	50,22
926,279	49,71
926,672	49,51
927,065	50,53
927,457	50,65
927,85	50,58
928,243	50,18
928,635	49,49
929,027	49,78
929,42	50,03
929,812	50
930,204	50,24
930,596	50,34
930,988	50,16
931,379	50,06
931,771	50,39
932,163	49,62
932,554	50,15
932,946	50,62
933,337	50,25
933,729	49,28
934,12	50,22
934,511	49,76
934,902	50,04
935,293	50,44
935,684	49,87
936,075	50,81
936,465	50,11
936,856	49,65
937,246	50,09
937,637	50,7
938,027	50,5
938,417	49,37
938,808	49,72
939,198	50,24
939,588	50,33
939,978	50,11
940,368	50,3
940,757	49,22
941,147	50,04
941,537	50,36
941,926	49,92
942,315	49,46
942,705	50,69
943,094	50,42
943,483	52,01
943,872	50,28
944,261	49,46
944,65	49,78
945,039	49,81
945,428	50,16
945,816	50,82
946,205	50,03
946,593	50,29
946,982	50,03
947,37	50,05
947,758	49,98
948,146	49,76
948,534	50,15
948,922	50,24
949,31	50,57
949,698	49,68
950,086	49,87
950,473	49,7
950,861	49,87
951,248	49,02
951,636	50,15
952,023	49,41
952,41	48,37
952,797	49,66
953,184	49,23
953,571	49,45
953,958	49,59
954,345	49,68
954,731	49,54
955,118	49,65
955,505	48,54
955,891	49,23
956,277	49,24
956,664	48,87
957,05	49,38
957,436	48,93
957,822	48,6
958,208	49,23
958,594	49,22
958,979	48,77
959,365	49,88
959,751	48,92
960,136	49,32
960,522	49,91
960,907	49,25
961,292	49,03
961,677	47,87
962,062	49,3
962,447	48,05
962,832	48,1
963,217	49,59
963,602	48,56
963,986	48,23
964,371	49,16
964,756	48,34
965,14	48,67
965,524	48,97
965,908	48,82
966,293	48,52
966,677	49,12
967,061	49,35
967,445	48,48
967,828	49,08
968,212	48,77
968,596	49,17
968,979	49,06
969,363	48,92
969,746	48,47
970,129	48,24
970,513	48,44
970,896	48,89
971,279	48,6
971,662	48,58
972,045	48,29
972,428	48,61
972,81	48,69
973,193	49,43
973,575	49,18
973,958	48,18
974,34	48,39
974,723	48,59
975,105	48,53
975,487	48,77
975,869	48,6
976,251	48,5
976,633	48,98
977,015	49,61
977,396	48,78
977,778	48,33
978,16	49,3
978,541	48,97
978,922	49,32
979,304	50,01
979,685	48,23
980,066	48,46
980,447	49,04
980,828	48,67
981,209	49,05
981,59	49,59
981,97	47,94
982,351	48,64
982,732	48,66
983,112	48,69
983,493	49,47
983,873	48,87
984,253	48,74
984,633	49,23
985,013	48,49
985,393	48,77
985,773	49
986,153	48,95
986,533	48,67
986,912	48,6
987,292	48,63
987,671	49,14
988,051	48,4
988,43	48,93
988,809	49,58
989,188	49,04
989,567	49,08
989,946	49,06
990,325	49,58
990,704	49,24
991,083	49,3
991,461	49,26
991,84	49,27
992,218	49,22
992,597	49,06
992,975	49,43
993,353	49,34
993,732	48,43
994,11	48,8
994,488	49,23
994,866	49,99
995,243	49,75
995,621	48,92
995,999	49,28
996,376	49,31
996,754	48,86
997,131	49,46
997,509	49,61
997,886	48,91
998,263	48,69
998,64	49,18
999,017	49,22
999,394	49,3
999,771	49,62
1000,148	49,64
1000,524	49,45
1000,901	49,54
1001,277	50,47
1001,654	50,52
1002,03	50,03
1002,406	50,18
1002,783	49,51
1003,159	49,11
1003,535	49,24
1003,911	48,9
1004,286	49,79
1004,662	49,6
1005,038	49,31
1005,414	49,54
1005,789	49,53
1006,164	49,79
1006,54	49,52
1006,915	49,74
1007,29	48,78
1007,665	49,46
1008,04	49,88
1008,415	48,88
1008,79	48,93
1009,165	49,38
1009,54	48,89
1009,914	49,23
1010,289	49,56
1010,663	49,91
1011,038	49,91
1011,412	50,42
1011,786	48,83
1012,16	50,04
1012,535	50,63
1012,909	49,67
1013,282	49,25
1013,656	49,35
1014,03	50,6
1014,404	49,84
1014,777	49,82
1015,151	50,28
1015,524	51,04
1015,897	50,2
1016,271	49,35
1016,644	49,81
1017,017	50,62
1017,39	50,21
1017,763	51,11
1018,136	49,38
1018,508	50,57
1018,881	49,47
1019,254	49,75
1019,626	49,63
1019,999	50
1020,371	49,73
1020,743	49,99
1021,116	50,45
1021,488	50,39
1021,86	49,89
1022,232	50,76
1022,604	50,43
1022,975	50,49
1023,347	50,15
1023,719	50,7
1024,09	50,81
1024,462	50,64
1024,833	50,06
1025,204	49,67
1025,576	50,13
1025,947	49,8
1026,318	50,78
1026,689	50,04
1027,06	51,32
1027,431	50,23
1027,801	51,07
1028,172	50,22
1028,543	49,57
1028,913	49,99
1029,284	50,15
1029,654	51,02
1030,024	51
1030,394	50,23
1030,764	49,5
1031,135	50,35
1031,504	51,35
1031,874	50,62
1032,244	51,26
1032,614	50,15
1032,983	50,83
1033,353	50,61
1033,722	50,55
1034,092	50,79
1034,461	51,35
1034,83	51,54
1035,2	49,76
1035,569	50,72
1035,938	51,07
1036,307	51,11
1036,675	50,65
1037,044	51,32
1037,413	51,25
1037,781	49,96
1038,15	50,62
1038,518	51,45
1038,887	51,97
1039,255	49,72
1039,623	50,49
1039,991	50,94
1040,359	51,32
1040,727	50,79
1041,095	50,99
1041,463	52,02
1041,831	49,79
1042,198	49,91
1042,566	50,33
1042,933	51,43
1043,301	50,49
1043,668	51,1
1044,035	51,57
1044,402	52,84
1044,77	51,64
1045,137	50,2
1045,503	51,71
1045,87	51,5
1046,237	51,59
1046,604	52,06
1046,97	50,36
1047,337	50,1
1047,703	52,04
1048,07	51,06
1048,436	52,21
1048,802	49,73
1049,168	51,6
1049,534	51,28
1049,9	52,71
1050,266	51,65
1050,632	51,15
1050,998	51,29
1051,364	50,61
1051,729	51,2
1052,095	52,25
1052,46	50,97
1052,825	51,59
1053,191	51,57
1053,556	52,01
1053,921	51,69
1054,286	51,1
1054,651	52,2
1055,016	52,53
1055,381	52,64
1055,745	51,88
1056,11	52,04
1056,475	51,26
1056,839	51,71
1057,203	52,17
1057,568	51,12
1057,932	52,02
1058,296	54,73
1058,66	51,58
1059,024	51,83
1059,388	50,54
1059,752	51,46
1060,116	51,74
1060,48	52,47
1060,843	50,82
1061,207	52,15
1061,57	50,12
1061,934	54,26
1062,297	52,09
1062,66	52,91
1063,023	51,68
1063,386	53,85
1063,749	52,78
1064,112	53,1
1064,475	51,75
1064,838	52,31
1065,201	52,04
1065,563	53,03
1065,926	55
1066,288	55,2
1066,651	52,17
1067,013	53,97
1067,375	51,21
1067,737	52,3
1068,099	52,02
1068,461	53,16
1068,823	50,91
1069,185	49,61
1069,547	53,38
1069,909	52,63
1070,27	51,09
1070,632	53,77
1070,993	52,93
1071,355	52,57
1071,716	52,95
1072,077	53,6
1072,438	53,8
1072,799	53,45
1073,16	54,91
1073,521	52,78
1073,882	51,63
1074,243	53,71
1074,603	54,68
1074,964	51,51
1075,325	51,66
1075,685	53,94
1076,045	52,71
1076,406	52,63
1076,766	52,63
1077,126	52,29
1077,486	56,2
1077,846	52,8
1078,206	51,61
1078,566	53,34
1078,925	53,6
1079,285	51,43
1079,645	52,86
1080,004	52,61
1080,364	50,96
1080,723	52,46
1081,082	54,36
1081,442	53,83
1081,801	50,93
1082,16	53,27
1082,519	53,06
1082,878	52,43
1083,237	54,82
1083,595	52,73
1083,954	53,9
1084,313	54,31
1084,671	52,9
1085,03	53,27
1085,388	54,55
1085,746	54,76
1086,104	54,42
1086,463	53,81
1086,821	56,83
1087,179	53,96
1087,537	56,53
1087,894	52,39
1088,252	53,42
1088,61	54,5
1088,967	54,02
1089,325	53,63
1089,682	56,24
1090,04	54,17
1090,397	54,89
1090,754	54,99
1091,111	53,04
1091,469	54,67
1091,826	54,72
1092,182	51,95
1092,539	55,9
1092,896	56,79
1093,253	52
1093,609	53,87
1093,966	54,67
1094,322	54,59
1094,679	54,16
1095,035	57,03
1095,391	56,27
1095,748	55,7
1096,104	54,45
1096,46	56,88
1096,816	54,3
1097,171	57,19
1097,527	53,96
1097,883	56,82
1098,239	56,76
1098,594	57,24
1098,95	53,04
1099,305	55,78
1099,66	57,01
1100,016	55,31
1100,371	57,49
1100,726	56,16
1101,081	53,77
1101,436	55,11
1101,791	51,67
1102,146	56,17
1102,5	57,69
1102,855	54,05
1103,21	55,94
1103,564	55,36
1103,918	57,69
1104,273	57,72
1104,627	58,46
1104,981	59,58
1105,335	54,61
1105,69	57,12
1106,043	56,93
1106,397	55,37
1106,751	55,66
1107,105	56,03
1107,459	55,41
1107,812	56,75
1108,166	56
1108,519	58,13
1108,873	57,16
1109,226	55,98
1109,579	58,93
1109,932	53,96
1110,285	54,96
1110,638	57,06
1110,991	54,97
1111,344	56,14
1111,697	56,78
1112,05	57,09
1112,402	62,26
1112,755	59,95
1113,107	60,18
1113,46	58,48
1113,812	58,42
1114,164	61,9
1114,517	58,98
1114,869	90,73
1115,221	88,89
1115,573	74,45
1115,924	81,82
