Data from L_5_Relative__2__00200.txt Node

Date: Tue Jan 30 10:16:20 CET 2024
User: diatiterra
Spectrometer: HDX00911
Trigger mode: 0
Integration Time (sec): 6,000000E-3
Scans to average: 2
Nonlinearity correction enabled: false
Boxcar width: 0
Storing dark spectrum: false
XAxis mode: Wavelengths
Number of Pixels in Spectrum: 2068
>>>>>Begin Spectral Data<<<<<
194,468	99,45
195,025	104,03
195,581	92,42
196,138	83,44
196,694	86,07
197,251	75,33
197,807	78,33
198,363	73,77
198,919	80
199,474	76,27
200,03	70,87
200,586	73,13
201,141	79,83
201,696	76,05
202,251	69,65
202,806	71,06
203,361	78,46
203,916	67,22
204,471	74,26
205,025	77,41
205,58	73,73
206,134	72,91
206,688	74,68
207,242	86,94
207,796	74,15
208,35	84,93
208,904	72,98
209,457	74,81
210,011	75,11
210,564	75,23
211,117	79,57
211,67	76,11
212,223	72,91
212,776	77,12
213,329	72,15
213,881	74,03
214,434	77,05
214,986	80,36
215,538	79,13
216,09	73,9
216,642	76,86
217,194	89,47
217,746	80,08
218,297	71,85
218,849	75,29
219,4	69,26
219,951	92,04
220,502	80,16
221,053	79,24
221,604	74,41
222,155	80,93
222,705	71,49
223,256	79,03
223,806	81,25
224,356	84,31
224,906	79,3
225,456	73,11
226,006	80,8
226,556	87,61
227,106	74,69
227,655	74,88
228,204	87,78
228,754	73
229,303	76,58
229,852	80,79
230,401	76,68
230,949	66,67
231,498	79,91
232,047	79,1
232,595	71,89
233,143	84,65
233,691	72,44
234,239	79,39
234,787	82,06
235,335	76,62
235,883	76,58
236,43	70,76
236,978	86,52
237,525	78,72
238,072	74,89
238,619	65,47
239,166	77,16
239,713	74,68
240,26	78,23
240,806	74,14
241,353	77,35
241,899	74,9
242,445	73,64
242,991	75,41
243,537	74,03
244,083	76,92
244,629	66,08
245,174	75,74
245,72	72,59
246,265	84,62
246,81	73,78
247,355	77,01
247,9	75,42
248,445	71,03
248,99	66,81
249,534	66,42
250,079	84,72
250,623	70,8
251,168	74,29
251,712	72,05
252,256	68,18
252,8	79,2
253,343	72,87
253,887	79,22
254,43	71,85
254,974	75,2
255,517	72,12
256,06	66,24
256,603	80,25
257,146	73,08
257,689	77,97
258,232	72,85
258,774	74,45
259,317	78,88
259,859	78,57
260,401	74,3
260,943	70,54
261,485	70,91
262,027	76,17
262,569	70,37
263,11	76,55
263,652	69,03
264,193	73,49
264,734	80,09
265,275	74,25
265,816	66,67
266,357	76,76
266,898	82,05
267,438	76,17
267,979	68,97
268,519	70,19
269,059	62,06
269,6	77,43
270,14	70,26
270,68	74,59
271,219	68,7
271,759	70,74
272,298	67,2
272,838	70,52
273,377	82,43
273,916	62,26
274,455	66,92
274,994	68,2
275,533	71,48
276,072	71,49
276,61	82,46
277,149	72,5
277,687	80,51
278,225	67,08
278,763	58,78
279,301	72,65
279,839	74,18
280,377	59,18
280,914	71,76
281,452	68,7
281,989	75,62
282,526	65,42
283,064	65,9
283,601	71,25
284,137	67,11
284,674	74,06
285,211	75,55
285,747	71,26
286,284	81,47
286,82	71,37
287,356	62,67
287,892	67,08
288,428	72,1
288,964	75,1
289,5	73,02
290,035	64,73
290,571	73,15
291,106	76,02
291,641	77,29
292,176	72,8
292,711	73,28
293,246	72,03
293,781	65,65
294,315	75,81
294,85	64,94
295,384	73,58
295,918	69,6
296,453	66,4
296,987	70,34
297,52	61,54
298,054	73,3
298,588	68
299,121	77,48
299,655	75
300,188	65,68
300,721	72,77
301,254	67,71
301,787	75
302,32	65,81
302,853	74,04
303,385	70,59
303,918	72,44
304,45	74,24
304,982	72,8
305,514	67,07
306,046	76,11
306,578	67,63
307,11	69,32
307,641	65,55
308,173	74,35
308,704	84,15
309,236	79,13
309,767	73,75
310,298	68,8
310,829	73,26
311,359	78,32
311,89	71,15
312,421	76,33
312,951	73,64
313,481	79,62
314,012	67,83
314,542	68,47
315,072	78,97
315,601	69,76
316,131	71,24
316,661	71,04
317,19	59,59
317,72	70,34
318,249	70,18
318,778	78,19
319,307	69,76
319,836	70,8
320,365	69,79
320,893	74,41
321,422	74,89
321,95	77,83
322,479	70,68
323,007	70,92
323,535	70,57
324,063	71,21
324,591	81,23
325,118	66,23
325,646	81,47
326,173	80,36
326,701	67,73
327,228	74,69
327,755	71,9
328,282	78,64
328,809	76,32
329,336	79,15
329,862	74,82
330,389	71,37
330,915	74,03
331,441	79,32
331,968	70,12
332,494	73,33
333,02	66,53
333,545	67,21
334,071	73,53
334,597	68,18
335,122	71,62
335,648	78
336,173	72,46
336,698	70,82
337,223	73,24
337,748	73,73
338,272	72,53
338,797	70,52
339,322	78,21
339,846	73,49
340,37	76,42
340,894	69,62
341,419	69,76
341,942	75,58
342,466	63,72
342,99	69,2
343,514	72,06
344,037	63,91
344,56	68,92
345,084	66,95
345,607	73,58
346,13	67,74
346,653	57,56
347,175	79,24
347,698	68,13
348,221	74,9
348,743	69,81
349,265	72,24
349,787	68,64
350,309	64,23
350,831	62,32
351,353	67,35
351,875	67,4
352,397	60,34
352,918	71,71
353,439	68,92
353,961	63,99
354,482	65,77
355,003	60,57
355,524	67,91
356,044	63,64
356,565	67,01
357,086	58,12
357,606	53,67
358,126	64,21
358,646	56,9
359,167	62,79
359,687	60,73
360,206	63,26
360,726	59,94
361,246	54,8
361,765	55,66
362,285	62,08
362,804	54,57
363,323	61,86
363,842	65,35
364,361	56,97
364,88	62,46
365,398	54,08
365,917	52,66
366,435	51,24
366,954	58,05
367,472	54,65
367,99	50,14
368,508	60
369,026	59,77
369,544	60,87
370,061	49,87
370,579	55,8
371,096	54,71
371,613	58,18
372,131	56,4
372,648	55,58
373,165	56,73
373,681	47,64
374,198	59,24
374,715	52,06
375,231	55,8
375,747	53,09
376,264	51,46
376,78	52,13
377,296	52,14
377,812	50,37
378,327	51,41
378,843	47,24
379,359	48,68
379,874	49,06
380,389	48,17
380,905	50,11
381,42	45,71
381,935	50,86
382,449	43,75
382,964	48,39
383,479	46,97
383,993	49,6
384,508	42,5
385,022	47,08
385,536	45,35
386,05	44,16
386,564	42,28
387,078	43,28
387,592	41,15
388,105	39,57
388,619	42,81
389,132	38,27
389,645	37,33
390,158	40,16
390,671	44,2
391,184	38,54
391,697	37,84
392,21	38,29
392,722	34,78
393,235	35,03
393,747	36,8
394,259	35,11
394,771	41,08
395,283	35,25
395,795	33,2
396,307	34,97
396,818	34,29
397,33	34,55
397,841	32,38
398,353	31,48
398,864	31,86
399,375	33,37
399,886	31,14
400,397	31,18
400,907	31,16
401,418	30,2
401,928	30,22
402,439	27,03
402,949	27,5
403,459	27,45
403,969	27,22
404,479	26,82
404,989	26,3
405,498	26,21
406,008	26,08
406,517	24,66
407,027	22,4
407,536	23,97
408,045	21,21
408,554	20,76
409,063	20,64
409,572	19,39
410,08	18,91
410,589	18,54
411,097	17,15
411,606	17,67
412,114	14,2
412,622	14,84
413,13	15,5
413,638	14,6
414,145	16,27
414,653	14,64
415,16	14,36
415,668	14,53
416,175	14,45
416,682	12,49
417,189	12,19
417,696	12,17
418,203	12,66
418,71	11,29
419,216	11,68
419,723	11,87
420,229	12,01
420,735	10,97
421,242	10,97
421,748	11,2
422,254	11,16
422,759	9,59
423,265	10,23
423,771	10,09
424,276	9,77
424,781	10,29
425,287	10,17
425,792	10,08
426,297	9,3
426,802	10,82
427,306	10,38
427,811	9,28
428,316	10,61
428,82	9,84
429,324	9,39
429,829	9,29
430,333	9,54
430,837	9,44
431,34	9,76
431,844	8,76
432,348	9,47
432,851	9,83
433,355	9,11
433,858	9,77
434,361	8,63
434,864	9,3
435,367	9,46
435,87	8,88
436,373	8,88
436,876	9,22
437,378	8,57
437,88	8,87
438,383	8,92
438,885	8,71
439,387	8,53
439,889	8,52
440,391	8,43
440,892	8,5
441,394	9,07
441,896	8,54
442,397	8,47
442,898	8,67
443,399	8,56
443,9	8,43
444,401	8,43
444,902	8,17
445,403	8,33
445,903	8,41
446,404	8,86
446,904	8,28
447,405	8,3
447,905	8,67
448,405	8,86
448,905	9,09
449,404	8,19
449,904	8,16
450,404	8,74
450,903	8,48
451,403	8,76
451,902	8,7
452,401	8,47
452,9	8,72
453,399	8,8
453,898	8,52
454,396	8,62
454,895	8,59
455,393	8,62
455,892	8,84
456,39	8,19
456,888	9,24
457,386	8,6
457,884	8,49
458,382	8,58
458,879	8,91
459,377	8,71
459,874	8,8
460,372	8,9
460,869	9,13
461,366	8,7
461,863	9,01
462,36	8,52
462,857	8,49
463,353	8,92
463,85	8,64
464,346	8,62
464,843	8,63
465,339	8,73
465,835	8,63
466,331	8,05
466,827	8,24
467,323	8,53
467,818	8,56
468,314	8,84
468,809	8,17
469,305	8,49
469,8	8,67
470,295	8,82
470,79	8,55
471,285	8,64
471,78	8,35
472,274	8,36
472,769	8,61
473,263	7,85
473,758	8,54
474,252	8,27
474,746	8,04
475,24	8,7
475,734	8,37
476,228	8,16
476,721	8,82
477,215	8,57
477,708	8,16
478,202	8,42
478,695	8,84
479,188	8,54
479,681	8,57
480,174	8,21
480,667	8,7
481,159	8,81
481,652	8,34
482,144	8,34
482,637	8,11
483,129	8,32
483,621	8,75
484,113	8,47
484,605	8,65
485,097	8,69
485,588	8,67
486,08	8,4
486,571	8,65
487,063	8,57
487,554	8,68
488,045	8,32
488,536	8,57
489,027	8,88
489,518	8,44
490,008	8,78
490,499	8,88
490,989	8,69
491,48	8,94
491,97	9,17
492,46	8,54
492,95	8,86
493,44	9,06
493,93	9,14
494,419	8,88
494,909	8,8
495,398	9,08
495,888	9,09
496,377	9,43
496,866	9,89
497,355	9,09
497,844	9,46
498,333	9,72
498,821	9,72
499,31	9,82
499,798	9,67
500,287	10,16
500,775	10,08
501,263	10,18
501,751	10,17
502,239	10,51
502,727	10,5
503,215	10,61
503,702	10,82
504,19	10,91
504,677	11,48
505,164	11,18
505,651	11,51
506,139	11,8
506,625	11,96
507,112	12,35
507,599	12,44
508,086	12,78
508,572	12,72
509,058	13,16
509,545	13,34
510,031	13,07
510,517	13,72
511,003	13,48
511,489	13,99
511,974	14,44
512,46	14,88
512,946	14,83
513,431	14,88
513,916	15,5
514,401	15,73
514,887	15,86
515,371	16,13
515,856	16,62
516,341	16,94
516,826	17,18
517,31	17,82
517,795	18,48
518,279	17,92
518,763	18,75
519,247	18,59
519,731	19,23
520,215	18,96
520,699	19,58
521,182	20,29
521,666	20,36
522,149	20,87
522,633	21,48
523,116	21,62
523,599	22,05
524,082	22,44
524,565	22,91
525,048	22,95
525,53	22,51
526,013	23,65
526,495	24,09
526,978	24,2
527,46	24,27
527,942	24,63
528,424	25,13
528,906	25,43
529,388	24,78
529,87	24,98
530,351	25,38
530,833	25,83
531,314	25,97
531,795	26,2
532,277	25,97
532,758	26,22
533,238	27,45
533,719	26,69
534,2	27,5
534,681	26,95
535,161	27,32
535,642	26,82
536,122	27,03
536,602	26,92
537,082	27,47
537,562	27,16
538,042	27,64
538,522	27
539,001	27,35
539,481	27,9
539,96	27,32
540,44	27,57
540,919	27,92
541,398	27,65
541,877	28,16
542,356	28,5
542,835	27,77
543,313	27,94
543,792	27,87
544,27	28,44
544,749	27,82
545,227	28,33
545,705	28,58
546,183	28,76
546,661	28,43
547,139	28,44
547,616	28,84
548,094	28,78
548,571	28,22
549,049	28,58
549,526	29,07
550,003	28,64
550,48	28,8
550,957	28,99
551,434	28,84
551,911	29,05
552,387	29,06
552,864	29,24
553,34	29,17
553,817	28,97
554,293	29,34
554,769	28,64
555,245	28,66
555,721	28,95
556,197	28,69
556,672	28,72
557,148	28,68
557,623	28,49
558,099	28,73
558,574	28,84
559,049	28,46
559,524	28,98
559,999	28,38
560,474	28,59
560,948	28,16
561,423	28,29
561,897	28,07
562,372	28,21
562,846	27,74
563,32	27,88
563,794	28,03
564,268	27,58
564,742	27,81
565,216	27,11
565,69	27,21
566,163	27,05
566,636	26,93
567,11	27,15
567,583	26,59
568,056	25,68
568,529	26,11
569,002	26,02
569,475	26,41
569,947	25,8
570,42	25,82
570,892	25,46
571,365	25,32
571,837	24,98
572,309	25,22
572,781	24,8
573,253	24,57
573,725	24,11
574,197	24,34
574,668	24,2
575,14	23,85
575,611	23,69
576,082	23,09
576,554	23,4
577,025	23,16
577,496	23,15
577,967	22,6
578,437	22,59
578,908	22,54
579,379	22,29
579,849	21,86
580,319	22,26
580,79	22,08
581,26	21,79
581,73	21,17
582,2	21,6
582,669	21,75
583,139	21,26
583,609	21,42
584,078	21,18
584,548	21,08
585,017	21,35
585,486	20,47
585,955	20,53
586,424	20,74
586,893	20,96
587,362	20,39
587,83	20,08
588,299	20,32
588,767	20,33
589,236	20,4
589,704	20,14
590,172	19,88
590,64	19,67
591,108	19,46
591,576	19,84
592,043	19,49
592,511	19,44
592,978	19,57
593,446	19,66
593,913	19,34
594,38	19,91
594,847	19,3
595,314	19,48
595,781	19,59
596,248	19,3
596,715	19,05
597,181	19,08
597,647	19,24
598,114	18,83
598,58	19,14
599,046	19,24
599,512	18,82
599,978	18,82
600,444	19,22
600,91	18,88
601,375	19,2
601,841	18,65
602,306	19,06
602,771	18,43
603,236	18,74
603,702	18,13
604,167	18,28
604,631	18,32
605,096	18,19
605,561	17,9
606,025	17,9
606,49	17,69
606,954	17,84
607,418	17,72
607,882	17,81
608,347	17,63
608,81	17,52
609,274	17,4
609,738	17,18
610,202	17,3
610,665	17,2
611,128	16,88
611,592	16,82
612,055	16,78
612,518	17,13
612,981	16,7
613,444	16,52
613,907	16,41
614,369	16,37
614,832	15,96
615,294	16,08
615,757	16,19
616,219	15,98
616,681	15,68
617,143	15,72
617,605	15,62
618,067	15,31
618,529	15,59
618,99	15,29
619,452	15,5
619,913	15,47
620,375	15,32
620,836	15
621,297	14,95
621,758	15,12
622,219	14,79
622,68	14,76
623,14	14,67
623,601	14,84
624,061	14,78
624,522	14,79
624,982	14,7
625,442	14,7
625,902	14,34
626,362	14,59
626,822	14,71
627,282	14,74
627,742	14,52
628,201	14,42
628,661	14,68
629,12	14,54
629,579	14,22
630,038	14,41
630,497	14,36
630,956	14,28
631,415	14,3
631,874	14,34
632,332	14,21
632,791	14,18
633,249	14,2
633,708	14
634,166	14
634,624	13,86
635,082	13,9
635,54	13,89
635,998	13,82
636,455	13,83
636,913	13,73
637,37	13,85
637,828	13,48
638,285	13,12
638,742	13,29
639,199	13,07
639,656	13,06
640,113	12,92
640,57	12,79
641,027	12,59
641,483	12,46
641,94	12,39
642,396	12,41
642,852	12,23
643,309	11,93
643,765	11,96
644,221	11,86
644,676	11,76
645,132	11,64
645,588	11,27
646,043	11,24
646,499	11,27
646,954	11,26
647,409	11,1
647,864	10,69
648,319	10,67
648,774	10,59
649,229	10,51
649,684	10,54
650,139	10,17
650,593	10,35
651,047	10,32
651,502	10,2
651,956	10,07
652,41	9,99
652,864	9,92
653,318	9,96
653,772	9,81
654,225	9,77
654,679	9,49
655,133	9,74
655,586	9,8
656,039	9,37
656,492	9,3
656,946	9,46
657,399	9,07
657,851	9,06
658,304	9,19
658,757	8,96
659,209	8,89
659,662	9,01
660,114	8,8
660,567	8,76
661,019	8,64
661,471	8,52
661,923	8,45
662,375	8,32
662,826	8,22
663,278	8,24
663,73	8,17
664,181	8,22
664,632	8,13
665,084	8,03
665,535	7,99
665,986	7,85
666,437	7,74
666,888	7,87
667,338	7,97
667,789	7,84
668,24	7,84
668,69	7,79
669,14	7,9
669,591	7,8
670,041	7,92
670,491	8
670,941	7,89
671,391	7,89
671,84	8,03
672,29	8,15
672,74	7,9
673,189	8,14
673,638	8,26
674,088	8,22
674,537	8,41
674,986	8,43
675,435	8,51
675,883	8,58
676,332	8,54
676,781	8,81
677,229	8,98
677,678	9
678,126	8,99
678,574	9,3
679,022	9,32
679,47	9,36
679,918	9,5
680,366	9,61
680,814	9,82
681,261	9,87
681,709	10,05
682,156	9,98
682,604	10,29
683,051	10,44
683,498	10,57
683,945	10,71
684,392	10,65
684,839	11,05
685,286	11,01
685,732	11,41
686,179	11,25
686,625	11,52
687,071	11,73
687,518	11,78
687,964	12,1
688,41	12,4
688,856	12,63
689,301	12,89
689,747	13,17
690,193	13,84
690,638	13,86
691,084	14,41
691,529	14,7
691,974	15,07
692,419	15,56
692,864	16,07
693,309	16,61
693,754	17,04
694,199	17,78
694,643	18,06
695,088	18,5
695,532	19,28
695,977	19,67
696,421	20,18
696,865	20,9
697,309	21,25
697,753	21,93
698,197	22,75
698,64	23,18
699,084	23,84
699,527	24,18
699,971	24,87
700,414	25,7
700,857	25,47
701,3	26,69
701,743	26,76
702,186	27,3
702,629	27,84
703,072	28,25
703,515	28,63
703,957	29,71
704,399	29,75
704,842	30,15
705,284	30,78
705,726	30,89
706,168	31,78
706,61	31,67
707,052	32,22
707,494	32,77
707,935	33,05
708,377	33,77
708,818	33,71
709,26	34,51
709,701	34,61
710,142	35,2
710,583	35,01
711,024	35,49
711,465	36,01
711,905	36,49
712,346	36,39
712,787	36,55
713,227	37,33
713,667	37,65
714,108	37,69
714,548	38,49
714,988	38,46
715,428	38,59
715,868	38,82
716,307	39,29
716,747	39,91
717,186	40,12
717,626	40,13
718,065	40,8
718,504	40,9
718,944	40,83
719,383	41
719,822	41,43
720,261	41,63
720,699	41,55
721,138	42,16
721,576	42,07
722,015	42,6
722,453	42,74
722,892	42,62
723,33	43,08
723,768	43,03
724,206	43,22
724,644	43,2
725,081	43,5
725,519	43,68
725,957	43,89
726,394	43,74
726,832	44,19
727,269	44,73
727,706	44,15
728,143	44,84
728,58	44,78
729,017	44,91
729,454	44,84
729,89	44,49
730,327	44,95
730,764	45,11
731,2	45,14
731,636	45,39
732,072	45,38
732,509	45,12
732,945	45,66
733,38	45,68
733,816	45,72
734,252	45,84
734,688	45,47
735,123	45,86
735,559	45,8
735,994	45,69
736,429	45,83
736,864	46,1
737,299	46,09
737,734	45,94
738,169	46,15
738,604	46,14
739,038	45,89
739,473	46,52
739,907	46,3
740,342	46,34
740,776	46,11
741,21	46
741,644	45,9
742,078	46,56
742,512	46,28
742,946	46,22
743,379	46,44
743,813	46,65
744,246	46,08
744,68	46,62
745,113	46,53
745,546	45,74
745,979	46,01
746,412	46,22
746,845	45,86
747,278	45,89
747,711	45,9
748,143	46,14
748,576	45,89
749,008	45,78
749,441	45,99
749,873	45,84
750,305	45,76
750,737	45,82
751,169	45,93
751,601	45,91
752,032	45,68
752,464	45,52
752,896	45,18
753,327	45,5
753,758	45,45
754,19	45,48
754,621	45,4
755,052	45,35
755,483	45,36
755,914	44,95
756,344	45,14
756,775	45,02
757,206	45,32
757,636	44,93
758,066	45,29
758,497	45,09
758,927	44,95
759,357	45,36
759,787	44,97
760,217	45,16
760,647	44,42
761,076	45,08
761,506	44,71
761,935	44,88
762,365	44,5
762,794	44,75
763,223	44,79
763,653	44,5
764,082	44,46
764,51	44,41
764,939	44,73
765,368	44,44
765,797	44,77
766,225	44,56
766,654	44,32
767,082	44,55
767,51	44,59
767,938	44,27
768,367	44,59
768,795	44,17
769,222	44,34
769,65	44,06
770,078	44,27
770,505	44,03
770,933	43,7
771,36	43,96
771,788	44,04
772,215	44,32
772,642	43,9
773,069	43,81
773,496	43,98
773,923	44,07
774,349	43,71
774,776	43,84
775,203	43,88
775,629	43,68
776,055	44,15
776,482	43,69
776,908	43,98
777,334	43,72
777,76	43,98
778,186	43,44
778,611	43,56
779,037	43,65
779,463	43,79
779,888	43,37
780,314	43,52
780,739	43,28
781,164	43,6
781,589	43,42
782,014	43,14
782,439	43,78
782,864	43,24
783,289	43,66
783,713	43,06
784,138	43,84
784,562	43,5
784,987	43,48
785,411	43,33
785,835	43,63
786,259	43,56
786,683	43,5
787,107	43,42
787,531	43,61
787,954	43,43
788,378	43,59
788,802	43
789,225	43,46
789,648	43,09
790,071	43,48
790,495	43,23
790,918	43,26
791,34	43,24
791,763	43,31
792,186	43,52
792,609	43,5
793,031	43,04
793,454	43,59
793,876	42,99
794,298	43,54
794,721	43,39
795,143	42,9
795,565	43,5
795,986	42,92
796,408	42,6
796,83	43,2
797,252	43,07
797,673	42,77
798,094	43,44
798,516	43
798,937	43,26
799,358	43,25
799,779	42,98
800,2	42,77
800,621	42,95
801,042	43,43
801,462	43,23
801,883	42,91
802,303	42,77
802,724	43
803,144	43,16
803,564	42,87
803,984	42,79
804,404	43,11
804,824	43,19
805,244	43,14
805,664	42,75
806,084	42,98
806,503	43,07
806,923	42,83
807,342	42,99
807,761	42,67
808,18	43,23
808,599	43,28
809,018	42,97
809,437	43,17
809,856	42,93
810,275	43,26
810,693	43,07
811,112	42,99
811,53	42,96
811,949	42,77
812,367	43,1
812,785	42,69
813,203	42,47
813,621	42,75
814,039	42,65
814,457	42,97
814,874	42,39
815,292	42,99
815,709	42,78
816,127	42,8
816,544	42,92
816,961	42,6
817,378	42,72
817,795	42,7
818,212	43,14
818,629	42,24
819,046	42,38
819,462	42,82
819,879	42,81
820,295	42,74
820,712	42,94
821,128	42,81
821,544	42,43
821,96	42,76
822,376	42,92
822,792	42,89
823,208	42,53
823,624	42,74
824,039	42,83
824,455	42,9
824,87	42,48
825,286	42,84
825,701	42,78
826,116	42,57
826,531	42,67
826,946	42,49
827,361	42,72
827,776	42,45
828,19	42,74
828,605	42
829,02	42,44
829,434	42,04
829,848	43,03
830,263	42,68
830,677	42,35
831,091	42,61
831,505	42,49
831,919	42,76
832,332	42,36
832,746	42,47
833,16	42,41
833,573	42,25
833,987	42,37
834,4	42,23
834,813	42,33
835,226	42,65
835,639	42,47
836,052	42,51
836,465	42,86
836,878	42,84
837,29	42,43
837,703	42,78
838,116	43,01
838,528	42,58
838,94	42,02
839,352	42,65
839,765	42,31
840,177	42,56
840,589	42,31
841	42,64
841,412	42,53
841,824	42,76
842,235	42,26
842,647	42,35
843,058	42,45
843,47	42,13
843,881	42,44
844,292	42,22
844,703	42,23
845,114	41,92
845,525	42,07
845,935	42,33
846,346	42,63
846,757	42,21
847,167	42,46
847,577	42,24
847,988	42,62
848,398	41,99
848,808	42,55
849,218	42,34
849,628	42,41
850,038	42,15
850,448	42,69
850,857	42,17
851,267	42,81
851,676	42,11
852,086	42,42
852,495	42,29
852,904	42,57
853,313	41,93
853,722	42,05
854,131	42,06
854,54	42,43
854,949	42,29
855,357	42,06
855,766	42,65
856,174	42,53
856,583	42,25
856,991	42,33
857,399	41,86
857,807	42,3
858,215	42,22
858,623	42,52
859,031	42,16
859,439	42,63
859,846	42,24
860,254	42,71
860,661	42,02
861,069	42,31
861,476	42,23
861,883	42,46
862,29	42,49
862,697	42,28
863,104	42,1
863,511	42,28
863,918	42,09
864,325	41,83
864,731	42,25
865,138	42,27
865,544	42,16
865,95	42
866,357	42,04
866,763	42,22
867,169	42,16
867,575	42,26
867,98	42,26
868,386	42,54
868,792	42,44
869,197	42,74
869,603	42,59
870,008	41,9
870,414	42,24
870,819	42,23
871,224	41,73
871,629	42,28
872,034	41,89
872,439	41,91
872,844	42,11
873,248	41,98
873,653	42,54
874,057	41,79
874,462	41,77
874,866	41,55
875,27	42,31
875,674	42,41
876,078	42
876,482	41,91
876,886	42,12
877,29	42,3
877,694	42,16
878,097	41,89
878,501	42,2
878,904	42,05
879,308	41,71
879,711	41,71
880,114	42,07
880,517	42,12
880,92	42,13
881,323	41,7
881,726	41,99
882,128	42,1
882,531	42,15
882,934	42,04
883,336	42,28
883,738	41,87
884,141	41,92
884,543	41,92
884,945	41,82
885,347	42,4
885,749	42,22
886,151	42,26
886,552	41,71
886,954	41,76
887,355	42,08
887,757	41,92
888,158	42,43
888,56	42,18
888,961	41,71
889,362	41,51
889,763	42,41
890,164	41,9
890,565	41,65
890,965	42,05
891,366	41,86
891,767	41,85
892,167	41,82
892,567	42,18
892,968	41,44
893,368	41,62
893,768	41,79
894,168	41,78
894,568	41,84
894,968	42,01
895,368	41,82
895,767	41,97
896,167	42,39
896,566	42,09
896,966	41,78
897,365	41,88
897,764	42,56
898,164	41,71
898,563	41,86
898,962	42,03
899,361	41,86
899,759	42,23
900,158	42,35
900,557	42,06
900,955	41,73
901,354	42,08
901,752	42,13
902,15	42,2
902,548	42,19
902,947	42,19
903,345	42,14
903,742	42,24
904,14	41,44
904,538	41,77
904,936	41,99
905,333	41,99
905,731	42,1
906,128	42,07
906,525	41,88
906,923	42,2
907,32	41,51
907,717	41,75
908,114	42
908,511	42,24
908,907	41,63
909,304	41,84
909,701	41,9
910,097	41,99
910,494	41,85
910,89	42,01
911,286	41,95
911,682	41,9
912,078	42,12
912,474	41,98
912,87	41,62
913,266	41,87
913,662	41,97
914,058	42,08
914,453	42,08
914,849	41,68
915,244	42,39
915,639	42,28
916,034	42,73
916,43	42,32
916,825	42,13
917,22	41,88
917,614	42,21
918,009	41,73
918,404	41,99
918,798	41,86
919,193	41,98
919,587	41,84
919,982	42,27
920,376	42,49
920,77	41,76
921,164	41,91
921,558	42,16
921,952	42,25
922,346	41,66
922,74	42,42
923,133	41,99
923,527	41,84
923,92	42,16
924,314	41,58
924,707	42,03
925,1	41,53
925,493	41,55
925,886	42,21
926,279	41,76
926,672	41,81
927,065	41,93
927,457	41,67
927,85	41,87
928,243	41,85
928,635	41,28
929,027	41,88
929,42	41,89
929,812	41,92
930,204	42,28
930,596	42,11
930,988	41,55
931,379	41,59
931,771	41,81
932,163	41,79
932,554	41,61
932,946	41,8
933,337	41,2
933,729	41,29
934,12	42,05
934,511	41,83
934,902	42,45
935,293	41,77
935,684	42,16
936,075	41,9
936,465	42,42
936,856	41,63
937,246	42,4
937,637	43,19
938,027	42,33
938,417	41,85
938,808	41,8
939,198	41,83
939,588	42,48
939,978	42,76
940,368	41,6
940,757	42,19
941,147	41,8
941,537	41,95
941,926	41,8
942,315	42,15
942,705	41,92
943,094	42,46
943,483	42,6
943,872	42,32
944,261	42,19
944,65	41,51
945,039	41,74
945,428	42,46
945,816	41,94
946,205	42,11
946,593	42,33
946,982	42,26
947,37	42,05
947,758	42,63
948,146	41,95
948,534	41,85
948,922	42
949,31	41,66
949,698	41,57
950,086	41,81
950,473	41,89
950,861	41,68
951,248	41,41
951,636	41,86
952,023	40,99
952,41	41,05
952,797	41,81
953,184	41,66
953,571	41,16
953,958	41,27
954,345	41,69
954,731	41,44
955,118	41,07
955,505	41,19
955,891	40,81
956,277	41,06
956,664	41,1
957,05	41,3
957,436	41,03
957,822	40,32
958,208	41,24
958,594	41,41
958,979	41,06
959,365	41,44
959,751	41,15
960,136	41,41
960,522	41,97
960,907	41,18
961,292	41,36
961,677	40,84
962,062	40,93
962,447	40,96
962,832	40,88
963,217	41,12
963,602	41,16
963,986	40,63
964,371	41,47
964,756	40,35
965,14	40,96
965,524	41,18
965,908	40,92
966,293	40,48
966,677	41,06
967,061	41,31
967,445	40,7
967,828	40,05
968,212	41,33
968,596	40,84
968,979	40,93
969,363	41,74
969,746	40,57
970,129	40,89
970,513	41,05
970,896	40,39
971,279	40,91
971,662	40,76
972,045	40,7
972,428	40,94
972,81	41,58
973,193	41,24
973,575	41,1
973,958	40,51
974,34	41,18
974,723	40,52
975,105	40,98
975,487	40,98
975,869	40,97
976,251	40,81
976,633	41,45
977,015	40,59
977,396	40,9
977,778	40,93
978,16	41,57
978,541	40,28
978,922	41,26
979,304	41,41
979,685	40,61
980,066	41,86
980,447	40,74
980,828	40,7
981,209	40,96
981,59	41,73
981,97	39,93
982,351	40,93
982,732	41,24
983,112	40,97
983,493	41,04
983,873	40,26
984,253	41,37
984,633	40,94
985,013	41,2
985,393	41,35
985,773	40,94
986,153	41,25
986,533	40,93
986,912	41,1
987,292	40,63
987,671	41
988,051	41,23
988,43	41,07
988,809	40,8
989,188	40,88
989,567	40,84
989,946	41
990,325	40,93
990,704	41,27
991,083	41,59
991,461	41,23
991,84	40,91
992,218	41,01
992,597	40,85
992,975	41,01
993,353	41,06
993,732	41,74
994,11	40,71
994,488	41,35
994,866	41,41
995,243	41,69
995,621	40,87
995,999	41,54
996,376	41,49
996,754	40,52
997,131	41,12
997,509	41,42
997,886	40,96
998,263	40,85
998,64	41,13
999,017	41,26
999,394	41,18
999,771	41,19
1000,148	41,36
1000,524	41,48
1000,901	41,87
1001,277	41,79
1001,654	41,52
1002,03	41,16
1002,406	42,15
1002,783	41,03
1003,159	41,14
1003,535	40,7
1003,911	41,32
1004,286	41,24
1004,662	41,57
1005,038	41,42
1005,414	41,31
1005,789	40,95
1006,164	41,42
1006,54	41,76
1006,915	41,68
1007,29	41,98
1007,665	40,99
1008,04	41,39
1008,415	40,64
1008,79	41,48
1009,165	40,52
1009,54	41,28
1009,914	41,53
1010,289	41,66
1010,663	41,4
1011,038	41,34
1011,412	41,9
1011,786	41,75
1012,16	42,21
1012,535	41,43
1012,909	42,06
1013,282	41,37
1013,656	41,92
1014,03	42,42
1014,404	40,98
1014,777	41,08
1015,151	41,25
1015,524	41,66
1015,897	42,15
1016,271	41,48
1016,644	41,94
1017,017	42,52
1017,39	41,97
1017,763	42,33
1018,136	41,99
1018,508	42,31
1018,881	41,96
1019,254	40,73
1019,626	41,95
1019,999	41,72
1020,371	40,95
1020,743	42,21
1021,116	41,7
1021,488	41,82
1021,86	41,38
1022,232	41,09
1022,604	41,78
1022,975	41,86
1023,347	42,64
1023,719	41,33
1024,09	42,52
1024,462	41,24
1024,833	42,1
1025,204	41,91
1025,576	42,06
1025,947	42,5
1026,318	42,23
1026,689	41,5
1027,06	42,5
1027,431	41,88
1027,801	41,69
1028,172	41,44
1028,543	42,02
1028,913	41,59
1029,284	42,06
1029,654	41,85
1030,024	42,36
1030,394	41,91
1030,764	41,04
1031,135	43,21
1031,504	42,27
1031,874	41,46
1032,244	42,9
1032,614	42,27
1032,983	42,72
1033,353	41,92
1033,722	42,46
1034,092	43,03
1034,461	42,51
1034,83	42,32
1035,2	41,31
1035,569	41,66
1035,938	41,7
1036,307	42,67
1036,675	43,04
1037,044	42,71
1037,413	41,9
1037,781	41,8
1038,15	42,21
1038,518	42,24
1038,887	42,67
1039,255	42,18
1039,623	41,86
1039,991	41,76
1040,359	42,66
1040,727	42,31
1041,095	42,24
1041,463	42,59
1041,831	42,91
1042,198	42,12
1042,566	41,51
1042,933	42,72
1043,301	41,85
1043,668	42,96
1044,035	42,38
1044,402	43,24
1044,77	42,29
1045,137	41,03
1045,503	42,67
1045,87	42,88
1046,237	42,8
1046,604	43,1
1046,97	41,89
1047,337	42,18
1047,703	42,71
1048,07	43,18
1048,436	42,2
1048,802	42,09
1049,168	42,96
1049,534	43,41
1049,9	43,58
1050,266	42,36
1050,632	43,15
1050,998	43,31
1051,364	42,37
1051,729	42,78
1052,095	42,72
1052,46	42,29
1052,825	41,76
1053,191	43,49
1053,556	43,82
1053,921	43,47
1054,286	42,39
1054,651	42,97
1055,016	43,39
1055,381	42,79
1055,745	43,03
1056,11	42,43
1056,475	42,41
1056,839	42,7
1057,203	44,27
1057,568	42,67
1057,932	45,24
1058,296	45,37
1058,66	44,06
1059,024	44,12
1059,388	42,5
1059,752	43,81
1060,116	42,31
1060,48	43,98
1060,843	43,18
1061,207	42,68
1061,57	43,07
1061,934	44,46
1062,297	44,53
1062,66	44,63
1063,023	44,53
1063,386	44,09
1063,749	45,09
1064,112	43,79
1064,475	43,1
1064,838	43,29
1065,201	44,47
1065,563	45,3
1065,926	44,75
1066,288	44,1
1066,651	42,88
1067,013	42,73
1067,375	43,97
1067,737	44,23
1068,099	43,5
1068,461	43,33
1068,823	44,62
1069,185	43,74
1069,547	44,76
1069,909	44,23
1070,27	44,68
1070,632	44,72
1070,993	42,93
1071,355	45,62
1071,716	44,94
1072,077	44,58
1072,438	43,67
1072,799	43,48
1073,16	46,53
1073,521	44,47
1073,882	42,19
1074,243	44,32
1074,603	45,4
1074,964	45,44
1075,325	44,49
1075,685	44,48
1076,045	44,28
1076,406	44,49
1076,766	46,16
1077,126	46,16
1077,486	44,83
1077,846	43,35
1078,206	45,16
1078,566	46,7
1078,925	43,38
1079,285	44,05
1079,645	44,11
1080,004	44,46
1080,364	44,46
1080,723	46,53
1081,082	45,55
1081,442	44
1081,801	47,3
1082,16	46,06
1082,519	45,88
1082,878	44,04
1083,237	46,32
1083,595	46,44
1083,954	45,12
1084,313	45
1084,671	45,85
1085,03	44,77
1085,388	47,57
1085,746	46,88
1086,104	44,18
1086,463	46,77
1086,821	47,99
1087,179	47,11
1087,537	47,18
1087,894	45,62
1088,252	43,66
1088,61	45,33
1088,967	47,17
1089,325	45,05
1089,682	44,92
1090,04	48,04
1090,397	47,1
1090,754	45,78
1091,111	46,14
1091,469	46,1
1091,826	47,69
1092,182	47,02
1092,539	47,17
1092,896	48,94
1093,253	46,26
1093,609	45,17
1093,966	47,04
1094,322	47,97
1094,679	46,5
1095,035	46,72
1095,391	46,63
1095,748	48,28
1096,104	48,86
1096,46	48,33
1096,816	48,52
1097,171	46,94
1097,527	47,26
1097,883	46,77
1098,239	46,69
1098,594	46,58
1098,95	45,49
1099,305	46,36
1099,66	47,48
1100,016	48,67
1100,371	48,41
1100,726	48,59
1101,081	47,48
1101,436	49,32
1101,791	45,54
1102,146	49,01
1102,5	49,23
1102,855	47,37
1103,21	47,54
1103,564	45,72
1103,918	51,61
1104,273	47,17
1104,627	50,04
1104,981	47,79
1105,335	45,66
1105,69	47,24
1106,043	48,03
1106,397	45,47
1106,751	49,86
1107,105	51,69
1107,459	44,69
1107,812	51,9
1108,166	49,8
1108,519	52,36
1108,873	51,2
1109,226	48,45
1109,579	51,31
1109,932	49
1110,285	48,95
1110,638	49,45
1110,991	46,51
1111,344	49,43
1111,697	48,55
1112,05	50,31
1112,402	51,21
1112,755	52,58
1113,107	51,86
1113,46	52,78
1113,812	52,09
1114,164	51,66
1114,517	54,6
1114,869	86,09
1115,221	81,25
1115,573	86,13
1115,924	79,87
