Data from A_2_0_Relative__2__00002.txt Node

Date: Mon Jan 29 12:44:29 CET 2024
User: diatiterra
Spectrometer: HDX00911
Trigger mode: 0
Integration Time (sec): 6,000000E-3
Scans to average: 4
Nonlinearity correction enabled: false
Boxcar width: 0
Storing dark spectrum: false
XAxis mode: Wavelengths
Number of Pixels in Spectrum: 2068
>>>>>Begin Spectral Data<<<<<
194,468	102,74
195,025	90,14
195,581	98,48
196,138	96,55
196,694	96,55
197,251	82,35
197,807	104,32
198,363	90,34
198,919	78,37
199,474	83,11
200,03	80,65
200,586	73,64
201,141	67,67
201,696	80,95
202,251	95,07
202,806	84,65
203,361	74,43
203,916	80,34
204,471	79,31
205,025	83,69
205,58	84,95
206,134	72,52
206,688	77,78
207,242	63,87
207,796	77,09
208,35	80,91
208,904	85
209,457	89,11
210,011	96,35
210,564	81,74
211,117	75,19
211,67	88,38
212,223	79,3
212,776	87,18
213,329	76,38
213,881	68,09
214,434	77,19
214,986	81,7
215,538	75
216,09	86,43
216,642	78,26
217,194	73,17
217,746	84,1
218,297	82,59
218,849	74,27
219,4	81,74
219,951	82,5
220,502	85,27
221,053	71,43
221,604	74,79
222,155	67,12
222,705	64,56
223,256	88,31
223,806	90,41
224,356	77,87
224,906	72,89
225,456	83,33
226,006	72,24
226,556	85,78
227,106	81,86
227,655	80,79
228,204	79,63
228,754	83,67
229,303	64,91
229,852	85,89
230,401	74,77
230,949	86,96
231,498	82,01
232,047	72,2
232,595	63,42
233,143	80,26
233,691	79,76
234,239	72,96
234,787	84,55
235,335	77,78
235,883	89,69
236,43	83,8
236,978	71,03
237,525	70,73
238,072	96,46
238,619	90,22
239,166	84,55
239,713	77,48
240,26	80
240,806	77,69
241,353	83,96
241,899	73,47
242,445	86,01
242,991	90,62
243,537	78,57
244,083	89,03
244,629	75,28
245,174	120,45
245,72	85,53
246,265	70,87
246,81	82,79
247,355	75,2
247,9	76,99
248,445	99,46
248,99	85
249,534	66,53
250,079	83,98
250,623	84,26
251,168	78,83
251,712	68,8
252,256	91,22
252,8	84,78
253,343	79,8
253,887	75,32
254,43	76,33
254,974	88,14
255,517	81,74
256,06	79,11
256,603	81,59
257,146	86,53
257,689	65,5
258,232	68,12
258,774	74,05
259,317	83,84
259,859	82,65
260,401	83,93
260,943	111,41
261,485	84,47
262,027	82,67
262,569	81,82
263,11	84,62
263,652	90,2
264,193	66,67
264,734	79,7
265,275	86,82
265,816	73,68
266,357	80,09
266,898	102,99
267,438	83,41
267,979	88,26
268,519	81,15
269,059	80,86
269,6	88,07
270,14	77,88
270,68	85
271,219	66,14
271,759	91,82
272,298	94,62
272,838	90,05
273,377	85,97
273,916	68,81
274,455	78,44
274,994	77,23
275,533	74,43
276,072	78,95
276,61	83,33
277,149	74,36
277,687	70,67
278,225	75,83
278,763	65,86
279,301	72,88
279,839	79,82
280,377	56,35
280,914	72,84
281,452	92,35
281,989	75,49
282,526	75,7
283,064	91,18
283,601	66,37
284,137	74,66
284,674	67,65
285,211	80,85
285,747	79,91
286,284	77,06
286,82	73,08
287,356	72,49
287,892	81,5
288,428	69,1
288,964	85,84
289,5	67,92
290,035	81,4
290,571	78,37
291,106	82,78
291,641	83,57
292,176	75,12
292,711	75,21
293,246	62,4
293,781	90,14
294,315	75,92
294,85	82,59
295,384	75,45
295,918	75,96
296,453	82,59
296,987	63,71
297,52	88,1
298,054	81,55
298,588	78,79
299,121	88,56
299,655	80,88
300,188	90,76
300,721	77,18
301,254	88,46
301,787	68,64
302,32	92,31
302,853	92,65
303,385	73,31
303,918	90,45
304,45	67,15
304,982	75,23
305,514	86,24
306,046	61,32
306,578	77,83
307,11	67,15
307,641	80,44
308,173	72,27
308,704	77,88
309,236	85,92
309,767	68,38
310,298	77,88
310,829	74,35
311,359	62,98
311,89	90,48
312,421	83,96
312,951	75,12
313,481	75,47
314,012	72,27
314,542	96,83
315,072	70,27
315,601	76,15
316,131	76,24
316,661	61,36
317,19	78,82
317,72	70,98
318,249	66,82
318,778	65,22
319,307	80,68
319,836	76,68
320,365	79,81
320,893	75
321,422	88,99
321,95	60,25
322,479	86,4
323,007	98,24
323,535	86,87
324,063	74,31
324,591	61,79
325,118	73,91
325,646	71,3
326,173	69,38
326,701	73,57
327,228	74,32
327,755	65,84
328,282	67,76
328,809	72,91
329,336	79,79
329,862	74,53
330,389	71,88
330,915	71,18
331,441	88,72
331,968	75,41
332,494	68,72
333,02	59,92
333,545	76,65
334,071	63,21
334,597	72,46
335,122	64,25
335,648	70,37
336,173	68,81
336,698	68,16
337,223	75,13
337,748	69,53
338,272	73,68
338,797	63,5
339,322	62,77
339,846	79,27
340,37	92,66
340,894	57,01
341,419	67,08
341,942	73,68
342,466	70,9
342,99	90,52
343,514	74,9
344,037	83,67
344,56	71,76
345,084	75
345,607	75,2
346,13	65,2
346,653	64,62
347,175	63,46
347,698	70,16
348,221	82,28
348,743	67,55
349,265	70,3
349,787	69,92
350,309	70,79
350,831	69,23
351,353	74,91
351,875	77,82
352,397	65,11
352,918	73,9
353,439	73,05
353,961	69,31
354,482	64,77
355,003	75
355,524	65,8
356,044	71,43
356,565	79,86
357,086	72,98
357,606	64,36
358,126	72,14
358,646	72,41
359,167	70,95
359,687	58,15
360,206	72,9
360,726	69,55
361,246	68,62
361,765	68,46
362,285	64,69
362,804	62,5
363,323	65,77
363,842	59,72
364,361	68,62
364,88	65,83
365,398	71,55
365,917	73,31
366,435	66,37
366,954	64,72
367,472	54,07
367,99	64,36
368,508	63,02
369,026	63,91
369,544	59,69
370,061	69,92
370,579	59,56
371,096	68,15
371,613	68,78
372,131	65,06
372,648	61,95
373,165	61,18
373,681	60,82
374,198	58,12
374,715	60
375,231	63,12
375,747	56,61
376,264	61,8
376,78	64,04
377,296	57,46
377,812	62,73
378,327	67,16
378,843	56,85
379,359	55,56
379,874	57,61
380,389	60,11
380,905	57,69
381,42	58
381,935	54,14
382,449	57,86
382,964	58,02
383,479	54,33
383,993	55,92
384,508	51,87
385,022	57,28
385,536	53,6
386,05	55,2
386,564	51,42
387,078	53,75
387,592	49,87
388,105	51,77
388,619	49,14
389,132	44,59
389,645	51,12
390,158	45,92
390,671	47,78
391,184	45,37
391,697	49,35
392,21	47,87
392,722	49,41
393,235	44,66
393,747	43,59
394,259	48,35
394,771	44,42
395,283	43
395,795	42,72
396,307	43,65
396,818	44,82
397,33	42,3
397,841	40,51
398,353	43,26
398,864	43,1
399,375	41,96
399,886	41,65
400,397	39,48
400,907	37,66
401,418	37,33
401,928	34,97
402,439	33,91
402,949	35,33
403,459	33,67
403,969	34,1
404,479	31,45
404,989	33,02
405,498	30,57
406,008	30,65
406,517	31,35
407,027	28,14
407,536	28,23
408,045	27,15
408,554	26,57
409,063	24,41
409,572	26,1
410,08	24,87
410,589	25,53
411,097	24,47
411,606	24,33
412,114	23,24
412,622	23,18
413,13	20,41
413,638	22,25
414,145	22,21
414,653	20,24
415,16	19,77
415,668	19,32
416,175	20,02
416,682	18,33
417,189	17,91
417,696	18,7
418,203	17,89
418,71	17,63
419,216	17,93
419,723	17,44
420,229	16,9
420,735	16,86
421,242	17,16
421,748	17,57
422,254	17,61
422,759	16,07
423,265	16,1
423,771	16,25
424,276	17,16
424,781	15,71
425,287	16,19
425,792	15,93
426,297	15,21
426,802	15,39
427,306	16,36
427,811	16,17
428,316	15,49
428,82	14,44
429,324	15,32
429,829	15,98
430,333	15,87
430,837	14,78
431,34	15,79
431,844	15,06
432,348	16,51
432,851	15,49
433,355	15,72
433,858	14,62
434,361	15,39
434,864	14,95
435,367	14,53
435,87	15,18
436,373	14,52
436,876	15,29
437,378	15,24
437,88	15,22
438,383	15,02
438,885	14,9
439,387	14,7
439,889	14,5
440,391	14,42
440,892	14,58
441,394	14,84
441,896	14,49
442,397	15,02
442,898	14,98
443,399	14,38
443,9	15,18
444,401	14,25
444,902	15,02
445,403	15
445,903	14,97
446,404	14,4
446,904	14,35
447,405	15,23
447,905	14,76
448,405	15,2
448,905	15,15
449,404	15,07
449,904	14,94
450,404	15,12
450,903	15,26
451,403	13,97
451,902	14,89
452,401	14,77
452,9	14,77
453,399	14,89
453,898	15,39
454,396	15,64
454,895	14,97
455,393	15,35
455,892	15,16
456,39	15,66
456,888	15,23
457,386	14,79
457,884	15,34
458,382	15
458,879	15,43
459,377	14,76
459,874	14,79
460,372	15,43
460,869	15,33
461,366	15,11
461,863	15,1
462,36	15,33
462,857	15,19
463,353	15,44
463,85	15
464,346	14,81
464,843	15,2
465,339	15,32
465,835	15,17
466,331	15,69
466,827	15,14
467,323	15,34
467,818	15,69
468,314	14,82
468,809	15,01
469,305	15,23
469,8	15,47
470,295	15,17
470,79	15
471,285	15,74
471,78	15,1
472,274	14,95
472,769	15,27
473,263	15,47
473,758	15,27
474,252	15,36
474,746	15,08
475,24	15,26
475,734	15,38
476,228	14,68
476,721	15,07
477,215	15,37
477,708	15,42
478,202	15,97
478,695	15,72
479,188	15,04
479,681	15,64
480,174	15,25
480,667	15,48
481,159	15,13
481,652	15,55
482,144	15,34
482,637	15,76
483,129	15,14
483,621	15,6
484,113	15,9
484,605	15,32
485,097	15,93
485,588	15,32
486,08	15,53
486,571	15,8
487,063	15,73
487,554	15,67
488,045	15,76
488,536	15,65
489,027	15,46
489,518	16,18
490,008	15,48
490,499	15,89
490,989	16,19
491,48	15,54
491,97	16,33
492,46	16,05
492,95	15,78
493,44	16,6
493,93	16,27
494,419	16,38
494,909	16,31
495,398	15,69
495,888	16,28
496,377	15,99
496,866	16,18
497,355	16,53
497,844	16,58
498,333	16,61
498,821	17,04
499,31	16,72
499,798	16,82
500,287	16,97
500,775	17,54
501,263	17,31
501,751	17,06
502,239	17,61
502,727	17,51
503,215	17,56
503,702	17,9
504,19	18,66
504,677	18,59
505,164	18,45
505,651	18,81
506,139	18,79
506,625	19,14
507,112	18,93
507,599	19,05
508,086	19,54
508,572	20,09
509,058	20,05
509,545	20,04
510,031	20,89
510,517	21
511,003	21,28
511,489	21,55
511,974	21,83
512,46	22,38
512,946	22,39
513,431	22,46
513,916	23,03
514,401	23,64
514,887	24,12
515,371	24,5
515,856	24,94
516,341	25,05
516,826	25,22
517,31	26,22
517,795	26,44
518,279	26,59
518,763	27,66
519,247	27,58
519,731	28,44
520,215	29,24
520,699	29,06
521,182	30,03
521,666	30,47
522,149	31,37
522,633	31,57
523,116	31,75
523,599	32,46
524,082	32,94
524,565	33,86
525,048	33,81
525,53	34,41
526,013	34,57
526,495	34,78
526,978	35,17
527,46	35,3
527,942	35,99
528,424	36,88
528,906	37,27
529,388	37,55
529,87	37,77
530,351	37,76
530,833	38,44
531,314	38,84
531,795	38,91
532,277	39,59
532,758	39,57
533,238	39,53
533,719	40,18
534,2	40,33
534,681	40,57
535,161	39,97
535,642	41,05
536,122	41,72
536,602	41,06
537,082	41,32
537,562	41,61
538,042	40,97
538,522	41,33
539,001	41,75
539,481	41,4
539,96	41,95
540,44	41,88
540,919	41,95
541,398	42,29
541,877	41,99
542,356	42,4
542,835	42,53
543,313	42,72
543,792	42,64
544,27	42,43
544,749	42,19
545,227	42,88
545,705	42,45
546,183	42,97
546,661	42,85
547,139	42,19
547,616	42,92
548,094	42,63
548,571	43,36
549,049	43,08
549,526	43,42
550,003	43,23
550,48	43,09
550,957	43,47
551,434	43,21
551,911	43,68
552,387	43,76
552,864	43,96
553,34	43,42
553,817	43,82
554,293	43,51
554,769	43,38
555,245	43,18
555,721	43,03
556,197	44,04
556,672	43,47
557,148	42,65
557,623	43,17
558,099	43,05
558,574	43,17
559,049	43,25
559,524	42,98
559,999	42,5
560,474	42,64
560,948	42,7
561,423	41,95
561,897	42,53
562,372	41,9
562,846	41,92
563,32	41,88
563,794	41,64
564,268	41,39
564,742	40,8
565,216	40,64
565,69	40,42
566,163	39,94
566,636	40,1
567,11	39,38
567,583	39,36
568,056	38,99
568,529	38,78
569,002	38,26
569,475	38,49
569,947	37,88
570,42	37,53
570,892	37,76
571,365	37,58
571,837	36,48
572,309	36,85
572,781	36,18
573,253	36,07
573,725	35,75
574,197	35,6
574,668	35,54
575,14	34,9
575,611	34,89
576,082	34,57
576,554	34,13
577,025	34,16
577,496	34,03
577,967	33,62
578,437	33,25
578,908	33,3
579,379	32,8
579,849	32,67
580,319	32,23
580,79	32,43
581,26	31,96
581,73	31,31
582,2	31,86
582,669	31,55
583,139	31,46
583,609	31,38
584,078	31,11
584,548	30,87
585,017	30,58
585,486	30,36
585,955	30,38
586,424	30,02
586,893	30,18
587,362	29,94
587,83	29,86
588,299	29,7
588,767	29,8
589,236	29,49
589,704	29,53
590,172	29,31
590,64	29,42
591,108	29,23
591,576	29,01
592,043	28,89
592,511	28,82
592,978	28,77
593,446	28,71
593,913	28,88
594,38	28,12
594,847	28,49
595,314	28,39
595,781	28,29
596,248	28,42
596,715	28,18
597,181	28,19
597,647	27,64
598,114	28,21
598,58	28,1
599,046	27,59
599,512	28,17
599,978	27,77
600,444	27,95
600,91	27,65
601,375	27,74
601,841	27,7
602,306	27,27
602,771	27,86
603,236	27,63
603,702	27,29
604,167	27,38
604,631	27,47
605,096	27,05
605,561	26,8
606,025	26,78
606,49	26,62
606,954	26,75
607,418	26,6
607,882	25,76
608,347	26,44
608,81	26,13
609,274	25,92
609,738	25,72
610,202	25,57
610,665	25,62
611,128	25,38
611,592	25,17
612,055	25,34
612,518	25,16
612,981	24,91
613,444	24,71
613,907	24,45
614,369	24,76
614,832	24,46
615,294	24,36
615,757	24,09
616,219	24,1
616,681	23,73
617,143	23,55
617,605	23,59
618,067	23,39
618,529	23,55
618,99	23,42
619,452	23,15
619,913	22,98
620,375	23,02
620,836	23,2
621,297	22,84
621,758	22,69
622,219	22,67
622,68	22,91
623,14	22,65
623,601	22,6
624,061	22,31
624,522	22,29
624,982	22,41
625,442	22,26
625,902	21,96
626,362	22,21
626,822	22,14
627,282	22,07
627,742	21,98
628,201	22,06
628,661	22,22
629,12	22,06
629,579	22,21
630,038	21,83
630,497	22,13
630,956	21,93
631,415	21,89
631,874	22,12
632,332	21,82
632,791	21,83
633,249	21,77
633,708	21,65
634,166	21,62
634,624	21,44
635,082	21,28
635,54	21,65
635,998	21,12
636,455	21,05
636,913	21,04
637,37	20,71
637,828	20,72
638,285	20,91
638,742	20,55
639,199	20,55
639,656	20,18
640,113	20,28
640,57	20,06
641,027	19,96
641,483	19,84
641,94	19,5
642,396	19,38
642,852	19,13
643,309	19,43
643,765	19,28
644,221	18,9
644,676	19,04
645,132	18,57
645,588	18,6
646,043	18,55
646,499	18,36
646,954	18,05
647,409	17,77
647,864	17,71
648,319	17,91
648,774	17,52
649,229	17,52
649,684	17,3
650,139	17,21
650,593	17,03
651,047	17,12
651,502	17,13
651,956	17,08
652,41	16,9
652,864	17,13
653,318	16,91
653,772	16,55
654,225	16,68
654,679	16,45
655,133	16,21
655,586	16,59
656,039	16,49
656,492	16,31
656,946	16,3
657,399	16,09
657,851	16,13
658,304	15,95
658,757	15,91
659,209	15,85
659,662	15,72
660,114	15,71
660,567	15,51
661,019	15,47
661,471	15,45
661,923	15,44
662,375	15,2
662,826	15,4
663,278	15,13
663,73	14,85
664,181	15,1
664,632	15,01
665,084	14,87
665,535	14,83
665,986	14,95
666,437	14,9
666,888	14,79
667,338	14,83
667,789	14,74
668,24	14,9
668,69	14,93
669,14	14,77
669,591	14,82
670,041	14,59
670,491	15,14
670,941	15,09
671,391	14,9
671,84	15,19
672,29	15,35
672,74	15,27
673,189	15,4
673,638	15,42
674,088	15,58
674,537	15,54
674,986	15,59
675,435	15,86
675,883	15,62
676,332	15,9
676,781	15,91
677,229	15,93
677,678	16,27
678,126	16,17
678,574	16,49
679,022	16,62
679,47	16,74
679,918	16,93
680,366	17,03
680,814	16,98
681,261	17,23
681,709	17,46
682,156	17,53
682,604	17,67
683,051	17,81
683,498	17,84
683,945	18,03
684,392	18,11
684,839	18,18
685,286	18,34
685,732	18,45
686,179	18,6
686,625	18,7
687,071	19,03
687,518	19,02
687,964	19,34
688,41	19,78
688,856	19,86
689,301	20,28
689,747	20,41
690,193	20,82
690,638	21,17
691,084	21,74
691,529	22,2
691,974	22,54
692,419	23,4
692,864	24,02
693,309	24,55
693,754	25,26
694,199	25,73
694,643	26,78
695,088	27,54
695,532	28,52
695,977	29,29
696,421	30,17
696,865	30,7
697,309	31,71
697,753	32,91
698,197	33,93
698,64	34,87
699,084	35,75
699,527	37,04
699,971	37,69
700,414	38,72
700,857	39,79
701,3	40,9
701,743	41,81
702,186	42,88
702,629	43,74
703,072	44,75
703,515	45,67
703,957	46,63
704,399	47,46
704,842	48,52
705,284	49,5
705,726	50,46
706,168	51,32
706,61	52,28
707,052	53,41
707,494	54,25
707,935	55,17
708,377	56,39
708,818	56,83
709,26	58,23
709,701	58,65
710,142	59,8
710,583	60,29
711,024	61,27
711,465	61,89
711,905	63,11
712,346	63,92
712,787	65,25
713,227	65,54
713,667	66,5
714,108	67,55
714,548	68,54
714,988	69,28
715,428	69,66
715,868	70,21
716,307	71,1
716,747	72,23
717,186	72,84
717,626	73,08
718,065	74,58
718,504	74,53
718,944	75,54
719,383	76,43
719,822	77,08
720,261	78,11
720,699	78,9
721,138	79,01
721,576	79,94
722,015	80,9
722,453	80,74
722,892	82,07
723,33	82,66
723,768	82,9
724,206	83,61
724,644	83,83
725,081	84,88
725,519	84,78
725,957	85,92
726,394	86,28
726,832	86,66
727,269	87
727,706	88,33
728,143	87,98
728,58	88,91
729,017	89,2
729,454	89,22
729,89	89,92
730,327	89,79
730,764	90,5
731,2	91,02
731,636	90,85
732,072	90,57
732,509	91,94
732,945	92,54
733,38	92,47
733,816	93,01
734,252	93,75
734,688	93,42
735,123	93,73
735,559	94,51
735,994	93,95
736,429	93,87
736,864	94,56
737,299	94,31
737,734	94,3
738,169	95,02
738,604	95,03
739,038	95,59
739,473	94,89
739,907	95,51
740,342	95,94
740,776	96,07
741,21	96,61
741,644	96,81
742,078	96,32
742,512	96,5
742,946	96,57
743,379	96,94
743,813	97,41
744,246	97,09
744,68	97,52
745,113	97,47
745,546	97,27
745,979	97,65
746,412	97,41
746,845	97,55
747,278	97,63
747,711	97,04
748,143	97,52
748,576	97,35
749,008	97,63
749,441	96,97
749,873	97,81
750,305	97,72
750,737	97,95
751,169	97,26
751,601	97,24
752,032	97,87
752,464	97,81
752,896	97,79
753,327	97,62
753,758	97,91
754,19	97,69
754,621	98,2
755,052	97,55
755,483	97,57
755,914	97,7
756,344	97,98
756,775	97,64
757,206	97,78
757,636	97,84
758,066	97,71
758,497	97,45
758,927	97,58
759,357	97,51
759,787	97,74
760,217	97,71
760,647	97,14
761,076	97,47
761,506	97,27
761,935	97,97
762,365	97,71
762,794	97,04
763,223	96,47
763,653	97,38
764,082	97,13
764,51	96,85
764,939	97,2
765,368	97,32
765,797	96,9
766,225	96,8
766,654	97,24
767,082	96,98
767,51	97,26
767,938	97,56
768,367	97,61
768,795	96,85
769,222	96,86
769,65	97,15
770,078	97,19
770,505	97,03
770,933	96,75
771,36	96,76
771,788	96,64
772,215	96,62
772,642	97,39
773,069	97,02
773,496	96,78
773,923	96,67
774,349	96,5
774,776	97,31
775,203	96,35
775,629	96,58
776,055	96,81
776,482	96,95
776,908	96,06
777,334	96,59
777,76	96,57
778,186	96,27
778,611	96,8
779,037	96,46
779,463	96,58
779,888	96,7
780,314	96,77
780,739	96,89
781,164	96,45
781,589	96,09
782,014	96,43
782,439	96,57
782,864	96,73
783,289	96,85
783,713	96,07
784,138	96,82
784,562	96,62
784,987	95,73
785,411	96,21
785,835	96,62
786,259	96,2
786,683	96,79
787,107	96,25
787,531	96,8
787,954	96,67
788,378	95,98
788,802	96,91
789,225	96,77
789,648	96,84
790,071	96,25
790,495	96,82
790,918	96,45
791,34	96,74
791,763	96,8
792,186	96,68
792,609	96,21
793,031	96,57
793,454	96,49
793,876	96,84
794,298	95,94
794,721	96,21
795,143	96,13
795,565	96,23
795,986	96,46
796,408	96,16
796,83	96,25
797,252	96,42
797,673	96,66
798,094	96,08
798,516	95,72
798,937	96,25
799,358	96,24
799,779	96,43
800,2	96,05
800,621	96,31
801,042	97,05
801,462	96,32
801,883	96,08
802,303	95,91
802,724	96,39
803,144	96,34
803,564	96,24
803,984	96,22
804,404	96,66
804,824	96,7
805,244	96,29
805,664	96,79
806,084	96,32
806,503	96,06
806,923	95,92
807,342	96,57
807,761	96,49
808,18	96,25
808,599	96,09
809,018	95,58
809,437	96,16
809,856	96,23
810,275	96,66
810,693	96,47
811,112	95,88
811,53	96,24
811,949	96,36
812,367	96,03
812,785	96,26
813,203	95,84
813,621	95,64
814,039	95,99
814,457	96,69
814,874	96,15
815,292	96,06
815,709	96,7
816,127	95,81
816,544	96,28
816,961	95,79
817,378	96,39
817,795	96,26
818,212	95,93
818,629	95,92
819,046	96,23
819,462	96,28
819,879	96,28
820,295	96,83
820,712	96,06
821,128	96,24
821,544	96,16
821,96	96,02
822,376	95,93
822,792	95,86
823,208	95,77
823,624	95,55
824,039	96,16
824,455	96
824,87	96,74
825,286	96,63
825,701	95,98
826,116	95,94
826,531	96,3
826,946	95,74
827,361	96,03
827,776	95,48
828,19	95,76
828,605	95,74
829,02	96,26
829,434	96,4
829,848	96,61
830,263	96,06
830,677	95,91
831,091	96,37
831,505	95,87
831,919	95,64
832,332	95,84
832,746	95,93
833,16	96,09
833,573	95,61
833,987	95,68
834,4	95,88
834,813	95,91
835,226	95,61
835,639	96,05
836,052	95,77
836,465	96,35
836,878	96,04
837,29	95,96
837,703	95,78
838,116	95,62
838,528	96,06
838,94	95,56
839,352	96,11
839,765	95,98
840,177	96,37
840,589	95,58
841	95,55
841,412	95,71
841,824	96,37
842,235	95,53
842,647	96
843,058	95,83
843,47	96,26
843,881	96,46
844,292	95,73
844,703	95,73
845,114	96,06
845,525	96,41
845,935	95,81
846,346	95,87
846,757	95,29
847,167	96,26
847,577	95,89
847,988	95,15
848,398	95,75
848,808	95,83
849,218	96,11
849,628	95,54
850,038	95,51
850,448	95,67
850,857	95,42
851,267	95,53
851,676	95,78
852,086	95,69
852,495	95,62
852,904	95,56
853,313	95,04
853,722	95,97
854,131	95,06
854,54	94,98
854,949	95,94
855,357	95,64
855,766	95,77
856,174	95,62
856,583	95,93
856,991	95,53
857,399	95,3
857,807	95,83
858,215	95,54
858,623	95,33
859,031	95,28
859,439	95,69
859,846	95,33
860,254	95,57
860,661	96,05
861,069	95,47
861,476	95,71
861,883	95,45
862,29	95,71
862,697	95,76
863,104	95,31
863,511	95,71
863,918	95,35
864,325	95,67
864,731	95,07
865,138	96
865,544	95,55
865,95	96,07
866,357	94,95
866,763	95,96
867,169	95,44
867,575	95,29
867,98	95,07
868,386	95,55
868,792	95,54
869,197	95,67
869,603	95,54
870,008	95,96
870,414	95,64
870,819	95,58
871,224	95,62
871,629	95,65
872,034	95,44
872,439	95,27
872,844	95,61
873,248	95,6
873,653	95,3
874,057	95,58
874,462	95,47
874,866	96,11
875,27	95,25
875,674	95,12
876,078	95,8
876,482	95,37
876,886	95,63
877,29	95,54
877,694	95,32
878,097	95,52
878,501	95,37
878,904	94,94
879,308	94,9
879,711	94,99
880,114	95,56
880,517	95,37
880,92	95,39
881,323	95,21
881,726	95,87
882,128	95,31
882,531	95,3
882,934	95,53
883,336	94,94
883,738	95,28
884,141	95,79
884,543	95,01
884,945	95,22
885,347	95,62
885,749	94,57
886,151	95,49
886,552	95,03
886,954	95,17
887,355	95,54
887,757	94,78
888,158	94,74
888,56	94,3
888,961	95,33
889,362	95,41
889,763	95,7
890,164	95,09
890,565	95,82
890,965	95,57
891,366	95,3
891,767	95,59
892,167	94,74
892,567	95,16
892,968	95,25
893,368	94,74
893,768	95,28
894,168	94,76
894,568	95,7
894,968	95,21
895,368	95,06
895,767	95,61
896,167	94,91
896,566	95,34
896,966	95,32
897,365	95,56
897,764	95,03
898,164	95,42
898,563	94,8
898,962	94,98
899,361	95,71
899,759	95,27
900,158	94,83
900,557	95,15
900,955	95,34
901,354	94,8
901,752	95,05
902,15	95,06
902,548	95,61
902,947	95,59
903,345	95,35
903,742	94,91
904,14	95,98
904,538	94,64
904,936	95,25
905,333	95,36
905,731	95,14
906,128	95,52
906,525	94,59
906,923	95,68
907,32	95,29
907,717	95,12
908,114	94,92
908,511	94,72
908,907	94,58
909,304	94,85
909,701	94,47
910,097	94,78
910,494	94,37
910,89	95,24
911,286	95,6
911,682	95,2
912,078	94,93
912,474	94,74
912,87	95,57
913,266	94,88
913,662	94,54
914,058	94,64
914,453	94,87
914,849	94,96
915,244	95,43
915,639	95,3
916,034	94,83
916,43	96,2
916,825	94,87
917,22	94,36
917,614	94,06
918,009	94,83
918,404	95,15
918,798	95,05
919,193	95,22
919,587	94,6
919,982	95
920,376	95,26
920,77	94,48
921,164	94,88
921,558	94,65
921,952	94,41
922,346	94,48
922,74	94,98
923,133	95,56
923,527	94,07
923,92	94,94
924,314	94,2
924,707	94,88
925,1	94,82
925,493	94,58
925,886	94,72
926,279	94,61
926,672	94,3
927,065	94,16
927,457	94,57
927,85	94,91
928,243	94,2
928,635	94,66
929,027	93,58
929,42	94,71
929,812	93,93
930,204	93,97
930,596	94,27
930,988	94,12
931,379	94,35
931,771	94,33
932,163	94,09
932,554	93,97
932,946	94,03
933,337	94,08
933,729	93,9
934,12	94,09
934,511	94,37
934,902	93,89
935,293	94,48
935,684	93,89
936,075	94,11
936,465	94,4
936,856	93,96
937,246	94,41
937,637	94,35
938,027	94
938,417	94,29
938,808	92,53
939,198	93,62
939,588	93,72
939,978	92,25
940,368	93,55
940,757	93,83
941,147	93,78
941,537	93,42
941,926	92,92
942,315	93,57
942,705	93,54
943,094	92,61
943,483	93,79
943,872	93,07
944,261	92,19
944,65	93,35
945,039	93,15
945,428	92,7
945,816	93,46
946,205	92,24
946,593	93,43
946,982	92,54
947,37	92,34
947,758	93,2
948,146	92,54
948,534	92,61
948,922	92,36
949,31	92,11
949,698	92,49
950,086	91,1
950,473	91,61
950,861	91,99
951,248	91,93
951,636	90,61
952,023	91,34
952,41	91,13
952,797	90,81
953,184	90,34
953,571	91,71
953,958	92,19
954,345	92,09
954,731	91,69
955,118	91,57
955,505	91,64
955,891	90,67
956,277	91,68
956,664	91,35
957,05	91,41
957,436	91,21
957,822	89,97
958,208	89,77
958,594	90,18
958,979	91,18
959,365	90,32
959,751	90,29
960,136	90,06
960,522	91,32
960,907	90,63
961,292	90,63
961,677	90,93
962,062	91,44
962,447	89,89
962,832	90,27
963,217	91,16
963,602	89,56
963,986	89,99
964,371	89,9
964,756	90,51
965,14	91,23
965,524	90,14
965,908	90,54
966,293	90,47
966,677	90,82
967,061	90,55
967,445	89,5
967,828	90,71
968,212	90,14
968,596	90,31
968,979	90,12
969,363	90,06
969,746	90,62
970,129	90,59
970,513	90,34
970,896	90,49
971,279	90,07
971,662	90,83
972,045	89,6
972,428	90,27
972,81	89,99
973,193	91,14
973,575	89,45
973,958	90,16
974,34	89,95
974,723	89,79
975,105	90,77
975,487	90,25
975,869	90,26
976,251	89,73
976,633	89,01
977,015	89,42
977,396	90,4
977,778	90,04
978,16	89,51
978,541	89,27
978,922	89,3
979,304	89,78
979,685	89,65
980,066	90,25
980,447	90,87
980,828	89,83
981,209	90,15
981,59	89,08
981,97	89,42
982,351	90,7
982,732	89,98
983,112	89,11
983,493	90,4
983,873	89,97
984,253	89,79
984,633	90,23
985,013	90,03
985,393	89,52
985,773	90,23
986,153	90,14
986,533	90,63
986,912	90,1
987,292	89,9
987,671	89,92
988,051	89,68
988,43	90,06
988,809	89,97
989,188	89,89
989,567	89,55
989,946	90,38
990,325	90,24
990,704	89,79
991,083	90,08
991,461	90,26
991,84	89,94
992,218	88,67
992,597	90,98
992,975	90,4
993,353	89,95
993,732	90,75
994,11	90,5
994,488	90,52
994,866	90,29
995,243	90,23
995,621	90,41
995,999	89,77
996,376	90,32
996,754	89,42
997,131	90,43
997,509	90,49
997,886	90,11
998,263	89,34
998,64	90,57
999,017	89,8
999,394	90,19
999,771	91,48
1000,148	90,32
1000,524	89,88
1000,901	90,08
1001,277	90,42
1001,654	90,33
1002,03	90,62
1002,406	90,2
1002,783	91,21
1003,159	90,58
1003,535	90,67
1003,911	90,79
1004,286	90,44
1004,662	89,98
1005,038	90,22
1005,414	91,09
1005,789	89,98
1006,164	91,48
1006,54	90,51
1006,915	90,6
1007,29	90,1
1007,665	91,48
1008,04	90,85
1008,415	90,51
1008,79	91,07
1009,165	90
1009,54	91,74
1009,914	90,7
1010,289	91,14
1010,663	90,89
1011,038	91,58
1011,412	91,18
1011,786	90,86
1012,16	90,57
1012,535	90,5
1012,909	91,8
1013,282	91,78
1013,656	90,94
1014,03	91,56
1014,404	89,73
1014,777	91,1
1015,151	91,06
1015,524	91,98
1015,897	91,99
1016,271	91,75
1016,644	90,25
1017,017	91,59
1017,39	92,53
1017,763	91,92
1018,136	90,79
1018,508	92,31
1018,881	91,33
1019,254	92,52
1019,626	90,52
1019,999	91,8
1020,371	91,32
1020,743	91,41
1021,116	91,58
1021,488	92,28
1021,86	92,28
1022,232	91,86
1022,604	92,86
1022,975	90,71
1023,347	91,1
1023,719	92,78
1024,09	92,39
1024,462	92,36
1024,833	91,12
1025,204	92,63
1025,576	92,09
1025,947	92,36
1026,318	91,88
1026,689	92
1027,06	91,53
1027,431	93,18
1027,801	91,19
1028,172	92,85
1028,543	91,61
1028,913	94,06
1029,284	91,6
1029,654	91,35
1030,024	92,3
1030,394	91,02
1030,764	91,62
1031,135	90,71
1031,504	92,8
1031,874	91,94
1032,244	92,6
1032,614	91,99
1032,983	92,63
1033,353	92,19
1033,722	93,79
1034,092	92,01
1034,461	91,28
1034,83	92,58
1035,2	93,62
1035,569	91,85
1035,938	91,85
1036,307	93,08
1036,675	93,27
1037,044	92,72
1037,413	92,18
1037,781	93,21
1038,15	92,3
1038,518	91,66
1038,887	91,72
1039,255	92,02
1039,623	93,23
1039,991	93,37
1040,359	92,44
1040,727	91,93
1041,095	91,57
1041,463	90,43
1041,831	91,41
1042,198	93,02
1042,566	91,75
1042,933	93,35
1043,301	92,47
1043,668	92,2
1044,035	91,7
1044,402	93,29
1044,77	93,5
1045,137	93,68
1045,503	93,59
1045,87	91,62
1046,237	93,13
1046,604	92,53
1046,97	95,03
1047,337	92,51
1047,703	91,08
1048,07	92,92
1048,436	92,56
1048,802	92,65
1049,168	94,08
1049,534	93,16
1049,9	90,64
1050,266	91,48
1050,632	93,41
1050,998	93,8
1051,364	92,79
1051,729	92,95
1052,095	92,45
1052,46	93,26
1052,825	95,31
1053,191	92,92
1053,556	93,25
1053,921	92,3
1054,286	92,47
1054,651	92,43
1055,016	92,57
1055,381	93,06
1055,745	92,24
1056,11	92,7
1056,475	92,36
1056,839	95,81
1057,203	92,65
1057,568	93,75
1057,932	94,31
1058,296	95,14
1058,66	92,24
1059,024	93,05
1059,388	92,7
1059,752	91,08
1060,116	92,28
1060,48	94,07
1060,843	91,58
1061,207	92,3
1061,57	93,04
1061,934	94,25
1062,297	93,41
1062,66	93,82
1063,023	91,55
1063,386	93,54
1063,749	93,29
1064,112	93,4
1064,475	92,7
1064,838	90,68
1065,201	93,19
1065,563	91,86
1065,926	92,26
1066,288	93,84
1066,651	92,28
1067,013	92,15
1067,375	93,96
1067,737	94,14
1068,099	91,75
1068,461	91,88
1068,823	94,23
1069,185	92,03
1069,547	93,13
1069,909	94,8
1070,27	92,33
1070,632	93,81
1070,993	92,87
1071,355	88,81
1071,716	94,17
1072,077	94,95
1072,438	90,8
1072,799	92,35
1073,16	94,44
1073,521	94,3
1073,882	93,4
1074,243	93,67
1074,603	94,71
1074,964	91,61
1075,325	95,28
1075,685	94,46
1076,045	94,18
1076,406	93,46
1076,766	94,93
1077,126	93,78
1077,486	94,02
1077,846	91,64
1078,206	92,09
1078,566	92,7
1078,925	94,01
1079,285	93,23
1079,645	94,61
1080,004	91,44
1080,364	92,58
1080,723	92,48
1081,082	92,18
1081,442	91,36
1081,801	92,33
1082,16	94,36
1082,519	94,14
1082,878	92,15
1083,237	92,53
1083,595	91,02
1083,954	90,95
1084,313	92,5
1084,671	89,69
1085,03	92,83
1085,388	93,44
1085,746	90,32
1086,104	94,64
1086,463	94,4
1086,821	91,79
1087,179	91,54
1087,537	95,17
1087,894	94,52
1088,252	94,42
1088,61	94,36
1088,967	92,72
1089,325	89,79
1089,682	91,45
1090,04	90,01
1090,397	97,55
1090,754	93,98
1091,111	93,68
1091,469	91,95
1091,826	95,51
1092,182	91,5
1092,539	91,11
1092,896	91,31
1093,253	92
1093,609	93,14
1093,966	96,33
1094,322	93,12
1094,679	90,65
1095,035	91,73
1095,391	91,06
1095,748	92,77
1096,104	91,39
1096,46	93,12
1096,816	93,14
1097,171	92,5
1097,527	95,67
1097,883	92,78
1098,239	94,85
1098,594	90,22
1098,95	92,15
1099,305	90,11
1099,66	91,1
1100,016	88,13
1100,371	96,26
1100,726	94,02
1101,081	90,97
1101,436	89,12
1101,791	94
1102,146	93,18
1102,5	87,82
1102,855	94,24
1103,21	92,48
1103,564	90,07
1103,918	89,67
1104,273	87,99
1104,627	93,29
1104,981	93,22
1105,335	91,26
1105,69	89,72
1106,043	93,86
1106,397	94,69
1106,751	95,65
1107,105	89,52
1107,459	90,75
1107,812	91,79
1108,166	90,44
1108,519	92,34
1108,873	95,52
1109,226	91
1109,579	91,85
1109,932	89,09
1110,285	86,94
1110,638	91,01
1110,991	91,66
1111,344	93,54
1111,697	92,77
1112,05	86,76
1112,402	90,02
1112,755	94,79
1113,107	91,8
1113,46	93,98
1113,812	93,13
1114,164	94,11
1114,517	85,81
1114,869	92,94
1115,221	91,86
1115,573	78,64
1115,924	79,55
