Data from A_2_0_Relative__7__00007.txt Node

Date: Mon Jan 29 12:44:54 CET 2024
User: diatiterra
Spectrometer: HDX00911
Trigger mode: 0
Integration Time (sec): 6,000000E-3
Scans to average: 4
Nonlinearity correction enabled: false
Boxcar width: 0
Storing dark spectrum: false
XAxis mode: Wavelengths
Number of Pixels in Spectrum: 2068
>>>>>Begin Spectral Data<<<<<
194,468	89,04
195,025	69,01
195,581	104,55
196,138	93,1
196,694	96,55
197,251	91,98
197,807	88,11
198,363	89,86
198,919	78,78
199,474	79,45
200,03	70,05
200,586	74,55
201,141	73,28
201,696	73,16
202,251	87,19
202,806	85,12
203,361	87,21
203,916	80,77
204,471	96,55
205,025	86,27
205,58	88,83
206,134	84,23
206,688	72,22
207,242	77,73
207,796	85,02
208,35	81,82
208,904	75
209,457	68,87
210,011	94,52
210,564	81,74
211,117	73,26
211,67	87,14
212,223	78,85
212,776	89,32
213,329	82,28
213,881	66,93
214,434	86,84
214,986	80,43
215,538	77,05
216,09	91,96
216,642	84,78
217,194	76,02
217,746	90,38
218,297	74,11
218,849	78,42
219,4	93,78
219,951	90
220,502	81,7
221,053	69,33
221,604	91,45
222,155	83,33
222,705	74,68
223,256	86,15
223,806	84,02
224,356	75,41
224,906	75,46
225,456	89,47
226,006	77,14
226,556	88,07
227,106	75,95
227,655	76,42
228,204	81,48
228,754	66,12
229,303	84,65
229,852	80,65
230,401	76,13
230,949	100,43
231,498	65,69
232,047	84,65
232,595	74,71
233,143	81,97
233,691	79,76
234,239	71,67
234,787	73,64
235,335	84,36
235,883	75,34
236,43	88,43
236,978	76,64
237,525	85,37
238,072	84,07
238,619	83,56
239,166	82,83
239,713	89,19
240,26	82,75
240,806	90,44
241,353	77,36
241,899	83,27
242,445	81,48
242,991	76,79
243,537	75,89
244,083	90,3
244,629	75,28
245,174	102,27
245,72	88,09
246,265	72,61
246,81	88,84
247,355	69,51
247,9	78,66
248,445	92,47
248,99	75,83
249,534	74,29
250,079	86,89
250,623	93,4
251,168	90,54
251,712	76,4
252,256	90,24
252,8	73,48
253,343	82,27
253,887	91,77
254,43	72,95
254,974	88,14
255,517	74,69
256,06	94,22
256,603	73,13
257,146	98,96
257,689	68,22
258,232	72,93
258,774	87,57
259,317	69,87
259,859	86,3
260,401	89,73
260,943	96,74
261,485	91,26
262,027	82,18
262,569	65,66
263,11	83,76
263,652	82,84
264,193	78,86
264,734	70,79
265,275	73,64
265,816	76,75
266,357	82,81
266,898	87,43
267,438	80,57
267,979	72,17
268,519	78,28
269,059	80,86
269,6	74,77
270,14	76,44
270,68	77,5
271,219	75,2
271,759	89,09
272,298	102,69
272,838	74,41
273,377	84,62
273,916	85,78
274,455	83,49
274,994	81,25
275,533	68,49
276,072	85,96
276,61	88,24
277,149	68,72
277,687	72
278,225	70,62
278,763	75,1
279,301	64,83
279,839	77,19
280,377	74,11
280,914	69,83
281,452	85,2
281,989	88,73
282,526	77,1
283,064	79,41
283,601	73,99
284,137	80,54
284,674	75,98
285,211	75,32
285,747	64,53
286,284	69,27
286,82	75,64
287,356	75,98
287,892	66,5
288,428	83,69
288,964	74,34
289,5	67,92
290,035	84,65
290,571	79,33
291,106	75
291,641	99,03
292,176	88,04
292,711	72,22
293,246	78,8
293,781	81,22
294,315	70,16
294,85	79,1
295,384	80
295,918	72,6
296,453	91,54
296,987	59,68
297,52	97,62
298,054	76,21
298,588	83,55
299,121	79,1
299,655	83,33
300,188	79,89
300,721	70,12
301,254	73,56
301,787	76,36
302,32	83,17
302,853	83,82
303,385	70,34
303,918	81,91
304,45	77,78
304,982	73,87
305,514	91,01
306,046	68,31
306,578	75,47
307,11	91,79
307,641	72
308,173	69,33
308,704	75,22
309,236	76,21
309,767	55,98
310,298	75,66
310,829	66,52
311,359	68,94
311,89	73,54
312,421	66,31
312,951	73,71
313,481	70,28
314,012	83,64
314,542	88,89
315,072	81,62
315,601	77,06
316,131	78,22
316,661	67,73
317,19	92,12
317,72	76,17
318,249	70,05
318,778	67,63
319,307	70,53
319,836	73,99
320,365	75
320,893	77,72
321,422	67,43
321,95	59,41
322,479	85,53
323,007	92,35
323,535	88,89
324,063	76,15
324,591	71,23
325,118	71,3
325,646	66,82
326,173	88,52
326,701	81,5
327,228	77,48
327,755	69,31
328,282	79,78
328,809	74,88
329,336	77,72
329,862	84,91
330,389	75,89
330,915	65,07
331,441	75,38
331,968	76,5
332,494	84,36
333,02	57,94
333,545	77,53
334,071	67,92
334,597	82,13
335,122	71,49
335,648	77,78
336,173	65,14
336,698	69,96
337,223	71,43
337,748	84,12
338,272	86,32
338,797	79,5
339,322	63,2
339,846	73,58
340,37	84,18
340,894	64,95
341,419	67,92
341,942	75
342,466	71,72
342,99	79,31
343,514	71,97
344,037	77,04
344,56	71,3
345,084	56,52
345,607	67,48
346,13	64,8
346,653	59,23
347,175	70,38
347,698	68,55
348,221	68,5
348,743	75,47
349,265	65,79
349,787	84,15
350,309	67,01
350,831	71,43
351,353	68,46
351,875	79,5
352,397	74,46
352,918	73,16
353,439	69,14
353,961	76,55
354,482	66,9
355,003	64,55
355,524	72,31
356,044	66,67
356,565	71,53
357,086	65,26
357,606	68,86
358,126	75,23
358,646	65,86
359,167	71,87
359,687	64
360,206	67,74
360,726	69,55
361,246	70,67
361,765	68,79
362,285	67,36
362,804	61,96
363,323	64,56
363,842	67,22
364,361	72
364,88	61,34
365,398	66,86
365,917	65,69
366,435	65,77
366,954	65,52
367,472	62,47
367,99	61,05
368,508	66,57
369,026	58,9
369,544	55,36
370,061	61,7
370,579	68,04
371,096	68,41
371,613	66,9
372,131	60,96
372,648	69,27
373,165	61,88
373,681	56,49
374,198	59,5
374,715	67,36
375,231	68,33
375,747	62,33
376,264	54,38
376,78	66,97
377,296	59,92
377,812	61,1
378,327	64,61
378,843	57,96
379,359	60,37
379,874	58,38
380,389	58,26
380,905	63,55
381,42	57,47
381,935	55,2
382,449	58,86
382,964	58,87
383,479	53,53
383,993	52,03
384,508	51,3
385,022	58,76
385,536	51
386,05	50
386,564	55,89
387,078	52,22
387,592	51,61
388,105	51,36
388,619	50,99
389,132	43,38
389,645	47,89
390,158	45,58
390,671	48,59
391,184	45,13
391,697	48,88
392,21	46,87
392,722	47,47
393,235	43,91
393,747	41,84
394,259	45,81
394,771	44,53
395,283	44,29
395,795	46,57
396,307	43,74
396,818	43,62
397,33	44,68
397,841	39,75
398,353	40,66
398,864	41,01
399,375	38,82
399,886	39,69
400,397	35,05
400,907	39,74
401,418	37,33
401,928	36,09
402,439	36,09
402,949	39,06
403,459	33,81
403,969	34,87
404,479	32,53
404,989	31,74
405,498	34,14
406,008	33,63
406,517	30,32
407,027	30,58
407,536	28,87
408,045	28,06
408,554	26,94
409,063	26,42
409,572	25,28
410,08	25,34
410,589	23,49
411,097	23,9
411,606	24,16
412,114	24,4
412,622	21,87
413,13	21,86
413,638	20,5
414,145	20,06
414,653	19,43
415,16	19,94
415,668	18,93
416,175	19,01
416,682	19,59
417,189	18,51
417,696	18,82
418,203	18,07
418,71	16,55
419,216	15,94
419,723	17,39
420,229	16,54
420,735	16
421,242	16,81
421,748	16,58
422,254	16,99
422,759	15,61
423,265	15,75
423,771	15,65
424,276	16,34
424,781	16,09
425,287	15,7
425,792	15,66
426,297	15,31
426,802	15,97
427,306	15,17
427,811	14,99
428,316	15,25
428,82	15,69
429,324	15,7
429,829	15,64
430,333	14,55
430,837	15,63
431,34	14,85
431,844	14,51
432,348	14,18
432,851	14,96
433,355	15,43
433,858	14,74
434,361	14,82
434,864	15,19
435,367	14,04
435,87	14,64
436,373	14,32
436,876	14,77
437,378	14,38
437,88	14,14
438,383	14,25
438,885	14,64
439,387	14,47
439,889	14,4
440,391	14,48
440,892	14,01
441,394	13,64
441,896	14,88
442,397	14,26
442,898	14,29
443,399	14,54
443,9	13,54
444,401	14,28
444,902	14,57
445,403	14,28
445,903	14,5
446,404	14,21
446,904	14,2
447,405	14,87
447,905	14,61
448,405	14,56
448,905	14,78
449,404	14,69
449,904	14,45
450,404	13,79
450,903	14,46
451,403	14,91
451,902	14,75
452,401	14,95
452,9	14,92
453,399	15,63
453,898	15,19
454,396	15,19
454,895	15,65
455,393	15,4
455,892	14,99
456,39	15,09
456,888	15,71
457,386	14,99
457,884	15,39
458,382	15,49
458,879	14,45
459,377	15
459,874	15,19
460,372	15,57
460,869	15,23
461,366	14,94
461,863	15,18
462,36	15,39
462,857	15,06
463,353	15,31
463,85	15,24
464,346	14,94
464,843	15,32
465,339	15,02
465,835	15,12
466,331	15,18
466,827	14,76
467,323	15,54
467,818	15,36
468,314	14,65
468,809	15,33
469,305	15,24
469,8	15,68
470,295	14,89
470,79	15,41
471,285	15,05
471,78	15,31
472,274	15,07
472,769	15,61
473,263	15,64
473,758	15,17
474,252	15,28
474,746	15,11
475,24	15,22
475,734	15,03
476,228	15,41
476,721	14,92
477,215	15,18
477,708	14,9
478,202	15,54
478,695	15,42
479,188	14,78
479,681	15,37
480,174	15,27
480,667	15,62
481,159	15,37
481,652	15,03
482,144	15,21
482,637	15,83
483,129	15,34
483,621	15,5
484,113	15,76
484,605	15,33
485,097	15,77
485,588	15,65
486,08	15,37
486,571	15,14
487,063	15,93
487,554	15,67
488,045	15,87
488,536	16,02
489,027	15,88
489,518	15,97
490,008	15,72
490,499	15,83
490,989	16,23
491,48	15,8
491,97	16,44
492,46	16,19
492,95	16,42
493,44	16,35
493,93	16,32
494,419	16,18
494,909	16,43
495,398	16,71
495,888	16,75
496,377	16,7
496,866	16,96
497,355	16,49
497,844	17,21
498,333	17
498,821	17,9
499,31	17,75
499,798	17,63
500,287	17,92
500,775	17,9
501,263	18,17
501,751	18,57
502,239	18,08
502,727	18,81
503,215	18,71
503,702	19,1
504,19	19,57
504,677	19,55
505,164	19,5
505,651	20,27
506,139	20,06
506,625	20,93
507,112	20,63
507,599	20,79
508,086	21,04
508,572	21,37
509,058	21,79
509,545	21,59
510,031	22,54
510,517	22,88
511,003	23,04
511,489	23,59
511,974	23,86
512,46	24,18
512,946	25,07
513,431	25,08
513,916	25,58
514,401	25,96
514,887	27,14
515,371	26,31
515,856	27,4
516,341	27,77
516,826	27,88
517,31	28,82
517,795	29,39
518,279	29,76
518,763	30,63
519,247	30,62
519,731	31
520,215	32,17
520,699	32,72
521,182	32,89
521,666	33,21
522,149	33,72
522,633	34,02
523,116	35,09
523,599	35,92
524,082	36,14
524,565	36,81
525,048	36,75
525,53	37,75
526,013	37,7
526,495	37,62
526,978	39,1
527,46	39,05
527,942	40,15
528,424	40,02
528,906	40,66
529,388	40,07
529,87	40,94
530,351	41,47
530,833	41,86
531,314	42,13
531,795	42,3
532,277	42,67
532,758	42,75
533,238	42,92
533,719	43,1
534,2	43,82
534,681	44,39
535,161	43,35
535,642	44,81
536,122	44,81
536,602	44,4
537,082	44,74
537,562	44,38
538,042	44,75
538,522	44,88
539,001	44,72
539,481	45,03
539,96	45,46
540,44	45,36
540,919	45,26
541,398	45,63
541,877	46,26
542,356	45,49
542,835	46,43
543,313	45,73
543,792	46,17
544,27	46,19
544,749	45,6
545,227	46,1
545,705	46,76
546,183	46,08
546,661	46,2
547,139	46,25
547,616	46,47
548,094	47,24
548,571	46,87
549,049	46,97
549,526	47,19
550,003	47,21
550,48	46,82
550,957	47,46
551,434	46,95
551,911	47,25
552,387	47,88
552,864	47,01
553,34	46,99
553,817	47,29
554,293	47,12
554,769	46,78
555,245	46,88
555,721	47,14
556,197	46,8
556,672	46,92
557,148	46,27
557,623	47,15
558,099	46,87
558,574	46,82
559,049	46,12
559,524	47,03
559,999	46,61
560,474	45,79
560,948	45,96
561,423	45,71
561,897	45,71
562,372	45,73
562,846	45,1
563,32	45,38
563,794	45,13
564,268	44,62
564,742	45,13
565,216	44,42
565,69	44,24
566,163	43,5
566,636	43,83
567,11	42,65
567,583	43,18
568,056	42,74
568,529	42,39
569,002	42,16
569,475	41,74
569,947	41,82
570,42	41,37
570,892	41,26
571,365	40,64
571,837	40,02
572,309	39,87
572,781	39,58
573,253	39,57
573,725	39,28
574,197	38,93
574,668	38,51
575,14	37,86
575,611	38,16
576,082	38,13
576,554	37,84
577,025	37,22
577,496	37,27
577,967	36,67
578,437	36,62
578,908	36,16
579,379	36,16
579,849	35,85
580,319	35,48
580,79	35,13
581,26	34,92
581,73	34,97
582,2	34,8
582,669	34,86
583,139	34,46
583,609	34,31
584,078	34,28
584,548	34
585,017	33,81
585,486	33,45
585,955	33,32
586,424	33,26
586,893	32,9
587,362	33,14
587,83	32,79
588,299	32,82
588,767	32,64
589,236	32,82
589,704	32,53
590,172	32,36
590,64	32,52
591,108	32,38
591,576	31,83
592,043	31,58
592,511	31,69
592,978	31,91
593,446	31,45
593,913	31,69
594,38	31,18
594,847	31,11
595,314	31,42
595,781	31
596,248	31,12
596,715	30,79
597,181	30,82
597,647	30,81
598,114	30,79
598,58	30,92
599,046	30,72
599,512	30,68
599,978	30,83
600,444	30,25
600,91	30,32
601,375	30,27
601,841	30,69
602,306	30,28
602,771	30,13
603,236	30,09
603,702	29,94
604,167	30,36
604,631	29,78
605,096	29,77
605,561	29,42
606,025	29,38
606,49	29,35
606,954	29,31
607,418	29,26
607,882	28,85
608,347	28,9
608,81	28,91
609,274	28,61
609,738	28,61
610,202	28,07
610,665	28,14
611,128	28,14
611,592	27,8
612,055	27,62
612,518	27,32
612,981	27,52
613,444	27,07
613,907	27,02
614,369	27,35
614,832	27,06
615,294	27
615,757	26,69
616,219	26,35
616,681	26
617,143	26,12
617,605	26,24
618,067	26,11
618,529	25,88
618,99	25,57
619,452	25,79
619,913	25,28
620,375	25,25
620,836	25,22
621,297	25,15
621,758	25,32
622,219	25,24
622,68	24,93
623,14	24,87
623,601	25,02
624,061	24,82
624,522	24,72
624,982	24,51
625,442	24,47
625,902	24,32
626,362	24,43
626,822	24,39
627,282	24,6
627,742	24,35
628,201	24,48
628,661	24,42
629,12	24,33
629,579	24,11
630,038	24,25
630,497	24,18
630,956	23,97
631,415	24,14
631,874	24,44
632,332	24,08
632,791	23,92
633,249	23,89
633,708	24,21
634,166	23,67
634,624	23,52
635,082	23,54
635,54	23,31
635,998	23,37
636,455	23,27
636,913	23,13
637,37	22,95
637,828	22,88
638,285	22,51
638,742	22,62
639,199	22,47
639,656	22,11
640,113	21,94
640,57	21,8
641,027	21,75
641,483	21,53
641,94	21,16
642,396	20,98
642,852	20,9
643,309	20,97
643,765	20,69
644,221	20,47
644,676	20,39
645,132	20,08
645,588	19,88
646,043	19,81
646,499	19,48
646,954	19,36
647,409	19,23
647,864	19,09
648,319	19,02
648,774	18,7
649,229	18,48
649,684	18,4
650,139	18,55
650,593	18,34
651,047	18,05
651,502	18,02
651,956	17,8
652,41	18,04
652,864	17,99
653,318	17,91
653,772	17,8
654,225	18,01
654,679	17,73
655,133	17,5
655,586	17,44
656,039	17,43
656,492	17,4
656,946	17,46
657,399	17,2
657,851	17,12
658,304	16,9
658,757	16,77
659,209	16,76
659,662	16,59
660,114	16,47
660,567	16,36
661,019	16,23
661,471	16,23
661,923	15,99
662,375	15,98
662,826	15,79
663,278	15,68
663,73	15,62
664,181	15,53
664,632	15,35
665,084	15,38
665,535	15,16
665,986	15,33
666,437	15,06
666,888	15,18
667,338	15,19
667,789	15,16
668,24	14,93
668,69	15,12
669,14	15,01
669,591	14,87
670,041	14,89
670,491	14,98
670,941	14,96
671,391	15,04
671,84	15,13
672,29	15,15
672,74	15,1
673,189	15,21
673,638	15,23
674,088	15,34
674,537	15,36
674,986	15,63
675,435	15,72
675,883	15,42
676,332	15,7
676,781	15,74
677,229	15,8
677,678	15,98
678,126	16,16
678,574	16,13
679,022	16,37
679,47	16,5
679,918	16,78
680,366	16,96
680,814	17,06
681,261	17,15
681,709	17,34
682,156	17,43
682,604	17,52
683,051	17,64
683,498	17,9
683,945	18,01
684,392	18,48
684,839	18,32
685,286	18,79
685,732	18,8
686,179	18,88
686,625	19,31
687,071	19,59
687,518	19,84
687,964	20,13
688,41	20,51
688,856	20,98
689,301	21,31
689,747	22,02
690,193	22,42
690,638	23,01
691,084	23,29
691,529	24,14
691,974	24,83
692,419	25,47
692,864	26,32
693,309	27,12
693,754	27,96
694,199	28,77
694,643	30,06
695,088	30,45
695,532	31,53
695,977	32,52
696,421	33,3
696,865	34,42
697,309	35,12
697,753	36,28
698,197	37,14
698,64	38,63
699,084	39,35
699,527	40,57
699,971	41,39
700,414	42,61
700,857	43,62
701,3	44,5
701,743	45,61
702,186	46,76
702,629	46,97
703,072	48,77
703,515	49,38
703,957	50,16
704,399	51,64
704,842	52,35
705,284	53,21
705,726	53,99
706,168	54,88
706,61	55,79
707,052	56,76
707,494	57,69
707,935	58,17
708,377	59,19
708,818	60,29
709,26	61,28
709,701	61,8
710,142	62,6
710,583	63,04
711,024	64,07
711,465	64,73
711,905	65,64
712,346	66,11
712,787	67,21
713,227	68,23
713,667	68,67
714,108	69,69
714,548	70,3
714,988	71,26
715,428	71,2
715,868	72,35
716,307	73,21
716,747	73,44
717,186	74,52
717,626	74,82
718,065	75,86
718,504	76,22
718,944	76,59
719,383	76,98
719,822	77,7
720,261	78,38
720,699	79,49
721,138	79,86
721,576	79,88
722,015	81,52
722,453	81,76
722,892	82,29
723,33	82,5
723,768	82,61
724,206	83,36
724,644	83,59
725,081	84,8
725,519	84,58
725,957	85,53
726,394	85,58
726,832	85,97
727,269	86,14
727,706	87,74
728,143	86,86
728,58	87,69
729,017	87,77
729,454	87,69
729,89	88,43
730,327	88,8
730,764	89,65
731,2	89,65
731,636	89,45
732,072	89,75
732,509	90,6
732,945	90,77
733,38	91,16
733,816	91,49
734,252	91,84
734,688	91,83
735,123	92,12
735,559	92,34
735,994	92,19
736,429	91,99
736,864	92,27
737,299	92,21
737,734	92,08
738,169	92,41
738,604	92,77
739,038	93,37
739,473	93,08
739,907	93,39
740,342	93,34
740,776	93,66
741,21	94,12
741,644	94,09
742,078	94,14
742,512	94,29
742,946	94,38
743,379	94,12
743,813	95,05
744,246	94,37
744,68	95,05
745,113	94,7
745,546	94,84
745,979	94,83
746,412	94,52
746,845	94,91
747,278	94,59
747,711	94,82
748,143	94,66
748,576	94,71
749,008	95,1
749,441	94,59
749,873	94,97
750,305	95,55
750,737	95,04
751,169	95,18
751,601	95,06
752,032	95,22
752,464	95,27
752,896	94,87
753,327	95,32
753,758	95,15
754,19	95,24
754,621	95,08
755,052	94,87
755,483	95,32
755,914	94,94
756,344	95,44
756,775	94,71
757,206	94,65
757,636	95,43
758,066	95,38
758,497	94,62
758,927	94,8
759,357	95,21
759,787	94,96
760,217	95,1
760,647	94,96
761,076	95,2
761,506	95,01
761,935	95,01
762,365	94,75
762,794	94,75
763,223	94,19
763,653	94,75
764,082	94,68
764,51	94,59
764,939	94,35
765,368	94,78
765,797	94,11
766,225	94,52
766,654	94,73
767,082	94,39
767,51	94,74
767,938	95,01
768,367	95,25
768,795	94,55
769,222	93,84
769,65	94,62
770,078	94,27
770,505	94,25
770,933	94,46
771,36	94,67
771,788	94,33
772,215	94,5
772,642	94,55
773,069	94,44
773,496	94,48
773,923	94,35
774,349	93,86
774,776	94,92
775,203	94,13
775,629	94,38
776,055	94,48
776,482	94,29
776,908	93,77
777,334	94,11
777,76	93,97
778,186	94,09
778,611	94,19
779,037	93,85
779,463	94,07
779,888	94,18
780,314	94,45
780,739	94,59
781,164	93,99
781,589	93,75
782,014	93,82
782,439	94,23
782,864	93,81
783,289	94,27
783,713	93,96
784,138	94,04
784,562	94,68
784,987	94,13
785,411	94,02
785,835	94,05
786,259	93,97
786,683	94,24
787,107	94,01
787,531	93,77
787,954	94,39
788,378	93,65
788,802	94,41
789,225	94,63
789,648	94,24
790,071	94,38
790,495	94,01
790,918	94,09
791,34	94,07
791,763	94,44
792,186	94,14
792,609	93,83
793,031	94,38
793,454	94,42
793,876	94
794,298	93,76
794,721	94,1
795,143	93,77
795,565	94,38
795,986	94,26
796,408	93,96
796,83	94,18
797,252	94,33
797,673	94,21
798,094	94,06
798,516	94
798,937	94,21
799,358	94,02
799,779	93,92
800,2	94,19
800,621	93,93
801,042	95,1
801,462	94,19
801,883	93,89
802,303	93,7
802,724	93,48
803,144	93,58
803,564	94,42
803,984	93,74
804,404	94,54
804,824	94,25
805,244	93,98
805,664	94,64
806,084	94,16
806,503	94,1
806,923	94,26
807,342	93,7
807,761	94,24
808,18	94,23
808,599	93,87
809,018	93,49
809,437	93,89
809,856	94,2
810,275	94,02
810,693	93,98
811,112	93,47
811,53	94,17
811,949	94,09
812,367	94,27
812,785	93,99
813,203	94,18
813,621	93,91
814,039	93,64
814,457	94,25
814,874	93,75
815,292	93,77
815,709	94,24
816,127	93,92
816,544	94,1
816,961	93,48
817,378	94,17
817,795	94,14
818,212	94,27
818,629	94,17
819,046	94,12
819,462	93,68
819,879	93,98
820,295	94,5
820,712	93,86
821,128	93,98
821,544	94,02
821,96	93,64
822,376	94,11
822,792	93,71
823,208	93,47
823,624	93,86
824,039	93,7
824,455	94,04
824,87	94,5
825,286	94,31
825,701	93,6
826,116	93,81
826,531	93,79
826,946	93,96
827,361	93,6
827,776	93,66
828,19	93,54
828,605	93,98
829,02	94,13
829,434	93,51
829,848	93,91
830,263	94,14
830,677	93,43
831,091	93,82
831,505	93,92
831,919	93,55
832,332	93,96
832,746	94,31
833,16	94,14
833,573	93,69
833,987	93,55
834,4	93,43
834,813	93,68
835,226	93,59
835,639	94,25
836,052	93,84
836,465	93,84
836,878	93,79
837,29	93,74
837,703	93,63
838,116	93,47
838,528	94,01
838,94	94,02
839,352	93,82
839,765	93,79
840,177	93,85
840,589	93,49
841	93,2
841,412	93,55
841,824	93,69
842,235	93,31
842,647	93,77
843,058	93,76
843,47	93,7
843,881	93,85
844,292	93,17
844,703	93,74
845,114	93,6
845,525	94,19
845,935	93,46
846,346	93,37
846,757	93,44
847,167	94,04
847,577	93,34
847,988	93,82
848,398	93,93
848,808	93,94
849,218	93,6
849,628	93,23
850,038	93,43
850,448	93,51
850,857	93,77
851,267	93,53
851,676	93,29
852,086	93,27
852,495	93,27
852,904	93,07
853,313	92,74
853,722	93,35
854,131	93,43
854,54	93,75
854,949	93,53
855,357	93,81
855,766	93,88
856,174	93,93
856,583	93,67
856,991	93,64
857,399	93,33
857,807	93,09
858,215	93,23
858,623	92,92
859,031	92,3
859,439	93,94
859,846	93,12
860,254	93,67
860,661	93,99
861,069	93,21
861,476	93,79
861,883	93,55
862,29	93,46
862,697	93,95
863,104	92,82
863,511	93,35
863,918	92,98
864,325	93,48
864,731	93,05
865,138	93,75
865,544	93,2
865,95	93,71
866,357	93,07
866,763	93,08
867,169	93,26
867,575	93,55
867,98	92,76
868,386	93,47
868,792	93,73
869,197	92,96
869,603	93,65
870,008	93,86
870,414	92,95
870,819	93,02
871,224	93,71
871,629	93,55
872,034	93,68
872,439	93,13
872,844	93,79
873,248	93,26
873,653	93,71
874,057	93,71
874,462	93,19
874,866	94,02
875,27	93,14
875,674	93,24
876,078	93,33
876,482	93,12
876,886	94,04
877,29	92,84
877,694	93,89
878,097	93,73
878,501	93,37
878,904	92,96
879,308	92,52
879,711	93,16
880,114	93,45
880,517	93,59
880,92	92,71
881,323	93,17
881,726	93,75
882,128	93,72
882,531	93,28
882,934	93,55
883,336	93,01
883,738	92,87
884,141	93,94
884,543	93,06
884,945	92,71
885,347	93,35
885,749	93,31
886,151	93,18
886,552	93,07
886,954	93,04
887,355	93,33
887,757	92,65
888,158	92,92
888,56	92,88
888,961	93,03
889,362	93,24
889,763	93,38
890,164	92,93
890,565	93,34
890,965	93,43
891,366	93,56
891,767	93,54
892,167	92,97
892,567	92,83
892,968	93,51
893,368	92,84
893,768	93,14
894,168	92,81
894,568	93,2
894,968	93,11
895,368	93,07
895,767	92,95
896,167	92,98
896,566	92,84
896,966	93,03
897,365	93,24
897,764	93,38
898,164	93,28
898,563	93,93
898,962	92,93
899,361	92,99
899,759	92,84
900,158	93,21
900,557	93,15
900,955	92,99
901,354	92,44
901,752	93,14
902,15	92,96
902,548	93,25
902,947	92,99
903,345	93,14
903,742	92,68
904,14	93,17
904,538	92,29
904,936	93,06
905,333	93,6
905,731	93,03
906,128	93,21
906,525	92,82
906,923	93,14
907,32	93,32
907,717	93,46
908,114	93,43
908,511	92,55
908,907	92,84
909,304	92,74
909,701	93,41
910,097	92,98
910,494	92,84
910,89	92,97
911,286	93,2
911,682	92,71
912,078	93,03
912,474	92,77
912,87	93,63
913,266	93,27
913,662	92,63
914,058	93,03
914,453	92,58
914,849	93,02
915,244	92,69
915,639	93,28
916,034	92,36
916,43	93,54
916,825	93,21
917,22	92,25
917,614	92,49
918,009	92,59
918,404	92,72
918,798	93,24
919,193	93,01
919,587	92,08
919,982	93,21
920,376	93,06
920,77	91,88
921,164	92,97
921,558	92,35
921,952	92,58
922,346	92,46
922,74	92,85
923,133	93,25
923,527	91,61
923,92	93,5
924,314	92,55
924,707	92,28
925,1	92,78
925,493	92,57
925,886	92,69
926,279	92,97
926,672	92,51
927,065	92,41
927,457	92,67
927,85	92
928,243	92,77
928,635	92,11
929,027	91,47
929,42	92,5
929,812	90,85
930,204	92,94
930,596	91,64
930,988	91,97
931,379	92,47
931,771	92,63
932,163	91,99
932,554	92,68
932,946	92,75
933,337	92,51
933,729	92,28
934,12	92,04
934,511	92,5
934,902	91,88
935,293	92,76
935,684	91,19
936,075	91,92
936,465	92,45
936,856	91,71
937,246	91,62
937,637	91,21
938,027	91,41
938,417	92,08
938,808	92,02
939,198	91,82
939,588	92,37
939,978	90,43
940,368	91,64
940,757	91,33
941,147	90,89
941,537	90,34
941,926	90,54
942,315	91,78
942,705	91,53
943,094	89,89
943,483	91,26
943,872	91,3
944,261	90,91
944,65	91,99
945,039	91,65
945,428	91,12
945,816	91,27
946,205	89,19
946,593	90,47
946,982	90,87
947,37	90,09
947,758	90,19
948,146	90,48
948,534	89,97
948,922	89,42
949,31	89,08
949,698	90,03
950,086	89,38
950,473	89,96
950,861	89,66
951,248	89,26
951,636	88,18
952,023	89,06
952,41	88,68
952,797	88,86
953,184	88,86
953,571	89,35
953,958	89,39
954,345	89,24
954,731	89,73
955,118	88,35
955,505	88,85
955,891	88,4
956,277	88,82
956,664	88,73
957,05	89,07
957,436	88,87
957,822	88,15
958,208	88,84
958,594	87,78
958,979	87,95
959,365	88,17
959,751	88,01
960,136	87,07
960,522	88,98
960,907	88,22
961,292	88,47
961,677	88,08
962,062	89,24
962,447	87,1
962,832	88,51
963,217	87,57
963,602	86,7
963,986	88,04
964,371	86,87
964,756	87,58
965,14	88,68
965,524	88,1
965,908	86,98
966,293	87,78
966,677	87,87
967,061	87,94
967,445	87,34
967,828	88,11
968,212	87,89
968,596	87,46
968,979	87,62
969,363	87,32
969,746	87,65
970,129	88,44
970,513	88,92
970,896	86,79
971,279	88,13
971,662	88,59
972,045	87,4
972,428	86,92
972,81	87,04
973,193	88,26
973,575	86,74
973,958	87,49
974,34	87,41
974,723	87,57
975,105	88,34
975,487	87,97
975,869	87,83
976,251	87,64
976,633	87,06
977,015	87,98
977,396	87,37
977,778	87,08
978,16	86,83
978,541	87,16
978,922	86,41
979,304	88,42
979,685	87,48
980,066	87,71
980,447	88,34
980,828	87,24
981,209	88,43
981,59	87,2
981,97	86,51
982,351	88,42
982,732	87,72
983,112	87,1
983,493	88,32
983,873	88,35
984,253	87,96
984,633	87,74
985,013	86,87
985,393	87,25
985,773	87,2
986,153	87,62
986,533	88,17
986,912	87,39
987,292	87,94
987,671	87,23
988,051	87,99
988,43	88,17
988,809	87,86
989,188	87,67
989,567	87,75
989,946	88,14
990,325	87,55
990,704	86,92
991,083	87,4
991,461	88,45
991,84	88,03
992,218	87,12
992,597	88,67
992,975	88,24
993,353	87,37
993,732	88,38
994,11	88,39
994,488	87,94
994,866	88,31
995,243	88,2
995,621	87,84
995,999	88,29
996,376	87,57
996,754	88,08
997,131	88,16
997,509	87,78
997,886	88,57
998,263	87,4
998,64	89,3
999,017	88,12
999,394	87,68
999,771	88,17
1000,148	88,12
1000,524	88,87
1000,901	88,89
1001,277	87,8
1001,654	88,61
1002,03	87,62
1002,406	87,86
1002,783	89,04
1003,159	88,54
1003,535	89,19
1003,911	88,2
1004,286	87,95
1004,662	88,9
1005,038	88,93
1005,414	88,45
1005,789	88,68
1006,164	88,37
1006,54	89,33
1006,915	89,53
1007,29	88,13
1007,665	88,35
1008,04	88,75
1008,415	89,14
1008,79	89,2
1009,165	88,97
1009,54	89,26
1009,914	88,62
1010,289	89,33
1010,663	88,61
1011,038	89,59
1011,412	89,27
1011,786	89,12
1012,16	88,29
1012,535	89,34
1012,909	90,7
1013,282	90,13
1013,656	88,16
1014,03	89,26
1014,404	87,61
1014,777	88,8
1015,151	88,72
1015,524	89,84
1015,897	88,75
1016,271	88,98
1016,644	89,96
1017,017	90
1017,39	89,18
1017,763	88,97
1018,136	89,51
1018,508	90,39
1018,881	89,33
1019,254	89,93
1019,626	88,39
1019,999	89,25
1020,371	88,59
1020,743	90,39
1021,116	89,97
1021,488	89,49
1021,86	89,97
1022,232	90,31
1022,604	90,14
1022,975	88,63
1023,347	88,72
1023,719	89,45
1024,09	89,89
1024,462	90,63
1024,833	89,56
1025,204	90,78
1025,576	90,62
1025,947	89,79
1026,318	90,03
1026,689	89,65
1027,06	89,2
1027,431	89,87
1027,801	89,71
1028,172	90,43
1028,543	89,88
1028,913	92,28
1029,284	89,36
1029,654	89,36
1030,024	90,52
1030,394	90,53
1030,764	89,6
1031,135	89,44
1031,504	89,27
1031,874	90,25
1032,244	90,17
1032,614	89,33
1032,983	90,63
1033,353	90,66
1033,722	91,36
1034,092	90,15
1034,461	89,25
1034,83	90,23
1035,2	90,88
1035,569	91,12
1035,938	90,36
1036,307	90,63
1036,675	91,22
1037,044	89,83
1037,413	90
1037,781	91,14
1038,15	90,5
1038,518	91,8
1038,887	89,89
1039,255	90,35
1039,623	91,18
1039,991	90,58
1040,359	90,47
1040,727	90,26
1041,095	91,19
1041,463	89,6
1041,831	90,46
1042,198	91,1
1042,566	89,23
1042,933	90,39
1043,301	90,59
1043,668	89,01
1044,035	89,99
1044,402	91,59
1044,77	92,26
1045,137	91,49
1045,503	90,98
1045,87	91,05
1046,237	91,71
1046,604	91,34
1046,97	92,53
1047,337	91,28
1047,703	89,94
1048,07	91,37
1048,436	88,87
1048,802	89,7
1049,168	91,24
1049,534	91,21
1049,9	91,82
1050,266	90,14
1050,632	91,34
1050,998	91,82
1051,364	91,49
1051,729	89,66
1052,095	90,7
1052,46	90,42
1052,825	93,41
1053,191	91,24
1053,556	92,25
1053,921	92,92
1054,286	91,21
1054,651	91,52
1055,016	90,52
1055,381	91,17
1055,745	92,18
1056,11	92,36
1056,475	91,52
1056,839	91,49
1057,203	91,98
1057,568	90,6
1057,932	93,39
1058,296	92,67
1058,66	90,77
1059,024	91,76
1059,388	92,22
1059,752	90,56
1060,116	89,86
1060,48	90,79
1060,843	90,36
1061,207	91,9
1061,57	91,17
1061,934	91,71
1062,297	90,95
1062,66	92,2
1063,023	91,27
1063,386	91,34
1063,749	90,21
1064,112	93,15
1064,475	91,69
1064,838	88,42
1065,201	90,93
1065,563	90,02
1065,926	92,5
1066,288	90,07
1066,651	90
1067,013	89,94
1067,375	90,58
1067,737	93,01
1068,099	91,28
1068,461	91,55
1068,823	93,04
1069,185	92,58
1069,547	90,97
1069,909	92,89
1070,27	91,5
1070,632	90,51
1070,993	89,59
1071,355	88,81
1071,716	90,33
1072,077	93,43
1072,438	89,17
1072,799	92,54
1073,16	92,81
1073,521	93,12
1073,882	90,68
1074,243	92,86
1074,603	91,73
1074,964	92,54
1075,325	93,03
1075,685	88,91
1076,045	91,73
1076,406	88,75
1076,766	94
1077,126	90,57
1077,486	92,66
1077,846	89,16
1078,206	90,77
1078,566	91,35
1078,925	91,13
1079,285	90,45
1079,645	92,92
1080,004	91
1080,364	90,93
1080,723	90,9
1081,082	88,76
1081,442	89,95
1081,801	90,56
1082,16	92,24
1082,519	92
1082,878	91,58
1083,237	93,25
1083,595	90,13
1083,954	90,74
1084,313	92,9
1084,671	89,62
1085,03	90,18
1085,388	91,8
1085,746	91,34
1086,104	89,71
1086,463	91,68
1086,821	91,13
1087,179	93,03
1087,537	92,47
1087,894	90,22
1088,252	92,47
1088,61	92,09
1088,967	92,88
1089,325	90,08
1089,682	91,24
1090,04	89,63
1090,397	90,62
1090,754	90,1
1091,111	92,31
1091,469	91,73
1091,826	90,2
1092,182	89,33
1092,539	91,61
1092,896	91,68
1093,253	88,6
1093,609	91,02
1093,966	95,64
1094,322	92,34
1094,679	90,84
1095,035	88,94
1095,391	88,19
1095,748	93,67
1096,104	89,57
1096,46	91,14
1096,816	91,87
1097,171	91,82
1097,527	93,66
1097,883	91,79
1098,239	91,77
1098,594	88,49
1098,95	88,73
1099,305	88,28
1099,66	89,56
1100,016	87,86
1100,371	93,55
1100,726	89,88
1101,081	87,79
1101,436	88,04
1101,791	92,28
1102,146	89,02
1102,5	84,87
1102,855	93,48
1103,21	90,85
1103,564	86,37
1103,918	86,26
1104,273	90,43
1104,627	87,34
1104,981	93,49
1105,335	90,39
1105,69	93,71
1106,043	92,25
1106,397	90,43
1106,751	90,24
1107,105	91,86
1107,459	88,37
1107,812	89,97
1108,166	88,8
1108,519	91,86
1108,873	91,77
1109,226	86,15
1109,579	90,73
1109,932	85,71
1110,285	88
1110,638	89,52
1110,991	91,4
1111,344	91,29
1111,697	92,96
1112,05	89,24
1112,402	94,54
1112,755	91,22
1113,107	88,04
1113,46	91,34
1113,812	93,25
1114,164	94,11
1114,517	89,52
1114,869	111,76
1115,221	69,77
1115,573	85,44
1115,924	96,59
