Data from A_2_0_Relative__3__00003.txt Node

Date: Mon Jan 29 12:44:34 CET 2024
User: diatiterra
Spectrometer: HDX00911
Trigger mode: 0
Integration Time (sec): 6,000000E-3
Scans to average: 4
Nonlinearity correction enabled: false
Boxcar width: 0
Storing dark spectrum: false
XAxis mode: Wavelengths
Number of Pixels in Spectrum: 2068
>>>>>Begin Spectral Data<<<<<
194,468	90,41
195,025	81,69
195,581	80,3
196,138	93,1
196,694	100
197,251	74,87
197,807	96,76
198,363	85,99
198,919	68,16
199,474	87,21
200,03	65,44
200,586	78,18
201,141	71,98
201,696	69,26
202,251	79,8
202,806	72,09
203,361	84,02
203,916	70,94
204,471	85,71
205,025	80,69
205,58	93,2
206,134	86,49
206,688	70,94
207,242	71,85
207,796	81,5
208,35	71,36
208,904	81,92
209,457	72,76
210,011	82,65
210,564	81,3
211,117	83,33
211,67	70,54
212,223	87,67
212,776	88,89
213,329	77,95
213,881	64,59
214,434	86,84
214,986	71,06
215,538	65,57
216,09	99,5
216,642	81,3
217,194	75,61
217,746	74,48
218,297	72,77
218,849	76,76
219,4	76,76
219,951	88,5
220,502	79,91
221,053	75,63
221,604	81,2
222,155	70,72
222,705	59,92
223,256	78,79
223,806	78,08
224,356	73,77
224,906	68,86
225,456	77,63
226,006	68,16
226,556	81,65
227,106	75,95
227,655	78,6
228,204	83,8
228,754	69,8
229,303	73,68
229,852	78,63
230,401	81,98
230,949	88,7
231,498	74,9
232,047	68,46
232,595	75,49
233,143	70,39
233,691	69,64
234,239	67,81
234,787	91,36
235,335	85,6
235,883	78,48
236,43	82,41
236,978	72,9
237,525	72,68
238,072	76,99
238,619	75,56
239,166	77,25
239,713	75,68
240,26	68,24
240,806	65,74
241,353	81,6
241,899	80
242,445	69,14
242,991	86,61
243,537	70,09
244,083	87,34
244,629	65,68
245,174	91,48
245,72	69,36
246,265	52,17
246,81	75,35
247,355	66,67
247,9	81,17
248,445	84,41
248,99	77,08
249,534	61,63
250,079	83,01
250,623	63,45
251,168	80,63
251,712	74,4
252,256	72,2
252,8	70
253,343	66,01
253,887	76,62
254,43	84,54
254,974	80,93
255,517	58,09
256,06	71,11
256,603	66,17
257,146	75,13
257,689	67,83
258,232	68,12
258,774	69,73
259,317	75,98
259,859	69,41
260,401	74,55
260,943	89,67
261,485	77,18
262,027	75,25
262,569	69,7
263,11	73,08
263,652	73,53
264,193	64,63
264,734	76,73
265,275	67,73
265,816	70,61
266,357	68,33
266,898	68,86
267,438	78,2
267,979	57,83
268,519	77,46
269,059	56,46
269,6	65,14
270,14	79,33
270,68	75,42
271,219	72,83
271,759	70,91
272,298	73,12
272,838	65,88
273,377	80,09
273,916	57,8
274,455	54,13
274,994	63,84
275,533	71,69
276,072	66,23
276,61	75
277,149	59,49
277,687	58,22
278,225	70,62
278,763	63,45
279,301	52,97
279,839	68,42
280,377	65,48
280,914	58,62
281,452	84,18
281,989	67,65
282,526	77,1
283,064	81,37
283,601	61,88
284,137	70,14
284,674	62,75
285,211	67,23
285,747	61,54
286,284	76,15
286,82	82,91
287,356	69,87
287,892	80
288,428	72,53
288,964	85,4
289,5	80,19
290,035	75,81
290,571	76,44
291,106	76,67
291,641	76,81
292,176	73,21
292,711	73,5
293,246	75,2
293,781	72,77
294,315	70,16
294,85	68,16
295,384	61,36
295,918	73,56
296,453	79,1
296,987	58,87
297,52	78,1
298,054	71,84
298,588	69,26
299,121	83,08
299,655	55,88
300,188	90,76
300,721	78,84
301,254	66,83
301,787	67,73
302,32	84,62
302,853	74,02
303,385	61,44
303,918	73,87
304,45	57,49
304,982	67,57
305,514	82,54
306,046	60,49
306,578	74,06
307,11	64,25
307,641	71,56
308,173	69,75
308,704	71,24
309,236	66,5
309,767	55,56
310,298	69,03
310,829	71,74
311,359	64,68
311,89	69,31
312,421	70,59
312,951	70,42
313,481	62,26
314,012	65
314,542	83,6
315,072	72,43
315,601	76,15
316,131	69,8
316,661	54,55
317,19	82,76
317,72	69,95
318,249	67,28
318,778	62,8
319,307	66,18
319,836	60,99
320,365	67,79
320,893	82,61
321,422	70,64
321,95	61,09
322,479	63,16
323,007	82,35
323,535	61,11
324,063	53,67
324,591	66,51
325,118	78,26
325,646	57,85
326,173	71,77
326,701	70,04
327,228	68,47
327,755	65,84
328,282	73,22
328,809	77,34
329,336	64,77
329,862	67,45
330,389	76,34
330,915	64,19
331,441	89,74
331,968	77,05
332,494	70,14
333,02	69,05
333,545	69,6
334,071	59,43
334,597	64,25
335,122	62,44
335,648	66,14
336,173	62,39
336,698	76,23
337,223	71,43
337,748	72,96
338,272	72,63
338,797	59,5
339,322	52,81
339,846	70,98
340,37	62,71
340,894	60,75
341,419	65
341,942	61,4
342,466	62,3
342,99	68,1
343,514	67,36
344,037	83,16
344,56	54,63
345,084	54,35
345,607	58,94
346,13	52
346,653	52,31
347,175	54,62
347,698	59,27
348,221	64,96
348,743	66,04
349,265	63,16
349,787	73,58
350,309	53,61
350,831	63,37
351,353	67,38
351,875	63,6
352,397	61,51
352,918	58,82
353,439	68,75
353,961	63,45
354,482	44,84
355,003	56,34
355,524	61,89
356,044	67,35
356,565	63,54
357,086	56,49
357,606	55,02
358,126	62,54
358,646	66,9
359,167	47,09
359,687	47,08
360,206	62,9
360,726	58,97
361,246	59,24
361,765	59,73
362,285	54,3
362,804	58,97
363,323	62,46
363,842	55,56
364,361	58,77
364,88	52,38
365,398	52,79
365,917	56,6
366,435	55,95
366,954	58,09
367,472	55,91
367,99	52,76
368,508	58,88
369,026	57,39
369,544	57,91
370,061	54,5
370,579	52,78
371,096	62,92
371,613	55,63
372,131	54,7
372,648	54,63
373,165	51,06
373,681	49,2
374,198	54,23
374,715	53,1
375,231	56,33
375,747	49,12
376,264	50,34
376,78	54,61
377,296	49,49
377,812	49,29
378,327	48,4
378,843	47,59
379,359	47,04
379,874	52,02
380,389	48,79
380,905	50,92
381,42	46,92
381,935	50,26
382,449	46,82
382,964	51,02
383,479	45,99
383,993	47,65
384,508	43,8
385,022	47,3
385,536	45,48
386,05	43,93
386,564	43,37
387,078	45,14
387,592	46,38
388,105	42,1
388,619	41,08
389,132	40,7
389,645	41,32
390,158	37,2
390,671	43,91
391,184	38,69
391,697	41,58
392,21	41,5
392,722	41,01
393,235	36,22
393,747	41,18
394,259	36,45
394,771	39,7
395,283	35,45
395,795	38,15
396,307	36,95
396,818	37,39
397,33	36,41
397,841	33,78
398,353	33,43
398,864	33,3
399,375	34,38
399,886	35,26
400,397	33,07
400,907	33,74
401,418	29,73
401,928	30,28
402,439	32,03
402,949	30,94
403,459	27,81
403,969	30,82
404,479	28,89
404,989	26,23
405,498	26,1
406,008	27,16
406,517	25,57
407,027	23,49
407,536	24,27
408,045	22
408,554	24,6
409,063	19,73
409,572	23,25
410,08	20,64
410,589	19,97
411,097	20,67
411,606	20,22
412,114	19,35
412,622	19,77
413,13	18,45
413,638	18,53
414,145	17,85
414,653	16,67
415,16	16,9
415,668	15,95
416,175	16,6
416,682	16,01
417,189	15,37
417,696	14,99
418,203	15,9
418,71	14,69
419,216	14,03
419,723	15,84
420,229	14,67
420,735	14,09
421,242	14,27
421,748	13,65
422,254	14,62
422,759	13,91
423,265	13,12
423,771	13,59
424,276	13,63
424,781	13,14
425,287	13,76
425,792	13,54
426,297	12,15
426,802	13,75
427,306	13,69
427,811	13,65
428,316	12,56
428,82	12,44
429,324	13,67
429,829	13,5
430,333	13,3
430,837	12,74
431,34	13,41
431,844	12,63
432,348	12,86
432,851	12,98
433,355	13,45
433,858	12,17
434,361	13,05
434,864	12,22
435,367	12,39
435,87	12,1
436,373	12,09
436,876	13,03
437,378	11,95
437,88	12,85
438,383	12,32
438,885	12,77
439,387	12,27
439,889	12,95
440,391	12,71
440,892	12,53
441,394	12,23
441,896	12,18
442,397	12,14
442,898	12,54
443,399	12,22
443,9	12,36
444,401	12,61
444,902	12,51
445,403	12,08
445,903	12,31
446,404	12,33
446,904	12,1
447,405	13,26
447,905	12,82
448,405	12,6
448,905	12,19
449,404	12,46
449,904	12,16
450,404	12,31
450,903	12,25
451,403	11,85
451,902	12,83
452,401	12,87
452,9	12,74
453,399	12,67
453,898	13,41
454,396	12,65
454,895	12,86
455,393	12,93
455,892	12,48
456,39	12,52
456,888	12,95
457,386	12,39
457,884	12,59
458,382	12,77
458,879	12,4
459,377	12,74
459,874	11,93
460,372	12,84
460,869	13,27
461,366	12,25
461,863	12,52
462,36	12,84
462,857	12,47
463,353	12,47
463,85	12,13
464,346	12,73
464,843	12,42
465,339	12,61
465,835	12,31
466,331	12,89
466,827	12,17
467,323	12,39
467,818	12,33
468,314	12,29
468,809	12,81
469,305	12,26
469,8	12,79
470,295	12,94
470,79	12,44
471,285	12,4
471,78	12,73
472,274	12,69
472,769	13,04
473,263	12,48
473,758	12,6
474,252	12,64
474,746	12,52
475,24	12,54
475,734	13,02
476,228	12,75
476,721	12,22
477,215	12,8
477,708	13,21
478,202	12,72
478,695	12,69
479,188	12,69
479,681	12,25
480,174	12,83
480,667	12,99
481,159	13,11
481,652	12,47
482,144	12,75
482,637	13,24
483,129	12,49
483,621	12,81
484,113	12,54
484,605	13,02
485,097	12,9
485,588	12,8
486,08	12,47
486,571	12,79
487,063	13,42
487,554	12,95
488,045	12,87
488,536	12,74
489,027	12,69
489,518	12,74
490,008	13,2
490,499	13,13
490,989	13,28
491,48	12,98
491,97	12,84
492,46	12,83
492,95	13,17
493,44	13,19
493,93	13,26
494,419	13,42
494,909	13,6
495,398	12,89
495,888	13,41
496,377	13,35
496,866	13,37
497,355	13,47
497,844	13,69
498,333	13,84
498,821	14,01
499,31	13,85
499,798	14,27
500,287	14,09
500,775	14,16
501,263	14,67
501,751	14,94
502,239	14,59
502,727	14,81
503,215	14,76
503,702	15,11
504,19	15,28
504,677	15,12
505,164	15
505,651	15,4
506,139	15,57
506,625	16,41
507,112	16,22
507,599	16,52
508,086	16,66
508,572	17,12
509,058	17,22
509,545	17,35
510,031	17,58
510,517	18,08
511,003	18,12
511,489	18,5
511,974	18,72
512,46	19,12
512,946	19,51
513,431	19,46
513,916	20,18
514,401	20,73
514,887	21,2
515,371	20,9
515,856	21,72
516,341	22,03
516,826	22,34
517,31	23,2
517,795	22,79
518,279	23,87
518,763	24,2
519,247	24,38
519,731	25,12
520,215	25,67
520,699	25,75
521,182	26,55
521,666	26,71
522,149	27,45
522,633	27,59
523,116	28,37
523,599	29,18
524,082	28,71
524,565	29,88
525,048	30,37
525,53	30,25
526,013	31,26
526,495	31,58
526,978	31,72
527,46	32,11
527,942	33,07
528,424	33,22
528,906	34,24
529,388	33,34
529,87	34,18
530,351	34,67
530,833	34,92
531,314	35,17
531,795	35,39
532,277	36,01
532,758	36,15
533,238	36,57
533,719	36,37
534,2	36,51
534,681	37,3
535,161	37,19
535,642	37,83
536,122	38,17
536,602	37,8
537,082	38,02
537,562	37,7
538,042	37,67
538,522	38,5
539,001	38,29
539,481	38,36
539,96	38,9
540,44	38,77
540,919	38,76
541,398	38,48
541,877	38,63
542,356	39,07
542,835	39,24
543,313	39,46
543,792	39,07
544,27	39,35
544,749	39,09
545,227	39,29
545,705	39,86
546,183	39,95
546,661	39,32
547,139	39,51
547,616	40,04
548,094	39,68
548,571	39,74
549,049	40,57
549,526	39,69
550,003	40,14
550,48	39,82
550,957	40,35
551,434	40,37
551,911	40,12
552,387	40,54
552,864	40,4
553,34	40,17
553,817	39,95
554,293	39,89
554,769	40,31
555,245	39,96
555,721	40,22
556,197	40,39
556,672	40,04
557,148	39,59
557,623	40,13
558,099	39,9
558,574	39,75
559,049	39,63
559,524	39,35
559,999	39,16
560,474	39,22
560,948	38,84
561,423	39,13
561,897	39,08
562,372	38,81
562,846	38,32
563,32	38,32
563,794	38,71
564,268	38,19
564,742	37,62
565,216	37,57
565,69	37,24
566,163	36,44
566,636	36,87
567,11	36,42
567,583	36,71
568,056	35,69
568,529	35,51
569,002	35
569,475	35,08
569,947	34,86
570,42	34,74
570,892	34,1
571,365	34,14
571,837	33,37
572,309	33,52
572,781	33,17
573,253	32,8
573,725	32,88
574,197	32,25
574,668	32,17
575,14	31,55
575,611	31,46
576,082	31,25
576,554	30,83
577,025	30,85
577,496	30,72
577,967	30,23
578,437	30
578,908	30,14
579,379	29,15
579,849	29,66
580,319	29,44
580,79	29,15
581,26	28,75
581,73	28,25
582,2	28,15
582,669	28,46
583,139	28,36
583,609	27,74
584,078	27,77
584,548	27,82
585,017	27,21
585,486	26,93
585,955	27,3
586,424	27,03
586,893	26,93
587,362	26,77
587,83	26,97
588,299	26,46
588,767	26,52
589,236	26,19
589,704	26,53
590,172	25,98
590,64	26,22
591,108	26,21
591,576	25,71
592,043	25,69
592,511	25,66
592,978	25,52
593,446	25,16
593,913	25,53
594,38	25,28
594,847	25,48
595,314	25,36
595,781	25,24
596,248	25,12
596,715	24,78
597,181	25,08
597,647	24,7
598,114	25,19
598,58	24,99
599,046	24,38
599,512	24,85
599,978	24,41
600,444	24,68
600,91	24,38
601,375	24,2
601,841	24,22
602,306	24,22
602,771	24,55
603,236	24,38
603,702	24,19
604,167	24,28
604,631	23,69
605,096	23,98
605,561	23,63
606,025	23,41
606,49	23,33
606,954	23,42
607,418	23,43
607,882	23,14
608,347	23,26
608,81	22,88
609,274	22,84
609,738	22,68
610,202	22,68
610,665	22,54
611,128	22,43
611,592	21,92
612,055	21,94
612,518	21,89
612,981	21,76
613,444	21,52
613,907	21,24
614,369	21,28
614,832	21,08
615,294	20,92
615,757	20,9
616,219	20,63
616,681	20,48
617,143	20,43
617,605	20,59
618,067	20,19
618,529	19,96
618,99	20,15
619,452	19,88
619,913	20,11
620,375	19,82
620,836	19,62
621,297	19,65
621,758	19,52
622,219	19,69
622,68	19,42
623,14	19,56
623,601	19,2
624,061	19,57
624,522	19,1
624,982	19,02
625,442	19,13
625,902	19,02
626,362	19,17
626,822	18,96
627,282	19,05
627,742	19,03
628,201	19,06
628,661	18,96
629,12	19,02
629,579	18,86
630,038	18,61
630,497	18,72
630,956	18,83
631,415	18,84
631,874	18,56
632,332	18,66
632,791	18,75
633,249	18,6
633,708	18,57
634,166	18,34
634,624	18,45
635,082	18,41
635,54	18,02
635,998	18,07
636,455	18,14
636,913	17,77
637,37	17,68
637,828	17,66
638,285	17,46
638,742	17,75
639,199	17,24
639,656	16,97
640,113	17,04
640,57	16,87
641,027	16,75
641,483	16,57
641,94	16,53
642,396	16,4
642,852	16,28
643,309	16,17
643,765	16,13
644,221	15,83
644,676	15,98
645,132	15,37
645,588	15,42
646,043	15,57
646,499	15,15
646,954	15,29
647,409	14,96
647,864	14,87
648,319	14,92
648,774	14,59
649,229	14,7
649,684	14,58
650,139	14,43
650,593	14,39
651,047	14,24
651,502	14,3
651,956	14,13
652,41	14,19
652,864	14,11
653,318	14,1
653,772	13,96
654,225	13,88
654,679	13,87
655,133	13,91
655,586	13,9
656,039	13,78
656,492	13,61
656,946	13,69
657,399	13,52
657,851	13,54
658,304	13,18
658,757	13,33
659,209	13,3
659,662	13,11
660,114	12,95
660,567	12,97
661,019	13,06
661,471	12,67
661,923	12,99
662,375	12,71
662,826	12,65
663,278	12,65
663,73	12,63
664,181	12,59
664,632	12,46
665,084	12,42
665,535	12,42
665,986	12,49
666,437	12,46
666,888	12,53
667,338	12,42
667,789	12,45
668,24	12,47
668,69	12,4
669,14	12,54
669,591	12,57
670,041	12,56
670,491	12,63
670,941	12,83
671,391	12,79
671,84	12,84
672,29	12,94
672,74	12,87
673,189	13,16
673,638	13,04
674,088	13,19
674,537	13,31
674,986	13,19
675,435	13,57
675,883	13,69
676,332	13,52
676,781	13,81
677,229	13,77
677,678	13,97
678,126	14,08
678,574	14,15
679,022	14,41
679,47	14,47
679,918	14,55
680,366	14,61
680,814	14,78
681,261	15,08
681,709	15,22
682,156	15,12
682,604	15,48
683,051	15,62
683,498	15,68
683,945	15,79
684,392	15,93
684,839	15,84
685,286	16,03
685,732	16,23
686,179	16,37
686,625	16,49
687,071	16,48
687,518	16,72
687,964	16,93
688,41	17,09
688,856	17,3
689,301	17,5
689,747	18
690,193	18,34
690,638	18,66
691,084	19,02
691,529	19,48
691,974	19,9
692,419	20,49
692,864	21,26
693,309	21,8
693,754	22,57
694,199	23,14
694,643	24,14
695,088	24,81
695,532	25,76
695,977	26,58
696,421	27,41
696,865	28,3
697,309	29,16
697,753	30,29
698,197	30,87
698,64	32,05
699,084	32,9
699,527	34,2
699,971	35,04
700,414	35,83
700,857	36,84
701,3	37,97
701,743	38,78
702,186	39,67
702,629	40,63
703,072	41,83
703,515	42,7
703,957	43,4
704,399	44,55
704,842	45,21
705,284	46,5
705,726	47,52
706,168	48,02
706,61	49,2
707,052	50,04
707,494	51,41
707,935	51,45
708,377	53,05
708,818	53,72
709,26	54,74
709,701	55,52
710,142	56,06
710,583	56,76
711,024	58,43
711,465	58,34
711,905	59,45
712,346	60,24
712,787	61,06
713,227	61,48
713,667	63,01
714,108	63,78
714,548	64,61
714,988	65,34
715,428	65,57
715,868	66,18
716,307	67,24
716,747	68,34
717,186	68,92
717,626	69,31
718,065	70,55
718,504	70,86
718,944	71,35
719,383	72,25
719,822	72,63
720,261	73,26
720,699	74,19
721,138	74,87
721,576	75,17
722,015	76,42
722,453	76,72
722,892	77,07
723,33	77,9
723,768	78,07
724,206	79,01
724,644	78,84
725,081	79,78
725,519	79,65
725,957	81,08
726,394	81,43
726,832	81,12
727,269	82,24
727,706	82,83
728,143	82,91
728,58	82,8
729,017	83,84
729,454	83,94
729,89	84,2
730,327	84,87
730,764	85,42
731,2	85,39
731,636	85,5
732,072	85,78
732,509	86,43
732,945	86,43
733,38	86,82
733,816	87,26
734,252	87,88
734,688	88,13
735,123	88,01
735,559	88
735,994	88,72
736,429	88,07
736,864	89,32
737,299	89,08
737,734	88,64
738,169	89,09
738,604	89,82
739,038	90,12
739,473	89,21
739,907	89,77
740,342	90,01
740,776	90
741,21	90,4
741,644	90,6
742,078	90,08
742,512	91,25
742,946	90,85
743,379	90,31
743,813	91,19
744,246	91,29
744,68	91,28
745,113	91,54
745,546	91,28
745,979	91,6
746,412	91,44
746,845	91,42
747,278	91,47
747,711	91,32
748,143	91,71
748,576	91,58
749,008	91,6
749,441	90,95
749,873	91,49
750,305	91,8
750,737	91,79
751,169	91,55
751,601	91,39
752,032	91,92
752,464	91,3
752,896	91,4
753,327	91,5
753,758	91,92
754,19	92
754,621	91,56
755,052	91,51
755,483	91,65
755,914	91,54
756,344	91,43
756,775	91,43
757,206	91,74
757,636	91,21
758,066	91,85
758,497	91,54
758,927	91,48
759,357	91,84
759,787	91,37
760,217	91,23
760,647	91,1
761,076	91,39
761,506	91,31
761,935	91,94
762,365	91,34
762,794	90,99
763,223	90,84
763,653	91,37
764,082	90,92
764,51	90,92
764,939	90,87
765,368	91,29
765,797	91,16
766,225	91,05
766,654	90,65
767,082	90,69
767,51	91,27
767,938	90,91
768,367	91,03
768,795	91,06
769,222	90,63
769,65	90,79
770,078	91,07
770,505	90,72
770,933	90,46
771,36	90,53
771,788	90,48
772,215	90,18
772,642	90,61
773,069	90,76
773,496	90,64
773,923	90,85
774,349	90,75
774,776	90,71
775,203	90,23
775,629	90,61
776,055	90,47
776,482	90,73
776,908	90,38
777,334	90,25
777,76	90,61
778,186	90,4
778,611	90,27
779,037	90,66
779,463	90,52
779,888	90,38
780,314	90,54
780,739	90,91
781,164	90,3
781,589	89,83
782,014	90,01
782,439	90,14
782,864	90,17
783,289	90,5
783,713	90,41
784,138	89,82
784,562	90,61
784,987	89,78
785,411	90,21
785,835	90,3
786,259	90,17
786,683	90,24
787,107	89,85
787,531	90,03
787,954	90,28
788,378	89,86
788,802	90,6
789,225	90,44
789,648	90,32
790,071	90,05
790,495	90,18
790,918	89,82
791,34	90,33
791,763	90,78
792,186	90,07
792,609	90,02
793,031	90,4
793,454	90,42
793,876	90,51
794,298	90
794,721	90,03
795,143	90,23
795,565	89,63
795,986	90,22
796,408	90,13
796,83	90,16
797,252	90,23
797,673	90,4
798,094	90,19
798,516	90,04
798,937	89,54
799,358	90,06
799,779	90,06
800,2	90,3
800,621	90,34
801,042	90,09
801,462	89,93
801,883	90,4
802,303	89,63
802,724	89,77
803,144	89,92
803,564	90,3
803,984	90
804,404	90,59
804,824	90,41
805,244	90,29
805,664	89,97
806,084	90,42
806,503	89,95
806,923	90,05
807,342	89,89
807,761	90,17
808,18	90,39
808,599	89,81
809,018	89,24
809,437	90
809,856	90,12
810,275	90,28
810,693	90,17
811,112	89,71
811,53	89,92
811,949	90,19
812,367	90,12
812,785	89,93
813,203	89,5
813,621	89,74
814,039	89,71
814,457	89,87
814,874	89,75
815,292	89,87
815,709	90,12
816,127	89,82
816,544	90,18
816,961	90,09
817,378	90,25
817,795	90,14
818,212	90,17
818,629	89,97
819,046	90,4
819,462	89,37
819,879	90,35
820,295	90,43
820,712	90,18
821,128	90,03
821,544	89,63
821,96	89,66
822,376	89,39
822,792	89,48
823,208	89,9
823,624	89,44
824,039	90
824,455	89,73
824,87	89,92
825,286	90,64
825,701	90,06
826,116	89,58
826,531	89,72
826,946	89,37
827,361	89,48
827,776	89,3
828,19	89,58
828,605	90,11
829,02	90,08
829,434	90,46
829,848	90,06
830,263	89,86
830,677	89,86
831,091	89,91
831,505	89,7
831,919	89,43
832,332	89,54
832,746	89,63
833,16	90,13
833,573	90,01
833,987	90,06
834,4	89,99
834,813	89,68
835,226	89,5
835,639	90,14
836,052	89,25
836,465	90,02
836,878	89,99
837,29	89,78
837,703	89,56
838,116	89,8
838,528	89,77
838,94	89,78
839,352	89,44
839,765	89,64
840,177	90,01
840,589	89,08
841	89,13
841,412	89,63
841,824	89,72
842,235	89,74
842,647	89,78
843,058	89,93
843,47	89,78
843,881	89,91
844,292	89,15
844,703	89,5
845,114	89,83
845,525	89,61
845,935	89,37
846,346	89,66
846,757	89,69
847,167	89,96
847,577	89,75
847,988	89,51
848,398	90,01
848,808	89,56
849,218	89,74
849,628	89,18
850,038	89,25
850,448	89,09
850,857	89,74
851,267	89,36
851,676	89,66
852,086	89,52
852,495	89,33
852,904	89,45
853,313	89,2
853,722	89,54
854,131	88,89
854,54	88,87
854,949	89,66
855,357	89,49
855,766	89,61
856,174	89,46
856,583	90,4
856,991	89,3
857,399	89,25
857,807	89,29
858,215	89,15
858,623	89,45
859,031	89,24
859,439	89,58
859,846	89,08
860,254	89,81
860,661	89,57
861,069	89,16
861,476	89,94
861,883	89,73
862,29	89,19
862,697	89,59
863,104	89,43
863,511	89,01
863,918	88,97
864,325	89,49
864,731	89,25
865,138	89,72
865,544	89,23
865,95	89,48
866,357	89,25
866,763	89,78
867,169	88,9
867,575	89,72
867,98	89,08
868,386	89,16
868,792	89,21
869,197	88,8
869,603	89,26
870,008	89,94
870,414	89,27
870,819	89,27
871,224	89,44
871,629	89,75
872,034	89,24
872,439	88,93
872,844	89,4
873,248	88,65
873,653	89,39
874,057	89,33
874,462	89,44
874,866	90,2
875,27	89,23
875,674	89,07
876,078	89,26
876,482	88,96
876,886	89,68
877,29	89,09
877,694	89,66
878,097	89,63
878,501	88,91
878,904	89,54
879,308	88,9
879,711	89,31
880,114	89,25
880,517	89,28
880,92	89,38
881,323	89,22
881,726	89,56
882,128	89,78
882,531	90,04
882,934	89,33
883,336	88,56
883,738	88,98
884,141	89,29
884,543	88,88
884,945	89,37
885,347	89,5
885,749	89,5
886,151	89,41
886,552	89,26
886,954	89,11
887,355	89,52
887,757	89,05
888,158	89,14
888,56	88,98
888,961	89,08
889,362	88,99
889,763	89,52
890,164	88,98
890,565	89,18
890,965	89,74
891,366	89,7
891,767	89,4
892,167	88,66
892,567	89,16
892,968	89,58
893,368	88,76
893,768	89,34
894,168	88,59
894,568	89,47
894,968	88,73
895,368	89,29
895,767	89,12
896,167	89,6
896,566	89,12
896,966	88,77
897,365	89,58
897,764	89,71
898,164	89,09
898,563	89,13
898,962	89,07
899,361	89,21
899,759	88,92
900,158	89,01
900,557	89,61
900,955	88,46
901,354	89,07
901,752	88,7
902,15	89,64
902,548	89,7
902,947	89,35
903,345	90,17
903,742	89,11
904,14	89,27
904,538	89,01
904,936	89,18
905,333	89,49
905,731	89,7
906,128	88,9
906,525	89,07
906,923	89,18
907,32	89,24
907,717	89,24
908,114	89,14
908,511	88,84
908,907	88,94
909,304	89,02
909,701	89,06
910,097	89,01
910,494	88,67
910,89	89,51
911,286	89,2
911,682	89,2
912,078	88,89
912,474	88,75
912,87	89,25
913,266	88,67
913,662	89,17
914,058	89,29
914,453	88,59
914,849	88,75
915,244	89,41
915,639	89,78
916,034	88,65
916,43	89,66
916,825	89,5
917,22	88,45
917,614	89,32
918,009	88,61
918,404	88,58
918,798	88,83
919,193	89,27
919,587	88,87
919,982	89,55
920,376	89,41
920,77	88,5
921,164	89,03
921,558	88,39
921,952	88,84
922,346	88,81
922,74	89
923,133	89,29
923,527	88,3
923,92	88,93
924,314	88,65
924,707	88,59
925,1	88,74
925,493	89,25
925,886	88,82
926,279	88,98
926,672	88,74
927,065	88,41
927,457	88,64
927,85	88,86
928,243	88,3
928,635	88,62
929,027	88,33
929,42	88,15
929,812	87,94
930,204	88,8
930,596	88,28
930,988	88,91
931,379	88,87
931,771	88,4
932,163	87,84
932,554	88,86
932,946	88,39
933,337	88,74
933,729	88,77
934,12	88,65
934,511	88,63
934,902	88,13
935,293	89,13
935,684	88,35
936,075	87,49
936,465	89,22
936,856	87,93
937,246	88,91
937,637	88,49
938,027	88,57
938,417	88,77
938,808	87,8
939,198	88,79
939,588	88,46
939,978	86,41
940,368	88,66
940,757	88,37
941,147	88,25
941,537	87,67
941,926	87,1
942,315	88,69
942,705	87,98
943,094	87,45
943,483	86,58
943,872	88,09
944,261	87,83
944,65	87,74
945,039	88,4
945,428	87,24
945,816	88,02
946,205	87,7
946,593	87,17
946,982	86,77
947,37	87,16
947,758	86,49
948,146	87,76
948,534	86,68
948,922	86,54
949,31	86,56
949,698	87,35
950,086	86,1
950,473	87,02
950,861	86,62
951,248	86,55
951,636	85,12
952,023	86,79
952,41	85,5
952,797	85,61
953,184	86,49
953,571	86,92
953,958	86,52
954,345	86,62
954,731	87,24
955,118	85,77
955,505	86,56
955,891	86,55
956,277	86,63
956,664	86,16
957,05	86,26
957,436	85,72
957,822	86,16
958,208	85,81
958,594	86,13
958,979	86,03
959,365	85,67
959,751	85,93
960,136	85,82
960,522	85,56
960,907	85,98
961,292	86,87
961,677	85,78
962,062	87,32
962,447	85,36
962,832	85,78
963,217	85,88
963,602	84,55
963,986	85,53
964,371	85,32
964,756	84,96
965,14	86,07
965,524	85,27
965,908	85,33
966,293	85,24
966,677	85,91
967,061	85,81
967,445	84,68
967,828	85,52
968,212	85,28
968,596	86,19
968,979	86,03
969,363	85,63
969,746	85,59
970,129	85,42
970,513	86,17
970,896	84,91
971,279	85,47
971,662	85,97
972,045	85,91
972,428	85,57
972,81	85,32
973,193	86,32
973,575	84,5
973,958	85,26
974,34	85,3
974,723	84,91
975,105	86,08
975,487	85,37
975,869	86,1
976,251	85,43
976,633	85,16
977,015	84,56
977,396	85,71
977,778	84,89
978,16	85,11
978,541	85,22
978,922	84,22
979,304	85,42
979,685	84,82
980,066	86,35
980,447	86,25
980,828	85,2
981,209	86,2
981,59	84,76
981,97	84,12
982,351	85,95
982,732	86,12
983,112	84,79
983,493	86,09
983,873	84,55
984,253	84,92
984,633	85,64
985,013	85,88
985,393	85,92
985,773	86,01
986,153	85,01
986,533	85,72
986,912	86,34
987,292	85,92
987,671	85,18
988,051	85,5
988,43	86,1
988,809	84,82
989,188	85,95
989,567	84,91
989,946	85,84
990,325	85,29
990,704	85,42
991,083	85,59
991,461	85,7
991,84	85,28
992,218	85,31
992,597	85,98
992,975	86,59
993,353	85,34
993,732	86,23
994,11	86,03
994,488	85,8
994,866	86,14
995,243	86,19
995,621	85,81
995,999	85,55
996,376	85,19
996,754	84,8
997,131	86,52
997,509	85,39
997,886	85,31
998,263	85,32
998,64	86
999,017	85,5
999,394	85,39
999,771	85,52
1000,148	85,69
1000,524	85,97
1000,901	85,81
1001,277	85,88
1001,654	86,55
1002,03	86
1002,406	84,84
1002,783	85,94
1003,159	85,29
1003,535	86,09
1003,911	85,7
1004,286	85,8
1004,662	86,47
1005,038	85,72
1005,414	85,82
1005,789	85,56
1006,164	85,9
1006,54	86,16
1006,915	86,19
1007,29	85,15
1007,665	86,23
1008,04	85,64
1008,415	86,66
1008,79	85,63
1009,165	85,65
1009,54	85,92
1009,914	85,25
1010,289	86,57
1010,663	85,53
1011,038	87,13
1011,412	86,08
1011,786	86,34
1012,16	85,44
1012,535	86,16
1012,909	87,23
1013,282	85,9
1013,656	85,61
1014,03	85,73
1014,404	85,42
1014,777	86,26
1015,151	85,84
1015,524	86,36
1015,897	86,02
1016,271	86,06
1016,644	85,56
1017,017	87,13
1017,39	86,53
1017,763	86,78
1018,136	86,31
1018,508	87,52
1018,881	86,31
1019,254	86,9
1019,626	86,54
1019,999	87,03
1020,371	86,17
1020,743	87,39
1021,116	86,96
1021,488	87,24
1021,86	86,33
1022,232	87,6
1022,604	87,15
1022,975	85,43
1023,347	86,47
1023,719	86,77
1024,09	86,45
1024,462	86,3
1024,833	86,16
1025,204	85,93
1025,576	86,73
1025,947	86,73
1026,318	86,25
1026,689	86,47
1027,06	86,76
1027,431	87,1
1027,801	85,78
1028,172	87,24
1028,543	87,05
1028,913	87,99
1029,284	85,73
1029,654	87,58
1030,024	87,28
1030,394	87,28
1030,764	87,11
1031,135	87,18
1031,504	87,05
1031,874	87,45
1032,244	87,16
1032,614	87,13
1032,983	87,15
1033,353	87,03
1033,722	87,34
1034,092	89,31
1034,461	86,18
1034,83	87,04
1035,2	88,52
1035,569	86,51
1035,938	87,24
1036,307	87,91
1036,675	88,17
1037,044	86,84
1037,413	85,95
1037,781	85,98
1038,15	87,07
1038,518	86,9
1038,887	86,42
1039,255	87,27
1039,623	88,53
1039,991	87,65
1040,359	87,46
1040,727	86,37
1041,095	88,61
1041,463	86,45
1041,831	86,74
1042,198	86,85
1042,566	85,63
1042,933	87,19
1043,301	86,66
1043,668	87,02
1044,035	86,28
1044,402	88,18
1044,77	87,45
1045,137	87,93
1045,503	86,69
1045,87	86,63
1046,237	88,31
1046,604	85,91
1046,97	87,88
1047,337	88,37
1047,703	85,41
1048,07	86,13
1048,436	86,69
1048,802	87,01
1049,168	87,64
1049,534	87,86
1049,9	87,47
1050,266	86,48
1050,632	88,87
1050,998	85,73
1051,364	88,63
1051,729	87,66
1052,095	87,27
1052,46	86,73
1052,825	89,09
1053,191	88,87
1053,556	87,75
1053,921	87,14
1054,286	88,03
1054,651	86,36
1055,016	88,24
1055,381	89,05
1055,745	88,24
1056,11	88,35
1056,475	87,31
1056,839	89,8
1057,203	87,94
1057,568	89,28
1057,932	89,54
1058,296	88,53
1058,66	87,57
1059,024	87,4
1059,388	88,34
1059,752	87,24
1060,116	87,68
1060,48	87,38
1060,843	87,66
1061,207	89,32
1061,57	87,7
1061,934	87,35
1062,297	88,07
1062,66	88,68
1063,023	87,89
1063,386	88,16
1063,749	88,56
1064,112	86,97
1064,475	87,88
1064,838	84,74
1065,201	87,48
1065,563	85,18
1065,926	86,65
1066,288	88,5
1066,651	86,26
1067,013	86,36
1067,375	89,69
1067,737	87,34
1068,099	86,9
1068,461	88,72
1068,823	89,39
1069,185	89,74
1069,547	86,64
1069,909	86,86
1070,27	89,13
1070,632	88,42
1070,993	86,44
1071,355	85,42
1071,716	85,26
1072,077	89,19
1072,438	86,61
1072,799	87,42
1073,16	89,23
1073,521	88,41
1073,882	88,32
1074,243	88,15
1074,603	88,54
1074,964	87,58
1075,325	88,83
1075,685	87,87
1076,045	86,06
1076,406	86,88
1076,766	88,35
1077,126	87,03
1077,486	88,8
1077,846	86,23
1078,206	88
1078,566	86,97
1078,925	88,59
1079,285	86,49
1079,645	88,37
1080,004	86,48
1080,364	88,34
1080,723	86,84
1081,082	86,36
1081,442	85,55
1081,801	84,25
1082,16	91,33
1082,519	90,42
1082,878	90,09
1083,237	87,36
1083,595	88,75
1083,954	86,53
1084,313	89,81
1084,671	85,19
1085,03	86,58
1085,388	87,23
1085,746	87,2
1086,104	89,79
1086,463	88,42
1086,821	84,95
1087,179	86,38
1087,537	88,73
1087,894	88,02
1088,252	90,19
1088,61	86,7
1088,967	89,9
1089,325	86,39
1089,682	86,01
1090,04	87,97
1090,397	87,99
1090,754	89,54
1091,111	87,09
1091,469	87,75
1091,826	88,97
1092,182	85,13
1092,539	87,12
1092,896	86,76
1093,253	83,08
1093,609	88,81
1093,966	89,85
1094,322	87,72
1094,679	85,71
1095,035	86,06
1095,391	86,64
1095,748	86,84
1096,104	85,19
1096,46	88,08
1096,816	85,62
1097,171	87,86
1097,527	85,68
1097,883	87,73
1098,239	88,46
1098,594	85,51
1098,95	87,34
1099,305	86,18
1099,66	86,52
1100,016	85,39
1100,371	87,8
1100,726	88,27
1101,081	85,12
1101,436	85,48
1101,791	88,53
1102,146	86,06
1102,5	82,93
1102,855	91,26
1103,21	89,47
1103,564	84,39
1103,918	85,95
1104,273	88,12
1104,627	85,23
1104,981	88,81
1105,335	86,32
1105,69	84,92
1106,043	87,58
1106,397	88,48
1106,751	88,17
1107,105	84,49
1107,459	85,19
1107,812	86,12
1108,166	85,88
1108,519	90,84
1108,873	90,22
1109,226	87,38
1109,579	87,06
1109,932	91,33
1110,285	84,59
1110,638	86,61
1110,991	88,53
1111,344	90,04
1111,697	88,93
1112,05	82,76
1112,402	84,65
1112,755	86,79
1113,107	85,63
1113,46	88,6
1113,812	92,78
1114,164	89,84
1114,517	85,37
1114,869	95,29
1115,221	58,14
1115,573	62,14
1115,924	86,36
