Data from A_6_0_Relative__3__00013.txt Node

Date: Mon Jan 29 12:45:54 CET 2024
User: diatiterra
Spectrometer: HDX00911
Trigger mode: 0
Integration Time (sec): 6,000000E-3
Scans to average: 4
Nonlinearity correction enabled: false
Boxcar width: 0
Storing dark spectrum: false
XAxis mode: Wavelengths
Number of Pixels in Spectrum: 2068
>>>>>Begin Spectral Data<<<<<
194,468	106,85
195,025	85,92
195,581	103,03
196,138	101,72
196,694	98,62
197,251	76,47
197,807	102,16
198,363	79,23
198,919	76,73
199,474	74,43
200,03	61,75
200,586	75,45
201,141	75,86
201,696	77,06
202,251	91,13
202,806	83,72
203,361	79,91
203,916	77,35
204,471	84,73
205,025	84,55
205,58	83,5
206,134	75,68
206,688	68,38
207,242	70,59
207,796	85,46
208,35	82,27
208,904	80,77
209,457	76,65
210,011	77,17
210,564	75,22
211,117	72,48
211,67	78,84
212,223	82,38
212,776	78,63
213,329	70,08
213,881	70,04
214,434	80,26
214,986	66,38
215,538	67,21
216,09	70,35
216,642	70,43
217,194	65,45
217,746	69,46
218,297	78,57
218,849	77,18
219,4	74,27
219,951	87
220,502	70,54
221,053	73,11
221,604	70,09
222,155	76,58
222,705	67,09
223,256	71
223,806	89,95
224,356	70,49
224,906	60,81
225,456	79,82
226,006	71,43
226,556	75,69
227,106	69,62
227,655	77,73
228,204	72,22
228,754	70,61
229,303	66,23
229,852	70,97
230,401	73,42
230,949	82,61
231,498	66,11
232,047	76,76
232,595	70,04
233,143	81,97
233,691	72,87
234,239	68,67
234,787	70,91
235,335	66,67
235,883	86,1
236,43	74,54
236,978	70,56
237,525	72,2
238,072	73,45
238,619	72,44
239,166	75,54
239,713	74,32
240,26	66,67
240,806	75,3
241,353	74,53
241,899	75,51
242,445	74,07
242,991	68,75
243,537	66,07
244,083	78,06
244,629	57,2
245,174	98,86
245,72	85,96
246,265	67,39
246,81	72,09
247,355	78,86
247,9	73,22
248,445	86,02
248,99	72,08
249,534	68,16
250,079	79,61
250,623	84,26
251,168	72,52
251,712	74,4
252,256	73,66
252,8	79,13
253,343	70,94
253,887	76,19
254,43	88,41
254,974	75,77
255,517	69,71
256,06	68,44
256,603	73,63
257,146	93,26
257,689	62,4
258,232	80,79
258,774	73,51
259,317	78,6
259,859	74,43
260,401	73,21
260,943	98,37
261,485	74,27
262,027	82,18
262,569	78,79
263,11	80,77
263,652	85,29
264,193	83,74
264,734	78,71
265,275	79,55
265,816	68,42
266,357	80,54
266,898	95,81
267,438	76,3
267,979	83,04
268,519	86,07
269,059	77,03
269,6	84,4
270,14	82,69
270,68	71,25
271,219	71,65
271,759	85,91
272,298	86,56
272,838	70,62
273,377	87,33
273,916	75,69
274,455	70,64
274,994	92,41
275,533	70,32
276,072	71,05
276,61	78,92
277,149	77,44
277,687	69,78
278,225	62,09
278,763	70,28
279,301	66,53
279,839	71,05
280,377	73,1
280,914	69,4
281,452	102,55
281,989	74,02
282,526	81,78
283,064	79,9
283,601	78,92
284,137	77,38
284,674	80,39
285,211	79,57
285,747	65,81
286,284	72,02
286,82	80,77
287,356	84,28
287,892	76,5
288,428	76,39
288,964	94,25
289,5	81,6
290,035	79,07
290,571	79,81
291,106	98,89
291,641	85,51
292,176	81,82
292,711	84,62
293,246	76
293,781	76,53
294,315	73,82
294,85	73,13
295,384	70,45
295,918	75,48
296,453	76,12
296,987	67,74
297,52	86,19
298,054	83,98
298,588	71,86
299,121	90,55
299,655	63,73
300,188	85,87
300,721	90,46
301,254	80,29
301,787	70,45
302,32	81,73
302,853	88,24
303,385	78,81
303,918	75,38
304,45	75,85
304,982	83,78
305,514	93,12
306,046	73,25
306,578	79,72
307,11	88,89
307,641	64,89
308,173	72,69
308,704	80,97
309,236	67,96
309,767	56,84
310,298	77,43
310,829	73,04
311,359	70,64
311,89	82,01
312,421	78,61
312,951	75,12
313,481	66,98
314,012	69,55
314,542	86,24
315,072	70,81
315,601	68,35
316,131	71,29
316,661	65,45
317,19	77,34
317,72	72,54
318,249	63,59
318,778	67,15
319,307	76,33
319,836	65,02
320,365	70,67
320,893	83,7
321,422	69,72
321,95	64,02
322,479	66,67
323,007	90
323,535	81,31
324,063	66,97
324,591	73,58
325,118	68,26
325,646	62,78
326,173	75,6
326,701	83,7
327,228	68,47
327,755	63,86
328,282	60,66
328,809	88,67
329,336	71,5
329,862	60,85
330,389	65,62
330,915	54,15
331,441	76,92
331,968	65,03
332,494	58,77
333,02	54,37
333,545	74,89
334,071	67,92
334,597	52,17
335,122	74,66
335,648	74,07
336,173	56,88
336,698	56,5
337,223	70,37
337,748	66,09
338,272	77,37
338,797	50
339,322	60,61
339,846	65,28
340,37	62,71
340,894	64,95
341,419	53,75
341,942	66,67
342,466	68,44
342,99	64,22
343,514	63,18
344,037	70,92
344,56	62,96
345,084	55,07
345,607	59,35
346,13	57,6
346,653	62,69
347,175	58,85
347,698	60,89
348,221	65,35
348,743	64,15
349,265	66,54
349,787	65,45
350,309	48,11
350,831	55,68
351,353	53,05
351,875	68,2
352,397	66,19
352,918	58,82
353,439	53,52
353,961	66,21
354,482	50,18
355,003	49,63
355,524	59,61
356,044	49,32
356,565	65,62
357,086	64,91
357,606	49,13
358,126	67,18
358,646	57,93
359,167	55,96
359,687	58,46
360,206	56,77
360,726	57,69
361,246	61,88
361,765	63,76
362,285	53,12
362,804	54,89
363,323	57,66
363,842	60
364,361	52,62
364,88	50,98
365,398	55,43
365,917	54,25
366,435	47,32
366,954	50,13
367,472	57,22
367,99	53,59
368,508	58,58
369,026	52,88
369,544	50,51
370,061	49,61
370,579	56,17
371,096	61,62
371,613	53,99
372,131	53,25
372,648	55,85
373,165	50,59
373,681	43,51
374,198	49,89
374,715	54,94
375,231	56,11
375,747	50,44
376,264	51,46
376,78	56,85
377,296	44,58
377,812	50,31
378,327	51,17
378,843	49,81
379,359	46,85
379,874	48,55
380,389	52,69
380,905	50,55
381,42	48,86
381,935	45,68
382,449	49,33
382,964	44,2
383,479	47,28
383,993	43,92
384,508	43,95
385,022	47,3
385,536	42,73
386,05	45,81
386,564	46,05
387,078	42,92
387,592	40,48
388,105	46,73
388,619	38,84
389,132	39,61
389,645	42,93
390,158	39,38
390,671	39,23
391,184	41,85
391,697	40,05
392,21	39,71
392,722	35,95
393,235	37,07
393,747	36,91
394,259	39,65
394,771	37,77
395,283	39,12
395,795	35,14
396,307	35,17
396,818	35,88
397,33	35,93
397,841	35,48
398,353	34,2
398,864	32,92
399,375	35,3
399,886	33,73
400,397	30,06
400,907	31,74
401,418	30,63
401,928	31,99
402,439	27,89
402,949	31,53
403,459	28,09
403,969	28,24
404,479	27,74
404,989	25,35
405,498	25,85
406,008	26,08
406,517	26,41
407,027	24,07
407,536	23,98
408,045	22,32
408,554	23,04
409,063	21,34
409,572	22,33
410,08	20,97
410,589	20,62
411,097	18,93
411,606	19,1
412,114	19,14
412,622	17,75
413,13	16,72
413,638	15,43
414,145	17,57
414,653	15,39
415,16	15,83
415,668	15,28
416,175	14,73
416,682	15,06
417,189	15,34
417,696	14,69
418,203	15,19
418,71	13,54
419,216	13,01
419,723	14,21
420,229	13,8
420,735	12,58
421,242	13,54
421,748	13,32
422,254	13,28
422,759	13,02
423,265	12,43
423,771	13,01
424,276	12,35
424,781	12,72
425,287	12,54
425,792	12,63
426,297	12,35
426,802	12,25
427,306	12,2
427,811	11,75
428,316	11,92
428,82	11,36
429,324	12,18
429,829	12,34
430,333	12,27
430,837	12,31
431,34	11,41
431,844	11
432,348	11,85
432,851	12,66
433,355	11,58
433,858	11,28
434,361	11,93
434,864	10,98
435,367	11,97
435,87	11,18
436,373	11,54
436,876	12,47
437,378	11,16
437,88	11,63
438,383	11,58
438,885	11,48
439,387	11,76
439,889	11,48
440,391	11,54
440,892	11,64
441,394	11,52
441,896	10,72
442,397	11,1
442,898	11,75
443,399	11,45
443,9	11,63
444,401	11,2
444,902	11,57
445,403	11,62
445,903	11,65
446,404	11,26
446,904	11,04
447,405	11,35
447,905	11,36
448,405	11,59
448,905	11,22
449,404	11,63
449,904	11,71
450,404	11,23
450,903	11,23
451,403	11,04
451,902	12,05
452,401	11,81
452,9	12,01
453,399	11,93
453,898	11,64
454,396	12,18
454,895	12,21
455,393	11,83
455,892	11,92
456,39	12,12
456,888	11,86
457,386	11,96
457,884	12,12
458,382	11,94
458,879	12,24
459,377	11,65
459,874	11,77
460,372	11,81
460,869	12,02
461,366	11,72
461,863	12,13
462,36	11,69
462,857	12,33
463,353	11,79
463,85	11,46
464,346	11,71
464,843	11,61
465,339	11,21
465,835	11,69
466,331	12,11
466,827	11,97
467,323	11,66
467,818	12,23
468,314	11,52
468,809	12,34
469,305	11,96
469,8	11,42
470,295	11,85
470,79	11,56
471,285	11,73
471,78	11,47
472,274	11,96
472,769	11,93
473,263	12,21
473,758	11,92
474,252	11,99
474,746	11,85
475,24	11,55
475,734	11,5
476,228	11,98
476,721	11,82
477,215	11,98
477,708	12,62
478,202	12,09
478,695	11,85
479,188	11,93
479,681	11,68
480,174	11,99
480,667	12,28
481,159	11,76
481,652	11,95
482,144	11,93
482,637	12,15
483,129	11,85
483,621	11,87
484,113	12,05
484,605	12,51
485,097	12,25
485,588	12,2
486,08	11,99
486,571	12,13
487,063	12,44
487,554	12,63
488,045	12,21
488,536	12,44
489,027	12,66
489,518	12,03
490,008	12,47
490,499	12,4
490,989	12,64
491,48	12,3
491,97	12,84
492,46	12,62
492,95	12,82
493,44	13,04
493,93	12,96
494,419	13,05
494,909	13,05
495,398	13,13
495,888	13,1
496,377	12,87
496,866	13,19
497,355	13,09
497,844	13,07
498,333	13,44
498,821	13,76
499,31	13,83
499,798	14,16
500,287	14,4
500,775	14,59
501,263	14,42
501,751	14,26
502,239	14,3
502,727	15,01
503,215	15,03
503,702	15,5
504,19	15,75
504,677	15,43
505,164	15,2
505,651	15,94
506,139	15,92
506,625	16,62
507,112	16,39
507,599	17,11
508,086	17,04
508,572	17,54
509,058	17,39
509,545	17,6
510,031	18,46
510,517	19,35
511,003	19,41
511,489	19,4
511,974	20,02
512,46	20,03
512,946	20,74
513,431	20,42
513,916	21,33
514,401	21,94
514,887	22,45
515,371	22,54
515,856	23,28
516,341	23,95
516,826	23,54
517,31	24,23
517,795	25,21
518,279	25,68
518,763	26,17
519,247	26,37
519,731	27,09
520,215	27,75
520,699	28,07
521,182	28,72
521,666	28,93
522,149	29,84
522,633	29,96
523,116	30,71
523,599	31,38
524,082	31,46
524,565	32,5
525,048	32,96
525,53	33,31
526,013	33,02
526,495	34,14
526,978	35,15
527,46	34,56
527,942	35,26
528,424	35,14
528,906	36,45
529,388	36,04
529,87	36,57
530,351	37,56
530,833	36,97
531,314	38,14
531,795	38,04
532,277	38,96
532,758	38,54
533,238	38,55
533,719	39,04
534,2	39,28
534,681	39,78
535,161	39,05
535,642	40,01
536,122	40,68
536,602	40,42
537,082	40,19
537,562	40,82
538,042	40,3
538,522	40,47
539,001	41,25
539,481	40,24
539,96	40,95
540,44	41,23
540,919	41,3
541,398	41,23
541,877	41,73
542,356	41,15
542,835	41,84
543,313	41,9
543,792	41,71
544,27	42,15
544,749	41,47
545,227	42,4
545,705	42,33
546,183	41,98
546,661	42,15
547,139	42,05
547,616	42,55
548,094	42,29
548,571	42,44
549,049	42,84
549,526	42,2
550,003	43,15
550,48	42,31
550,957	43,01
551,434	42,43
551,911	42,95
552,387	43,26
552,864	42,9
553,34	43,14
553,817	42,73
554,293	42,86
554,769	42,68
555,245	42,5
555,721	42,64
556,197	42,57
556,672	42,3
557,148	42,36
557,623	42,27
558,099	42,21
558,574	41,95
559,049	42,36
559,524	42,01
559,999	41,76
560,474	41,65
560,948	41,95
561,423	41,64
561,897	40,97
562,372	41,16
562,846	41,34
563,32	41,26
563,794	40,91
564,268	40,59
564,742	40,12
565,216	39,78
565,69	39,86
566,163	39,34
566,636	39,58
567,11	38,74
567,583	38,79
568,056	38,56
568,529	38,4
569,002	37,85
569,475	37,66
569,947	37,57
570,42	37,15
570,892	36,79
571,365	36,72
571,837	35,52
572,309	35,84
572,781	35,41
573,253	35,75
573,725	35,25
574,197	34,68
574,668	34,73
575,14	33,64
575,611	33,71
576,082	33,8
576,554	33,32
577,025	33,04
577,496	33,19
577,967	32,62
578,437	32,39
578,908	32,4
579,379	31,76
579,849	31,4
580,319	31,54
580,79	31,42
581,26	31,03
581,73	30,75
582,2	30,62
582,669	30,33
583,139	30,68
583,609	30,43
584,078	30,06
584,548	30
585,017	29,7
585,486	29,58
585,955	29,44
586,424	29,53
586,893	29,33
587,362	29,23
587,83	29,25
588,299	28,87
588,767	28,73
589,236	28,59
589,704	28,52
590,172	27,89
590,64	28,45
591,108	28,04
591,576	27,67
592,043	27,67
592,511	27,87
592,978	27,94
593,446	27,41
593,913	27,58
594,38	27,68
594,847	27,57
595,314	27,53
595,781	27,26
596,248	27,39
596,715	27,29
597,181	26,99
597,647	26,64
598,114	27,42
598,58	27,24
599,046	26,6
599,512	27,23
599,978	26,76
600,444	26,58
600,91	26,75
601,375	26,85
601,841	26,69
602,306	26,18
602,771	26,76
603,236	26,64
603,702	26,05
604,167	26,6
604,631	26,27
605,096	25,93
605,561	25,57
606,025	25,48
606,49	25,62
606,954	25,55
607,418	25,24
607,882	24,75
608,347	25,27
608,81	24,78
609,274	24,86
609,738	24,55
610,202	24,24
610,665	24,3
611,128	24,03
611,592	23,87
612,055	23,86
612,518	23,36
612,981	23,62
613,444	23,38
613,907	22,95
614,369	23,11
614,832	22,97
615,294	22,64
615,757	22,59
616,219	22,55
616,681	22,21
617,143	22,34
617,605	22,22
618,067	22,15
618,529	21,82
618,99	21,87
619,452	21,75
619,913	21,59
620,375	21,29
620,836	21,31
621,297	21,04
621,758	21,19
622,219	21,07
622,68	20,96
623,14	21,15
623,601	20,79
624,061	20,72
624,522	20,75
624,982	20,53
625,442	20,72
625,902	20,62
626,362	20,75
626,822	20,68
627,282	20,75
627,742	20,41
628,201	20,41
628,661	20,36
629,12	20,38
629,579	20,29
630,038	20,55
630,497	20,15
630,956	20,52
631,415	20,28
631,874	20,2
632,332	19,99
632,791	20,06
633,249	20,19
633,708	20,26
634,166	19,96
634,624	19,67
635,082	19,57
635,54	19,66
635,998	19,5
636,455	19,58
636,913	19,19
637,37	19,11
637,828	19,05
638,285	19,17
638,742	19,01
639,199	18,81
639,656	18,51
640,113	18,27
640,57	18,16
641,027	17,94
641,483	17,74
641,94	17,59
642,396	17,67
642,852	17,58
643,309	17,39
643,765	17,25
644,221	16,92
644,676	16,89
645,132	16,47
645,588	16,39
646,043	16,4
646,499	16,12
646,954	16
647,409	15,77
647,864	15,6
648,319	15,73
648,774	15,52
649,229	15,26
649,684	15,01
650,139	15,1
650,593	15,02
651,047	14,91
651,502	14,94
651,956	14,71
652,41	14,78
652,864	14,61
653,318	14,71
653,772	14,43
654,225	14,44
654,679	14,12
655,133	14,17
655,586	14,43
656,039	14,22
656,492	14,06
656,946	13,78
657,399	13,85
657,851	13,87
658,304	13,75
658,757	13,53
659,209	13,26
659,662	13,23
660,114	13
660,567	13,16
661,019	13,03
661,471	12,78
661,923	12,95
662,375	12,7
662,826	12,74
663,278	12,42
663,73	12,45
664,181	12,24
664,632	12,2
665,084	12,12
665,535	12,05
665,986	12,12
666,437	12,27
666,888	12,1
667,338	12,05
667,789	12,08
668,24	12,13
668,69	11,99
669,14	12,2
669,591	12,02
670,041	12,06
670,491	12,18
670,941	12,36
671,391	12,55
671,84	12,38
672,29	12,37
672,74	12,62
673,189	12,54
673,638	12,81
674,088	12,65
674,537	12,78
674,986	13,08
675,435	13,04
675,883	13,16
676,332	13,29
676,781	13,32
677,229	13,59
677,678	13,61
678,126	13,96
678,574	13,9
679,022	14,23
679,47	14,18
679,918	14,52
680,366	14,6
680,814	14,69
681,261	14,91
681,709	14,87
682,156	15,23
682,604	15,47
683,051	15,58
683,498	15,67
683,945	15,61
684,392	16,04
684,839	16,09
685,286	16,22
685,732	16,49
686,179	16,51
686,625	16,97
687,071	17,08
687,518	17,09
687,964	17,36
688,41	17,96
688,856	18,24
689,301	18,37
689,747	18,94
690,193	19,22
690,638	20,1
691,084	20,43
691,529	21,05
691,974	21,59
692,419	22,35
692,864	23,13
693,309	23,73
693,754	24,38
694,199	25,45
694,643	26,54
695,088	27,08
695,532	27,97
695,977	29,13
696,421	30,09
696,865	30,69
697,309	31,85
697,753	32,79
698,197	33,72
698,64	34,9
699,084	36,26
699,527	37,12
699,971	37,86
700,414	39,14
700,857	40,15
701,3	40,98
701,743	42,03
702,186	43,21
702,629	44,01
703,072	45,17
703,515	45,91
703,957	46,86
704,399	48,27
704,842	48,85
705,284	49,79
705,726	50,73
706,168	51,67
706,61	52,74
707,052	53,45
707,494	54,48
707,935	54,95
708,377	56,42
708,818	56,67
709,26	57,88
709,701	58,57
710,142	59,46
710,583	60,15
711,024	60,95
711,465	61,88
711,905	62,7
712,346	63,24
712,787	64,31
713,227	64,7
713,667	65,87
714,108	67,05
714,548	67,34
714,988	68,07
715,428	68,7
715,868	69,18
716,307	70,15
716,747	70,85
717,186	71,98
717,626	72,74
718,065	73,39
718,504	73,44
718,944	74,07
719,383	74,74
719,822	75,37
720,261	76,39
720,699	76,85
721,138	77,39
721,576	78,1
722,015	79,17
722,453	79,16
722,892	79,4
723,33	80,61
723,768	80,65
724,206	81,87
724,644	81,46
725,081	82,24
725,519	82,15
725,957	83,29
726,394	83,48
726,832	84,06
727,269	84,16
727,706	85,29
728,143	85,09
728,58	84,76
729,017	85,73
729,454	86,09
729,89	86,42
730,327	87,04
730,764	87,31
731,2	87,6
731,636	87,43
732,072	87,54
732,509	88,41
732,945	88,75
733,38	88,94
733,816	89,21
734,252	89,89
734,688	89,82
735,123	89,93
735,559	89,95
735,994	90,59
736,429	89,85
736,864	90,86
737,299	90,63
737,734	90,32
738,169	90,88
738,604	91,14
739,038	91,27
739,473	91,16
739,907	91,3
740,342	91,48
740,776	92,01
741,21	92,42
741,644	92,47
742,078	92,09
742,512	92,64
742,946	92,24
743,379	92,21
743,813	92,97
744,246	93,01
744,68	93,07
745,113	93,17
745,546	92,87
745,979	93,17
746,412	93
746,845	93,04
747,278	92,98
747,711	92,82
748,143	92,87
748,576	92,86
749,008	92,83
749,441	92,74
749,873	92,98
750,305	93,25
750,737	93,32
751,169	93,16
751,601	93,04
752,032	93,34
752,464	93,37
752,896	92,9
753,327	93,01
753,758	93,11
754,19	93,26
754,621	93,11
755,052	92,86
755,483	92,77
755,914	93,11
756,344	93,12
756,775	92,74
757,206	92,7
757,636	92,82
758,066	92,94
758,497	92,64
758,927	92,76
759,357	92,86
759,787	93
760,217	93,01
760,647	92,75
761,076	92,96
761,506	92,43
761,935	93,05
762,365	92,41
762,794	92,57
763,223	92,45
763,653	92,57
764,082	92,77
764,51	92,45
764,939	92,05
765,368	92,75
765,797	92,2
766,225	92,26
766,654	92,66
767,082	92,15
767,51	92,47
767,938	92,29
768,367	92,61
768,795	92,39
769,222	91,97
769,65	92,35
770,078	91,93
770,505	92,02
770,933	92
771,36	92,18
771,788	91,57
772,215	91,56
772,642	91,99
773,069	91,82
773,496	91,85
773,923	92,07
774,349	92,13
774,776	92,09
775,203	92,01
775,629	92,16
776,055	91,93
776,482	92,28
776,908	91,43
777,334	91,93
777,76	91,92
778,186	91,93
778,611	91,4
779,037	92,1
779,463	91,78
779,888	91,45
780,314	92,1
780,739	92
781,164	92,02
781,589	91,71
782,014	91,8
782,439	91,76
782,864	91,65
783,289	92,24
783,713	91,44
784,138	91,48
784,562	92,18
784,987	91,45
785,411	91,61
785,835	91,44
786,259	91,59
786,683	91,45
787,107	91,47
787,531	91,46
787,954	91,64
788,378	91,76
788,802	91,75
789,225	91,59
789,648	91,65
790,071	91,5
790,495	92,07
790,918	91,18
791,34	91,73
791,763	92,33
792,186	91,79
792,609	91,15
793,031	91,68
793,454	91,1
793,876	91,51
794,298	91,05
794,721	91,63
795,143	91,12
795,565	91,69
795,986	91,43
796,408	91,46
796,83	91,23
797,252	91,95
797,673	91,84
798,094	91,86
798,516	91,62
798,937	91,78
799,358	91,15
799,779	91,51
800,2	91,48
800,621	91,47
801,042	91,74
801,462	91,36
801,883	90,94
802,303	91,45
802,724	91,29
803,144	91,18
803,564	90,99
803,984	91,58
804,404	92,24
804,824	91,44
805,244	92,05
805,664	92,01
806,084	91,96
806,503	91,54
806,923	91,35
807,342	91,29
807,761	91,33
808,18	91,39
808,599	91,37
809,018	90,71
809,437	91,46
809,856	91,84
810,275	91,64
810,693	91,7
811,112	91,17
811,53	91,35
811,949	91,83
812,367	91,73
812,785	91,3
813,203	91,2
813,621	91,35
814,039	90,52
814,457	91,63
814,874	91,31
815,292	91,34
815,709	91,86
816,127	90,98
816,544	91,84
816,961	91,22
817,378	91,19
817,795	92,1
818,212	91,54
818,629	91,36
819,046	91,65
819,462	91,23
819,879	91,51
820,295	91,26
820,712	91,23
821,128	91,62
821,544	91,34
821,96	91,45
822,376	91,43
822,792	90,91
823,208	91,27
823,624	90,94
824,039	91,09
824,455	91,21
824,87	91,71
825,286	91,88
825,701	91,32
826,116	90,94
826,531	91,24
826,946	90,44
827,361	91,11
827,776	90,99
828,19	90,41
828,605	91,29
829,02	91,8
829,434	91,63
829,848	91,63
830,263	91,28
830,677	91,18
831,091	91,25
831,505	91,26
831,919	91,16
832,332	91,02
832,746	91,4
833,16	91,21
833,573	91,31
833,987	90,9
834,4	91,45
834,813	91,45
835,226	90,98
835,639	91,53
836,052	90,76
836,465	91,41
836,878	91,13
837,29	91,3
837,703	91,05
838,116	91,08
838,528	91,53
838,94	90,72
839,352	91,28
839,765	91,16
840,177	91,21
840,589	90,96
841	90,91
841,412	91,21
841,824	91,21
842,235	91,11
842,647	91,23
843,058	91,34
843,47	91,29
843,881	91,37
844,292	90,55
844,703	90,89
845,114	90,56
845,525	91,3
845,935	91,15
846,346	91,21
846,757	90,74
847,167	91,28
847,577	91,03
847,988	91,04
848,398	91,76
848,808	91,29
849,218	91,62
849,628	90,75
850,038	90,73
850,448	91,53
850,857	91,63
851,267	90,93
851,676	90,95
852,086	90,66
852,495	91
852,904	90,96
853,313	90,32
853,722	91,32
854,131	90,46
854,54	90,66
854,949	91,33
855,357	91,53
855,766	91,27
856,174	90,95
856,583	91,17
856,991	90,98
857,399	91,13
857,807	90,63
858,215	90,47
858,623	90,38
859,031	90,35
859,439	91,13
859,846	90,8
860,254	91,03
860,661	91,22
861,069	90,81
861,476	91,21
861,883	90,97
862,29	90,97
862,697	91,12
863,104	90,71
863,511	90,58
863,918	90,37
864,325	90,65
864,731	90,47
865,138	91,44
865,544	90,65
865,95	91,16
866,357	90,92
866,763	90,96
867,169	90,65
867,575	90,7
867,98	90,6
868,386	90,95
868,792	90,96
869,197	90,21
869,603	90,76
870,008	90,9
870,414	90,52
870,819	90,9
871,224	91
871,629	91,21
872,034	90,36
872,439	90,68
872,844	91,26
873,248	91,28
873,653	90,78
874,057	91
874,462	90,74
874,866	91,11
875,27	91,01
875,674	90,55
876,078	91,14
876,482	90,93
876,886	90,76
877,29	90,41
877,694	91,22
878,097	90,84
878,501	90,97
878,904	90,1
879,308	90,56
879,711	90,7
880,114	90,47
880,517	90,87
880,92	90,49
881,323	90,48
881,726	90,94
882,128	90,52
882,531	90,66
882,934	90,93
883,336	90,34
883,738	90,67
884,141	91,3
884,543	89,84
884,945	91,08
885,347	91,27
885,749	90,49
886,151	90,66
886,552	90,72
886,954	90,33
887,355	90,85
887,757	90,68
888,158	90,64
888,56	90,07
888,961	90,46
889,362	90,41
889,763	91,16
890,164	90,19
890,565	90,55
890,965	91,06
891,366	90,91
891,767	91,22
892,167	89,87
892,567	90,36
892,968	90,69
893,368	90
893,768	90,87
894,168	90,13
894,568	90,76
894,968	90,11
895,368	90,21
895,767	90,8
896,167	90,38
896,566	90,49
896,966	90,54
897,365	90,78
897,764	90,85
898,164	90,75
898,563	90,66
898,962	90,31
899,361	90,79
899,759	90,38
900,158	90,39
900,557	90,68
900,955	90,27
901,354	90,61
901,752	90,49
902,15	90,31
902,548	91,06
902,947	90,05
903,345	90,55
903,742	90,63
904,14	90,67
904,538	89,98
904,936	90,76
905,333	91,08
905,731	90,43
906,128	90,74
906,525	90,1
906,923	91,28
907,32	90,32
907,717	91,3
908,114	90,17
908,511	89,46
908,907	89,95
909,304	90,53
909,701	90,24
910,097	90,42
910,494	90,44
910,89	90,53
911,286	90,44
911,682	90,86
912,078	90,63
912,474	90,26
912,87	91,25
913,266	90,37
913,662	90,07
914,058	90,37
914,453	90,25
914,849	90,57
915,244	90,47
915,639	91,24
916,034	90,35
916,43	91,45
916,825	90,71
917,22	90,31
917,614	90,38
918,009	90,1
918,404	90,69
918,798	90,21
919,193	90,51
919,587	90,32
919,982	90,09
920,376	90,58
920,77	89,44
921,164	90,78
921,558	90,01
921,952	90,01
922,346	90,19
922,74	90,38
923,133	90,76
923,527	89,87
923,92	90,86
924,314	90,28
924,707	90,31
925,1	90,25
925,493	90,39
925,886	89,85
926,279	90,75
926,672	90,07
927,065	89,71
927,457	90,74
927,85	89,98
928,243	90,06
928,635	89,9
929,027	89,73
929,42	89,76
929,812	89,24
930,204	89,94
930,596	89,76
930,988	89,39
931,379	90,04
931,771	90,09
932,163	88,98
932,554	89,98
932,946	89,98
933,337	90,39
933,729	89,57
934,12	90,07
934,511	90,11
934,902	89,31
935,293	89,56
935,684	90,27
936,075	89,65
936,465	89,76
936,856	90,21
937,246	90,09
937,637	89,17
938,027	89,39
938,417	89,95
938,808	89,48
939,198	89,66
939,588	89,32
939,978	88,69
940,368	89,25
940,757	89,69
941,147	89,34
941,537	88,89
941,926	88,89
942,315	89,75
942,705	89,7
943,094	88,98
943,483	88,35
943,872	88,25
944,261	88,38
944,65	89,88
945,039	87,97
945,428	89,2
945,816	89,94
946,205	87,68
946,593	88,06
946,982	88,04
947,37	87,69
947,758	88,56
948,146	89,01
948,534	88,78
948,922	88,06
949,31	87,97
949,698	88,12
950,086	86,89
950,473	87,77
950,861	87,68
951,248	87,62
951,636	86,59
952,023	87,35
952,41	87,46
952,797	87,09
953,184	86,83
953,571	87,43
953,958	87,53
954,345	87,86
954,731	87,34
955,118	87,08
955,505	88,15
955,891	87,31
956,277	86,8
956,664	86,8
957,05	87,03
957,436	87,23
957,822	86,67
958,208	86,68
958,594	85,88
958,979	86,23
959,365	86,86
959,751	86,2
960,136	86,65
960,522	86,42
960,907	86,21
961,292	86,87
961,677	87,01
962,062	86,97
962,447	85,99
962,832	86,41
963,217	86,46
963,602	85,86
963,986	87,32
964,371	86,69
964,756	86,43
965,14	86,99
965,524	85,74
965,908	86,21
966,293	86,52
966,677	85,99
967,061	86,68
967,445	86,66
967,828	86,82
968,212	86,47
968,596	86,61
968,979	86,43
969,363	86,08
969,746	85,89
970,129	86,29
970,513	86,67
970,896	85,91
971,279	86,72
971,662	87,67
972,045	85,98
972,428	86
972,81	85,9
973,193	86,05
973,575	85,57
973,958	86,05
974,34	86,11
974,723	85,94
975,105	86,95
975,487	86,6
975,869	86,2
976,251	85,81
976,633	86,2
977,015	85,49
977,396	86,38
977,778	86,39
978,16	86,29
978,541	85,45
978,922	85,4
979,304	86,8
979,685	85,5
980,066	87,24
980,447	86,51
980,828	85,92
981,209	86,47
981,59	85,4
981,97	85,68
982,351	85,84
982,732	86,82
983,112	85,32
983,493	87,25
983,873	85,65
984,253	86,37
984,633	86,03
985,013	86,16
985,393	86,17
985,773	86,01
986,153	87,13
986,533	85,89
986,912	86,64
987,292	86,7
987,671	85,6
988,051	86,58
988,43	87,17
988,809	85,62
989,188	86,13
989,567	86,58
989,946	86,78
990,325	85,39
990,704	86,02
991,083	86,11
991,461	86,49
991,84	85,98
992,218	85,72
992,597	86,84
992,975	86,93
993,353	86,03
993,732	86,39
994,11	86,35
994,488	87,53
994,866	87,17
995,243	86,13
995,621	86,34
995,999	86,83
996,376	86,41
996,754	86,53
997,131	87,15
997,509	87,1
997,886	86,49
998,263	87,15
998,64	87,14
999,017	86,19
999,394	86,59
999,771	87,11
1000,148	86,47
1000,524	87,55
1000,901	86,95
1001,277	85,88
1001,654	87,17
1002,03	86,87
1002,406	86,21
1002,783	86,38
1003,159	85,92
1003,535	87,13
1003,911	86,52
1004,286	86,29
1004,662	86,73
1005,038	86,1
1005,414	86,83
1005,789	87,07
1006,164	86,18
1006,54	87,03
1006,915	87,39
1007,29	86,66
1007,665	87,16
1008,04	86,88
1008,415	86,79
1008,79	87,57
1009,165	86,76
1009,54	87,04
1009,914	86,36
1010,289	87,43
1010,663	86,54
1011,038	88,25
1011,412	86,68
1011,786	87,46
1012,16	86,64
1012,535	87,14
1012,909	88,04
1013,282	88,27
1013,656	87,26
1014,03	87,64
1014,404	86,33
1014,777	87,53
1015,151	86,58
1015,524	87,21
1015,897	86,85
1016,271	87,69
1016,644	87,13
1017,017	87,63
1017,39	87,39
1017,763	87,62
1018,136	87,1
1018,508	87,01
1018,881	87,3
1019,254	87,83
1019,626	87,09
1019,999	87,26
1020,371	87,45
1020,743	87,48
1021,116	86,96
1021,488	89,98
1021,86	86,66
1022,232	87,83
1022,604	88,41
1022,975	86,85
1023,347	87,54
1023,719	89,57
1024,09	88,34
1024,462	88,3
1024,833	87,1
1025,204	86,49
1025,576	87,62
1025,947	88,47
1026,318	87,85
1026,689	87
1027,06	87,04
1027,431	88,15
1027,801	87,16
1028,172	88,2
1028,543	87,75
1028,913	89,93
1029,284	88,62
1029,654	88,75
1030,024	88,05
1030,394	87,13
1030,764	87,04
1031,135	87,09
1031,504	88,3
1031,874	87,73
1032,244	88,24
1032,614	88,56
1032,983	88,27
1033,353	88,74
1033,722	88,41
1034,092	89,24
1034,461	87,17
1034,83	88,74
1035,2	88,39
1035,569	89,44
1035,938	88,28
1036,307	90,13
1036,675	88,38
1037,044	88,6
1037,413	87,67
1037,781	87,35
1038,15	87,8
1038,518	89,32
1038,887	88,42
1039,255	89,8
1039,623	89,05
1039,991	88,6
1040,359	88,55
1040,727	87,51
1041,095	89,07
1041,463	87,09
1041,831	88,6
1042,198	88,8
1042,566	88,06
1042,933	88,81
1043,301	88,88
1043,668	87,57
1044,035	87,55
1044,402	89,51
1044,77	89,8
1045,137	89,53
1045,503	89,26
1045,87	89,42
1046,237	89,34
1046,604	89,11
1046,97	89,27
1047,337	89,12
1047,703	86,76
1048,07	88,21
1048,436	88,28
1048,802	88,9
1049,168	89,05
1049,534	89,51
1049,9	87,8
1050,266	87,58
1050,632	89,57
1050,998	88,68
1051,364	89,28
1051,729	89,04
1052,095	87,79
1052,46	88,77
1052,825	90,55
1053,191	89,34
1053,556	87,6
1053,921	88,91
1054,286	89,65
1054,651	87,36
1055,016	87,62
1055,381	89,83
1055,745	87,81
1056,11	88,33
1056,475	90,15
1056,839	90,92
1057,203	90,36
1057,568	88,62
1057,932	91,16
1058,296	92,12
1058,66	87,5
1059,024	90,48
1059,388	88,84
1059,752	88,13
1060,116	90,19
1060,48	89,59
1060,843	88,33
1061,207	89,74
1061,57	88,96
1061,934	89,15
1062,297	90,11
1062,66	89,79
1063,023	89,91
1063,386	91,17
1063,749	87,95
1064,112	89,98
1064,475	86,97
1064,838	87,58
1065,201	89,04
1065,563	88,59
1065,926	87,95
1066,288	88,59
1066,651	88,9
1067,013	87,32
1067,375	88,76
1067,737	88,66
1068,099	88,32
1068,461	89,79
1068,823	89,65
1069,185	89,62
1069,547	88,59
1069,909	87,74
1070,27	89,1
1070,632	88,42
1070,993	86,86
1071,355	85,39
1071,716	89,44
1072,077	89,45
1072,438	88,76
1072,799	88,4
1073,16	90,42
1073,521	88,9
1073,882	89,39
1074,243	89,65
1074,603	87,8
1074,964	87,3
1075,325	90,8
1075,685	90,96
1076,045	88,81
1076,406	89,19
1076,766	90,39
1077,126	88,34
1077,486	88,47
1077,846	87,58
1078,206	89,72
1078,566	88,33
1078,925	91,35
1079,285	88,71
1079,645	89,22
1080,004	88,52
1080,364	89,32
1080,723	88,3
1081,082	87,09
1081,442	88,68
1081,801	88,93
1082,16	92,24
1082,519	89,89
1082,878	90,62
1083,237	91,49
1083,595	88,82
1083,954	88,69
1084,313	89,78
1084,671	89,03
1085,03	87,75
1085,388	89,94
1085,746	87,42
1086,104	90,64
1086,463	89,51
1086,821	89,64
1087,179	88,15
1087,537	89,66
1087,894	88,67
1088,252	91,13
1088,61	88,47
1088,967	90,19
1089,325	87,8
1089,682	88,94
1090,04	88,48
1090,397	91,19
1090,754	88,75
1091,111	93,37
1091,469	87,84
1091,826	91,02
1092,182	85,88
1092,539	88,71
1092,896	89,8
1093,253	87,36
1093,609	87,92
1093,966	93,71
1094,322	89,22
1094,679	85,66
1095,035	89,33
1095,391	86,15
1095,748	92,52
1096,104	87,6
1096,46	90,37
1096,816	87,09
1097,171	89,22
1097,527	89,8
1097,883	87,79
1098,239	88,03
1098,594	86,56
1098,95	86,38
1099,305	85,38
1099,66	88,07
1100,016	87,53
1100,371	88,72
1100,726	87,06
1101,081	85,73
1101,436	85,08
1101,791	89,78
1102,146	88,84
1102,5	84,58
1102,855	90,88
1103,21	87,65
1103,564	87,29
1103,918	86,88
1104,273	88,18
1104,627	88,43
1104,981	89,01
1105,335	91,13
1105,69	89,18
1106,043	88,49
1106,397	87,22
1106,751	91,23
1107,105	86,19
1107,459	88,15
1107,812	84,52
1108,166	87,15
1108,519	88,7
1108,873	93,97
1109,226	87,38
1109,579	86,98
1109,932	85,15
1110,285	83,13
1110,638	87,94
1110,991	87,75
1111,344	90,39
1111,697	89,57
1112,05	82,22
1112,402	88,14
1112,755	87,66
1113,107	85,34
1113,46	85,96
1113,812	89,06
1114,164	90,88
1114,517	83,41
1114,869	101,18
1115,221	84,88
1115,573	61,17
1115,924	93,18
