Data from A_6_0_Relative__0__00010.txt Node

Date: Mon Jan 29 12:45:26 CET 2024
User: diatiterra
Spectrometer: HDX00911
Trigger mode: 0
Integration Time (sec): 6,000000E-3
Scans to average: 4
Nonlinearity correction enabled: false
Boxcar width: 0
Storing dark spectrum: false
XAxis mode: Wavelengths
Number of Pixels in Spectrum: 2068
>>>>>Begin Spectral Data<<<<<
194,468	110,96
195,025	101,41
195,581	89,39
196,138	86,21
196,694	91,72
197,251	86,63
197,807	100,54
198,363	81,16
198,919	71,84
199,474	77,63
200,03	82,03
200,586	82,27
201,141	72,84
201,696	84,42
202,251	89,16
202,806	79,07
203,361	99,54
203,916	76,92
204,471	88,18
205,025	83,26
205,58	73,79
206,134	82,43
206,688	73,08
207,242	73,11
207,796	84,14
208,35	74,55
208,904	80,38
209,457	73,15
210,011	71,69
210,564	86,09
211,117	75,97
211,67	90,46
212,223	79,3
212,776	88,46
213,329	77,17
213,881	75,1
214,434	81,14
214,986	79,15
215,538	79,92
216,09	92,46
216,642	80
217,194	85,77
217,746	74,9
218,297	81,7
218,849	84,23
219,4	78,84
219,951	97,5
220,502	85,71
221,053	79,41
221,604	78,21
222,155	78,38
222,705	73,84
223,256	87,45
223,806	79
224,356	72,13
224,906	75,09
225,456	86,84
226,006	75,51
226,556	75,23
227,106	79,75
227,655	74,24
228,204	74,54
228,754	83,67
229,303	83,33
229,852	77,82
230,401	86,49
230,949	82,61
231,498	74,48
232,047	76,35
232,595	71,6
233,143	76,82
233,691	83,81
234,239	70,39
234,787	68,64
235,335	83,54
235,883	80,27
236,43	81,48
236,978	81,31
237,525	77,56
238,072	88,05
238,619	92
239,166	80,26
239,713	85,14
240,26	76,08
240,806	79,68
241,353	72,17
241,899	84,08
242,445	74,07
242,991	72,32
243,537	70,54
244,083	86,5
244,629	69,37
245,174	105,11
245,72	73,62
246,265	74,78
246,81	82,33
247,355	75,61
247,9	80,33
248,445	92,47
248,99	86,25
249,534	68,16
250,079	90,29
250,623	80,71
251,168	70,27
251,712	69,2
252,256	79,02
252,8	82,61
253,343	76,35
253,887	68,83
254,43	73,91
254,974	82,47
255,517	75,52
256,06	84
256,603	75,62
257,146	84,46
257,689	67,44
258,232	72,49
258,774	70,27
259,317	80,79
259,859	77,63
260,401	76,79
260,943	86,96
261,485	79,61
262,027	73,27
262,569	78,28
263,11	78,21
263,652	80,88
264,193	59,35
264,734	67,82
265,275	68,18
265,816	77,63
266,357	67,87
266,898	82,63
267,438	72,51
267,979	66,52
268,519	73,77
269,059	76,56
269,6	69,72
270,14	88,94
270,68	86,67
271,219	69,69
271,759	73,64
272,298	82,26
272,838	72,04
273,377	79,64
273,916	74,31
274,455	73,85
274,994	69,64
275,533	73,52
276,072	85,09
276,61	74,02
277,149	76,41
277,687	72,44
278,225	82,46
278,763	68,67
279,301	71,61
279,839	75,88
280,377	79,19
280,914	73,71
281,452	80,61
281,989	84,31
282,526	85,51
283,064	90,2
283,601	60,99
284,137	64,25
284,674	80,88
285,211	70,21
285,747	67,95
286,284	75,69
286,82	71,37
287,356	83,41
287,892	87,5
288,428	67,38
288,964	87,17
289,5	75,94
290,035	80,93
290,571	88,94
291,106	93,33
291,641	89,37
292,176	73,68
292,711	76,5
293,246	68,4
293,781	77,46
294,315	69,11
294,85	98,51
295,384	75
295,918	70,19
296,453	92,54
296,987	63,31
297,52	86,67
298,054	83,5
298,588	75,76
299,121	86,07
299,655	87,75
300,188	95,65
300,721	75,52
301,254	79,81
301,787	92,73
302,32	93,27
302,853	87,25
303,385	66,95
303,918	87,44
304,45	81,16
304,982	82,43
305,514	84,13
306,046	74,49
306,578	77,36
307,11	84,54
307,641	69,78
308,173	75,21
308,704	76,99
309,236	83,98
309,767	69,66
310,298	84,07
310,829	70,43
311,359	74,89
311,89	93,65
312,421	73,8
312,951	81,22
313,481	67,92
314,012	74,55
314,542	78,84
315,072	73,51
315,601	82,11
316,131	85,15
316,661	62,73
317,19	76,85
317,72	67,88
318,249	70,97
318,778	85,99
319,307	77,78
319,836	86,55
320,365	83,17
320,893	84,24
321,422	70,18
321,95	75,73
322,479	76,75
323,007	91,76
323,535	85,35
324,063	66,06
324,591	76,42
325,118	80,43
325,646	70,4
326,173	73,68
326,701	81,94
327,228	68,92
327,755	77,23
328,282	86,34
328,809	78,82
329,336	68,91
329,862	73,11
330,389	73,21
330,915	70,31
331,441	79,49
331,968	88,52
332,494	74,88
333,02	65,48
333,545	77,97
334,071	72,17
334,597	65,22
335,122	80,54
335,648	89,42
336,173	78,9
336,698	68,61
337,223	89,95
337,748	81,12
338,272	94,21
338,797	78,5
339,322	64,07
339,846	78,24
340,37	77,4
340,894	74,3
341,419	76,67
341,942	69,3
342,466	73,77
342,99	69,83
343,514	76,99
344,037	84,69
344,56	67,13
345,084	64,86
345,607	74,39
346,13	67,2
346,653	63,85
347,175	61,15
347,698	73,39
348,221	76,77
348,743	65,66
349,265	78,2
349,787	69,92
350,309	59,45
350,831	67,77
351,353	78,14
351,875	77,41
352,397	68,35
352,918	73,16
353,439	70,31
353,961	59,66
354,482	60,85
355,003	65,3
355,524	72,31
356,044	70,75
356,565	69,44
357,086	70,88
357,606	66,44
358,126	67,18
358,646	72,07
359,167	69,42
359,687	63,08
360,206	72,58
360,726	70,83
361,246	70,38
361,765	74,16
362,285	67,06
362,804	57,61
363,323	66,97
363,842	67,5
364,361	62,77
364,88	66,95
365,398	65,1
365,917	68,33
366,435	63,39
366,954	67,11
367,472	65,88
367,99	64,92
368,508	64,5
369,026	61,15
369,544	53,83
370,061	64,27
370,579	64,16
371,096	59,79
371,613	63,15
372,131	64,58
372,648	64,88
373,165	65,65
373,681	61,73
374,198	59,27
374,715	61,61
375,231	76,02
375,747	64,1
376,264	70,34
376,78	68,31
377,296	59,1
377,812	70,67
378,327	64,61
378,843	62,41
379,359	59,07
379,874	67,05
380,389	60,67
380,905	60,81
381,42	60,28
381,935	57,67
382,449	57,36
382,964	60,75
383,479	55,61
383,993	56,89
384,508	53,89
385,022	56,96
385,536	53,6
386,05	54,62
386,564	54,25
387,078	53,89
387,592	55,09
388,105	53,13
388,619	58,12
389,132	48,72
389,645	55,33
390,158	49,02
390,671	51,99
391,184	51,23
391,697	53,47
392,21	48,99
392,722	49,52
393,235	48,29
393,747	43,81
394,259	51,21
394,771	52,04
395,283	46,44
395,795	42,52
396,307	46,01
396,818	45,63
397,33	46,67
397,841	42,5
398,353	46,24
398,864	44,72
399,375	41,77
399,886	41,23
400,397	41,53
400,907	41,35
401,418	40,09
401,928	39,21
402,439	36,24
402,949	38,7
403,459	36,95
403,969	36,96
404,479	36,16
404,989	35,71
405,498	35,67
406,008	34,9
406,517	33,94
407,027	32,97
407,536	32,2
408,045	29,4
408,554	31,1
409,063	25,21
409,572	29,47
410,08	27,57
410,589	27,85
411,097	26,86
411,606	25,97
412,114	25,23
412,622	23,18
413,13	22,71
413,638	23,45
414,145	22,98
414,653	21,21
415,16	21,81
415,668	20,71
416,175	21,29
416,682	20,77
417,189	20,18
417,696	19,98
418,203	19,52
418,71	20,45
419,216	18,38
419,723	18,46
420,229	17,46
420,735	18,35
421,242	18,22
421,748	18,28
422,254	18,58
422,759	18,14
423,265	17,24
423,771	17,32
424,276	17,65
424,781	16,63
425,287	17,92
425,792	16,95
426,297	16,6
426,802	17,64
427,306	16,93
427,811	16,69
428,316	16,36
428,82	16,22
429,324	15,99
429,829	17,24
430,333	16,75
430,837	16,83
431,34	16,47
431,844	15,53
432,348	15,91
432,851	16,7
433,355	16,33
433,858	16,16
434,361	16,63
434,864	15,95
435,367	15,78
435,87	15,64
436,373	15,22
436,876	16,32
437,378	15,93
437,88	16,03
438,383	16,31
438,885	16,47
439,387	15,92
439,889	16,59
440,391	15,73
440,892	16,28
441,394	15,72
441,896	15,75
442,397	15,79
442,898	16,32
443,399	15,3
443,9	15,82
444,401	15,55
444,902	15,93
445,403	16,17
445,903	15,89
446,404	16,58
446,904	16,02
447,405	16,48
447,905	16,27
448,405	15,94
448,905	16,69
449,404	16,42
449,904	16,96
450,404	16,33
450,903	16,25
451,403	15,66
451,902	17,04
452,401	16,85
452,9	16,12
453,399	16,53
453,898	16,61
454,396	17,29
454,895	16,7
455,393	17,2
455,892	16,84
456,39	16,74
456,888	17,31
457,386	16,39
457,884	16,84
458,382	16,94
458,879	16,24
459,377	16,75
459,874	16,58
460,372	16,58
460,869	16,82
461,366	17,41
461,863	16,77
462,36	16,53
462,857	17,06
463,353	17,12
463,85	17,16
464,346	16,71
464,843	16,94
465,339	16,82
465,835	16,73
466,331	16,99
466,827	16,79
467,323	16,55
467,818	16,78
468,314	16,74
468,809	16,92
469,305	16,65
469,8	17,17
470,295	17,53
470,79	17,18
471,285	16,35
471,78	16,97
472,274	16,8
472,769	16,7
473,263	17,01
473,758	17,22
474,252	16,77
474,746	16,88
475,24	17,3
475,734	16,89
476,228	16,94
476,721	16,55
477,215	16,75
477,708	17,03
478,202	17,13
478,695	16,95
479,188	17,19
479,681	16,52
480,174	16,99
480,667	17,28
481,159	17,04
481,652	16,77
482,144	16,89
482,637	17,29
483,129	17
483,621	17,37
484,113	17,06
484,605	17,04
485,097	16,85
485,588	17,03
486,08	17,28
486,571	17,46
487,063	17,73
487,554	17,57
488,045	17,77
488,536	17,39
489,027	17,28
489,518	17,44
490,008	17,53
490,499	17,49
490,989	17,73
491,48	17,76
491,97	18,05
492,46	17,78
492,95	18,23
493,44	18,26
493,93	17,94
494,419	18,15
494,909	18,28
495,398	18,49
495,888	18,17
496,377	18,46
496,866	18,43
497,355	18,65
497,844	18,56
498,333	18,88
498,821	19,41
499,31	19,29
499,798	19,12
500,287	19,48
500,775	19,55
501,263	19,57
501,751	19,59
502,239	20,1
502,727	20,09
503,215	20,13
503,702	20,72
504,19	20,54
504,677	21,03
505,164	21,16
505,651	20,85
506,139	21,34
506,625	21,94
507,112	21,98
507,599	21,87
508,086	22,51
508,572	22,57
509,058	22,84
509,545	22,83
510,031	23,56
510,517	23,9
511,003	24,42
511,489	24,57
511,974	24,95
512,46	24,92
512,946	25,83
513,431	25,71
513,916	26,69
514,401	26,81
514,887	26,55
515,371	27,24
515,856	28,31
516,341	28,86
516,826	29,29
517,31	29,14
517,795	29,62
518,279	30,54
518,763	31,15
519,247	31,26
519,731	31,97
520,215	32,05
520,699	32,99
521,182	33,81
521,666	33,75
522,149	34,11
522,633	34,53
523,116	35,08
523,599	35,71
524,082	36,61
524,565	36,92
525,048	36,8
525,53	37,62
526,013	38,02
526,495	38,15
526,978	38,79
527,46	38,88
527,942	39,45
528,424	40,18
528,906	40,07
529,388	40,94
529,87	40,81
530,351	41,55
530,833	41,55
531,314	41,86
531,795	42,45
532,277	42,42
532,758	42,4
533,238	43,02
533,719	43,21
534,2	43,39
534,681	44,28
535,161	43,77
535,642	44,2
536,122	44,77
536,602	44,41
537,082	44,56
537,562	44,87
538,042	44,6
538,522	44,62
539,001	44,96
539,481	45,01
539,96	45,71
540,44	45,06
540,919	45,82
541,398	45,28
541,877	45,66
542,356	45,62
542,835	45,48
543,313	45,68
543,792	45,72
544,27	46,19
544,749	45,71
545,227	46,16
545,705	46,03
546,183	46,07
546,661	45,93
547,139	46,51
547,616	46,47
548,094	46,63
548,571	46,42
549,049	47,45
549,526	46,91
550,003	47,14
550,48	45,97
550,957	47,02
551,434	46,65
551,911	47,01
552,387	46,82
552,864	47,28
553,34	46,53
553,817	47,08
554,293	46,56
554,769	47,05
555,245	46,94
555,721	46,79
556,197	46,92
556,672	46,47
557,148	46,06
557,623	46,55
558,099	46,08
558,574	45,91
559,049	46,71
559,524	46,34
559,999	46,46
560,474	45,99
560,948	45,61
561,423	45,49
561,897	45,51
562,372	45,42
562,846	45,26
563,32	45,12
563,794	45,26
564,268	44,72
564,742	44,77
565,216	44,5
565,69	44,6
566,163	43,47
566,636	44,03
567,11	43,25
567,583	43,03
568,056	43,07
568,529	42,45
569,002	42,2
569,475	41,73
569,947	41,59
570,42	41,43
570,892	41,34
571,365	40,8
571,837	40,59
572,309	40,48
572,781	39,68
573,253	39,8
573,725	39,45
574,197	39,63
574,668	39
575,14	38,42
575,611	38,61
576,082	38,42
576,554	37,99
577,025	37,8
577,496	37,67
577,967	36,94
578,437	37,07
578,908	36,62
579,379	36,58
579,849	36,3
580,319	36,13
580,79	35,53
581,26	35,47
581,73	35,47
582,2	34,92
582,669	34,81
583,139	34,6
583,609	34,62
584,078	34,49
584,548	34,73
585,017	34,33
585,486	33,83
585,955	34,14
586,424	34,17
586,893	33,43
587,362	33,75
587,83	33,7
588,299	33,3
588,767	33,51
589,236	32,93
589,704	33,51
590,172	33,01
590,64	32,92
591,108	33,17
591,576	32,58
592,043	32,37
592,511	32,45
592,978	32,41
593,446	32,16
593,913	32,32
594,38	31,94
594,847	31,7
595,314	32,13
595,781	31,82
596,248	31,85
596,715	31,77
597,181	31,75
597,647	31,54
598,114	31,93
598,58	31,84
599,046	31,2
599,512	31,08
599,978	31,44
600,444	30,97
600,91	31,08
601,375	30,87
601,841	30,95
602,306	31,05
602,771	30,92
603,236	30,99
603,702	30,6
604,167	30,91
604,631	30,39
605,096	30,44
605,561	29,98
606,025	30,37
606,49	30,08
606,954	30,05
607,418	29,82
607,882	29,26
608,347	29,63
608,81	29,38
609,274	29,35
609,738	28,8
610,202	28,8
610,665	29,09
611,128	28,68
611,592	28,54
612,055	28,39
612,518	28,48
612,981	28,03
613,444	27,9
613,907	27,38
614,369	27,45
614,832	27,52
615,294	27,24
615,757	27,05
616,219	27,21
616,681	26,72
617,143	26,9
617,605	26,79
618,067	26,3
618,529	26,65
618,99	26,01
619,452	26,1
619,913	26,12
620,375	26,03
620,836	25,92
621,297	25,56
621,758	25,56
622,219	25,66
622,68	25,32
623,14	25,64
623,601	25,21
624,061	25,56
624,522	25,06
624,982	25,35
625,442	25,45
625,902	24,94
626,362	25,11
626,822	25,03
627,282	25
627,742	24,96
628,201	24,99
628,661	25,06
629,12	24,92
629,579	24,92
630,038	24,79
630,497	24,81
630,956	24,8
631,415	24,71
631,874	24,75
632,332	24,53
632,791	24,47
633,249	24,63
633,708	24,61
634,166	24,18
634,624	24,39
635,082	24,33
635,54	23,94
635,998	23,69
636,455	23,99
636,913	23,63
637,37	23,55
637,828	23,71
638,285	23,58
638,742	23,27
639,199	23,11
639,656	22,82
640,113	23,01
640,57	22,77
641,027	22,37
641,483	22,43
641,94	21,87
642,396	21,95
642,852	21,77
643,309	21,64
643,765	21,68
644,221	21,34
644,676	21,71
645,132	20,98
645,588	20,9
646,043	21,06
646,499	20,92
646,954	20,55
647,409	20,37
647,864	20,14
648,319	20,14
648,774	20,05
649,229	19,61
649,684	19,58
650,139	19,49
650,593	19,54
651,047	19,7
651,502	19,42
651,956	19,32
652,41	19,1
652,864	19,23
653,318	19,08
653,772	18,82
654,225	18,7
654,679	18,71
655,133	18,57
655,586	18,72
656,039	18,76
656,492	18,41
656,946	18,39
657,399	18,39
657,851	18,31
658,304	18,09
658,757	18,11
659,209	17,84
659,662	17,58
660,114	17,41
660,567	17,44
661,019	17,29
661,471	17,32
661,923	17,05
662,375	17,15
662,826	17,1
663,278	17,04
663,73	16,73
664,181	16,72
664,632	16,7
665,084	16,62
665,535	16,44
665,986	16,56
666,437	16,51
666,888	16,39
667,338	16,29
667,789	16,43
668,24	16,4
668,69	16,29
669,14	16,41
669,591	16,31
670,041	16,3
670,491	16,34
670,941	16,27
671,391	16,64
671,84	16,51
672,29	16,71
672,74	16,6
673,189	16,63
673,638	16,65
674,088	16,91
674,537	16,71
674,986	17,15
675,435	17
675,883	17,17
676,332	17,09
676,781	17,32
677,229	17,34
677,678	17,55
678,126	17,78
678,574	17,82
679,022	17,87
679,47	17,88
679,918	18,12
680,366	18,43
680,814	18,44
681,261	18,57
681,709	18,72
682,156	18,98
682,604	19,14
683,051	19,25
683,498	19,25
683,945	19,59
684,392	19,59
684,839	19,78
685,286	19,8
685,732	20,19
686,179	20,3
686,625	20,71
687,071	20,83
687,518	20,9
687,964	21,21
688,41	21,49
688,856	21,91
689,301	22,21
689,747	22,64
690,193	22,95
690,638	23,71
691,084	24,37
691,529	24,64
691,974	25,18
692,419	25,91
692,864	26,48
693,309	27,33
693,754	27,78
694,199	28,71
694,643	29,56
695,088	30,45
695,532	31,44
695,977	32,35
696,421	33,28
696,865	34,2
697,309	35,07
697,753	36,14
698,197	37,06
698,64	37,9
699,084	39,07
699,527	40,07
699,971	40,91
700,414	42,12
700,857	42,99
701,3	43,75
701,743	44,61
702,186	45,65
702,629	46,43
703,072	47,44
703,515	48,74
703,957	49,49
704,399	50,42
704,842	51,09
705,284	52,02
705,726	53,19
706,168	53,9
706,61	54,76
707,052	55,87
707,494	56,97
707,935	57,29
708,377	57,97
708,818	59,29
709,26	60,01
709,701	61,09
710,142	62,07
710,583	62,17
711,024	62,98
711,465	63,77
711,905	64,61
712,346	65,71
712,787	66,38
713,227	67,22
713,667	67,81
714,108	68,95
714,548	69,56
714,988	70,3
715,428	70,53
715,868	71,38
716,307	72,11
716,747	72,98
717,186	73,92
717,626	74,12
718,065	75,1
718,504	75,48
718,944	75,62
719,383	76,91
719,822	77,39
720,261	78,02
720,699	78,65
721,138	78,99
721,576	79,88
722,015	80,41
722,453	80,96
722,892	81,34
723,33	82,24
723,768	81,93
724,206	83,07
724,644	83,34
725,081	84,03
725,519	83,97
725,957	85,04
726,394	85,85
726,832	85,58
727,269	85,9
727,706	86,86
728,143	86,38
728,58	87,21
729,017	87,72
729,454	87,77
729,89	88,28
730,327	88,45
730,764	89,29
731,2	89,18
731,636	89,2
732,072	89,19
732,509	90,22
732,945	90,3
733,38	90,64
733,816	90,64
734,252	91,74
734,688	91,67
735,123	91,65
735,559	92,15
735,994	92,44
736,429	91,61
736,864	92,22
737,299	92,39
737,734	92,24
738,169	93,03
738,604	93,13
739,038	93,03
739,473	93,02
739,907	93,01
740,342	93,42
740,776	93,49
741,21	93,93
741,644	93,95
742,078	93,82
742,512	94,03
742,946	94,09
743,379	93,88
743,813	94,5
744,246	94,61
744,68	94,6
745,113	94,92
745,546	94,57
745,979	94,62
746,412	94,92
746,845	94,2
747,278	94,58
747,711	94,68
748,143	94,56
748,576	95,1
749,008	94,54
749,441	94,57
749,873	94,69
750,305	95,3
750,737	94,77
751,169	94,32
751,601	94,92
752,032	95,27
752,464	94,82
752,896	94,18
753,327	94,54
753,758	94,84
754,19	94,97
754,621	95,01
755,052	94,67
755,483	95,3
755,914	94,9
756,344	95,08
756,775	94,61
757,206	94,17
757,636	94,62
758,066	94,97
758,497	94,48
758,927	94,44
759,357	94,46
759,787	94,16
760,217	94,62
760,647	94,1
761,076	95,19
761,506	94,68
761,935	94,89
762,365	94,62
762,794	94,63
763,223	94,14
763,653	94,87
764,082	94,38
764,51	94,39
764,939	94,42
765,368	94,51
765,797	94,18
766,225	93,57
766,654	93,92
767,082	93,7
767,51	94,22
767,938	93,71
768,367	94,16
768,795	94,25
769,222	93,89
769,65	94
770,078	93,95
770,505	94,21
770,933	93,91
771,36	93,63
771,788	93,48
772,215	93,79
772,642	93,55
773,069	94,1
773,496	93,83
773,923	94,07
774,349	94,36
774,776	94,2
775,203	93,59
775,629	93,74
776,055	94,15
776,482	93,79
776,908	92,81
777,334	93,72
777,76	93,89
778,186	93,56
778,611	93,79
779,037	93,51
779,463	93,79
779,888	93,78
780,314	93,49
780,739	94
781,164	93,29
781,589	93,1
782,014	93,36
782,439	93,49
782,864	93,63
783,289	94,01
783,713	93,25
784,138	93,38
784,562	94,09
784,987	93,28
785,411	93,56
785,835	93,7
786,259	93,41
786,683	93,65
787,107	93,63
787,531	93,7
787,954	94,05
788,378	93,41
788,802	93,77
789,225	94,15
789,648	93,91
790,071	93,96
790,495	93,7
790,918	93,56
791,34	93,98
791,763	93,53
792,186	93,7
792,609	93
793,031	93,8
793,454	93,62
793,876	93,61
794,298	93,04
794,721	93,23
795,143	93,37
795,565	93,61
795,986	93,38
796,408	93,41
796,83	93,71
797,252	93,78
797,673	93,74
798,094	93,42
798,516	93,24
798,937	93,31
799,358	93,21
799,779	93,51
800,2	93,67
800,621	93,58
801,042	94,01
801,462	93,74
801,883	93,04
802,303	93,16
802,724	93,36
803,144	93,11
803,564	93,45
803,984	93,14
804,404	93,96
804,824	93,74
805,244	93,56
805,664	94,01
806,084	93,68
806,503	93,21
806,923	93,8
807,342	92,91
807,761	93,85
808,18	93,93
808,599	92,94
809,018	93,16
809,437	93,29
809,856	93,61
810,275	93,52
810,693	93,49
811,112	93,03
811,53	93,88
811,949	93,63
812,367	93,46
812,785	93,47
813,203	93,18
813,621	93,23
814,039	92,82
814,457	93,5
814,874	93,52
815,292	93,1
815,709	93,5
816,127	92,88
816,544	93,42
816,961	92,64
817,378	92,98
817,795	93,59
818,212	93,29
818,629	93,21
819,046	93,62
819,462	93,27
819,879	93,53
820,295	93,85
820,712	92,97
821,128	93,02
821,544	93,43
821,96	93,39
822,376	93,27
822,792	92,98
823,208	92,79
823,624	93,09
824,039	92,89
824,455	92,7
824,87	93,51
825,286	93,72
825,701	92,85
826,116	93,61
826,531	93,04
826,946	93,4
827,361	92,46
827,776	92,99
828,19	92,8
828,605	92,87
829,02	93,55
829,434	93,6
829,848	93,37
830,263	93,37
830,677	93,06
831,091	93,17
831,505	93,01
831,919	92,8
832,332	93,22
832,746	93,07
833,16	92,97
833,573	92,85
833,987	92,67
834,4	92,85
834,813	92,95
835,226	92,64
835,639	93,36
836,052	93,12
836,465	93,29
836,878	92,86
837,29	93,69
837,703	93,21
838,116	92,58
838,528	93,45
838,94	92,72
839,352	93,14
839,765	93,17
840,177	93,3
840,589	92,56
841	92,55
841,412	92,71
841,824	93,19
842,235	92,73
842,647	92,67
843,058	93,43
843,47	92,79
843,881	93,19
844,292	93
844,703	92,39
845,114	93,03
845,525	92,81
845,935	92,88
846,346	92,73
846,757	92,23
847,167	92,72
847,577	92,62
847,988	91,95
848,398	93,01
848,808	92,8
849,218	93,22
849,628	92,52
850,038	92,65
850,448	93,04
850,857	92,8
851,267	92,5
851,676	92,53
852,086	92,93
852,495	92,82
852,904	93
853,313	92,52
853,722	92,94
854,131	92,05
854,54	92,35
854,949	92,91
855,357	92,3
855,766	93,08
856,174	93,02
856,583	93,14
856,991	92,64
857,399	92,39
857,807	92,31
858,215	92,41
858,623	92,09
859,031	92,19
859,439	92,79
859,846	92,56
860,254	93,21
860,661	93,22
861,069	92,25
861,476	92,44
861,883	92,77
862,29	91,96
862,697	92,48
863,104	91,65
863,511	92,52
863,918	91,86
864,325	92,63
864,731	92,05
865,138	92,48
865,544	92,43
865,95	93
866,357	92,42
866,763	92,5
867,169	92,44
867,575	92,93
867,98	92,21
868,386	92,65
868,792	92,56
869,197	92,28
869,603	92,97
870,008	93,03
870,414	92,49
870,819	92,47
871,224	92,66
871,629	92,62
872,034	92,04
872,439	92,03
872,844	92,71
873,248	92,77
873,653	92,51
874,057	92,2
874,462	92,81
874,866	92,61
875,27	91,97
875,674	92,11
876,078	92,59
876,482	92,25
876,886	92,54
877,29	92,28
877,694	92,51
878,097	92,11
878,501	92,66
878,904	91,68
879,308	92,3
879,711	91,94
880,114	91,7
880,517	92,11
880,92	91,74
881,323	92,22
881,726	92,5
882,128	92,38
882,531	92,25
882,934	91,82
883,336	91,18
883,738	92,18
884,141	92,24
884,543	91,71
884,945	92,28
885,347	92,73
885,749	92,04
886,151	92,64
886,552	92,3
886,954	92,18
887,355	92,23
887,757	92,38
888,158	91,54
888,56	91,88
888,961	91,84
889,362	92,18
889,763	92,64
890,164	91,85
890,565	92,41
890,965	92,65
891,366	92,38
891,767	92,65
892,167	92,06
892,567	92,03
892,968	92,59
893,368	91,77
893,768	92,47
894,168	91,89
894,568	92,54
894,968	92,03
895,368	92,19
895,767	91,66
896,167	92,15
896,566	92,12
896,966	92,01
897,365	92,51
897,764	92,32
898,164	92,27
898,563	92,03
898,962	91,49
899,361	92,85
899,759	92,02
900,158	92,43
900,557	92,16
900,955	91,93
901,354	92,07
901,752	91,87
902,15	92,14
902,548	92,84
902,947	92,21
903,345	92,19
903,742	92,15
904,14	92,6
904,538	91,72
904,936	92,01
905,333	92,16
905,731	92,11
906,128	92,38
906,525	91,51
906,923	92,3
907,32	92,35
907,717	92,02
908,114	91,74
908,511	91,86
908,907	91,65
909,304	91,77
909,701	91,55
910,097	92,64
910,494	91,56
910,89	91,29
911,286	92,1
911,682	91,34
912,078	91,29
912,474	91,89
912,87	92
913,266	92,22
913,662	91,94
914,058	91,93
914,453	92,14
914,849	92,27
915,244	92,04
915,639	92,43
916,034	91,43
916,43	92,13
916,825	91,68
917,22	91,36
917,614	91,84
918,009	91,56
918,404	91,6
918,798	91,87
919,193	90,77
919,587	91,78
919,982	92,42
920,376	92,16
920,77	91,03
921,164	92,1
921,558	91,64
921,952	91,01
922,346	91,65
922,74	92,36
923,133	92,49
923,527	91,11
923,92	91,92
924,314	91,29
924,707	91,56
925,1	91,54
925,493	91,31
925,886	91,68
926,279	92,23
926,672	91,03
927,065	91,45
927,457	91,9
927,85	90,7
928,243	91,01
928,635	91,71
929,027	90,73
929,42	91,51
929,812	90,5
930,204	91,27
930,596	91,3
930,988	90,7
931,379	91,37
931,771	90,79
932,163	91,33
932,554	91,47
932,946	91,3
933,337	91,29
933,729	91,18
934,12	91,1
934,511	91,21
934,902	90,97
935,293	91,65
935,684	90,33
936,075	89,98
936,465	91,58
936,856	91,44
937,246	90,84
937,637	90,64
938,027	91,27
938,417	91,09
938,808	90,3
939,198	90,56
939,588	90,77
939,978	89,27
940,368	90,35
940,757	90,55
941,147	90,53
941,537	91
941,926	89,45
942,315	90,48
942,705	90,76
943,094	90,14
943,483	88,89
943,872	89,53
944,261	90,04
944,65	90,15
945,039	89,13
945,428	89,64
945,816	91,34
946,205	88,87
946,593	88,58
946,982	89,36
947,37	90,17
947,758	89,49
948,146	89,69
948,534	88,47
948,922	87,96
949,31	88,55
949,698	89,49
950,086	87,88
950,473	88,39
950,861	88,75
951,248	88,65
951,636	88,05
952,023	87,75
952,41	87,3
952,797	88,36
953,184	87,79
953,571	88,18
953,958	88,53
954,345	88,75
954,731	88,95
955,118	86,73
955,505	88,12
955,891	88,16
956,277	88,22
956,664	87,22
957,05	88,36
957,436	88,13
957,822	86,94
958,208	87,87
958,594	87,62
958,979	87,59
959,365	87,29
959,751	87,51
960,136	87,39
960,522	86,86
960,907	86,93
961,292	87,38
961,677	86,98
962,062	87,59
962,447	86,63
962,832	87,32
963,217	86,18
963,602	86,81
963,986	86,61
964,371	86,93
964,756	87,48
965,14	86,85
965,524	86,68
965,908	87,19
966,293	87,31
966,677	86,3
967,061	86,63
967,445	86,48
967,828	86,49
968,212	86,44
968,596	87,04
968,979	87,89
969,363	86,55
969,746	86,81
970,129	86,45
970,513	86,98
970,896	86,24
971,279	87,09
971,662	86,8
972,045	86,07
972,428	86,52
972,81	87,23
973,193	87,53
973,575	86,38
973,958	86,2
974,34	87,37
974,723	86,49
975,105	87,32
975,487	87,14
975,869	86,75
976,251	87
976,633	86,86
977,015	86,76
977,396	85,89
977,778	86,04
978,16	86,32
978,541	86,45
978,922	86,61
979,304	87,32
979,685	86,38
980,066	86,91
980,447	87,56
980,828	86,91
981,209	86,79
981,59	86,26
981,97	86,14
982,351	86,8
982,732	87,81
983,112	86,04
983,493	87,45
983,873	86,35
984,253	86,26
984,633	85,89
985,013	86,38
985,393	86,84
985,773	87,3
986,153	87,15
986,533	87,22
986,912	87,36
987,292	87,2
987,671	86,57
988,051	86,15
988,43	87,02
988,809	86,31
989,188	86,73
989,567	87,04
989,946	86,99
990,325	85,92
990,704	86,61
991,083	86,67
991,461	86,92
991,84	86,96
992,218	86,1
992,597	87,43
992,975	87,5
993,353	87,28
993,732	86,92
994,11	87,02
994,488	86,85
994,866	87,42
995,243	87,13
995,621	86,59
995,999	86,82
996,376	87,37
996,754	86,83
997,131	87,31
997,509	87,13
997,886	87,51
998,263	87,17
998,64	87,02
999,017	86,69
999,394	87,63
999,771	87,22
1000,148	85,93
1000,524	87,73
1000,901	86,56
1001,277	87,44
1001,654	88,08
1002,03	87,62
1002,406	86,91
1002,783	87,58
1003,159	87,18
1003,535	86,81
1003,911	87,21
1004,286	87,53
1004,662	87,59
1005,038	87,2
1005,414	87,09
1005,789	87,06
1006,164	86,51
1006,54	87,12
1006,915	88,12
1007,29	87,02
1007,665	88,02
1008,04	88,02
1008,415	88,42
1008,79	88,17
1009,165	86,69
1009,54	87,63
1009,914	86,86
1010,289	88,05
1010,663	87,82
1011,038	88,64
1011,412	88,11
1011,786	87,75
1012,16	87,23
1012,535	87,33
1012,909	89,59
1013,282	88,43
1013,656	88,96
1014,03	88,62
1014,404	86,56
1014,777	88,54
1015,151	88,66
1015,524	88,24
1015,897	86,57
1016,271	87,86
1016,644	87,27
1017,017	87,96
1017,39	89,78
1017,763	87,77
1018,136	87,92
1018,508	88,41
1018,881	87,7
1019,254	88,05
1019,626	87,87
1019,999	88,81
1020,371	87,68
1020,743	88,81
1021,116	88,57
1021,488	89,12
1021,86	87,77
1022,232	89,17
1022,604	88,67
1022,975	88,67
1023,347	88
1023,719	89,73
1024,09	88,6
1024,462	89,05
1024,833	88,37
1025,204	89
1025,576	88,01
1025,947	88,54
1026,318	89,17
1026,689	88,31
1027,06	88,74
1027,431	89,56
1027,801	88,24
1028,172	89,21
1028,543	90,06
1028,913	89,93
1029,284	88,66
1029,654	88,63
1030,024	88,86
1030,394	88,66
1030,764	89,16
1031,135	88,33
1031,504	89,66
1031,874	89,02
1032,244	89,06
1032,614	88,83
1032,983	89,31
1033,353	88,95
1033,722	89,14
1034,092	90,2
1034,461	88,7
1034,83	88,87
1035,2	89,46
1035,569	88,79
1035,938	89,2
1036,307	88,66
1036,675	90,24
1037,044	89,16
1037,413	89,12
1037,781	89,23
1038,15	88,41
1038,518	90,1
1038,887	88,95
1039,255	88,79
1039,623	89,87
1039,991	89,97
1040,359	89,35
1040,727	88,49
1041,095	90,52
1041,463	88,05
1041,831	87,84
1042,198	90,39
1042,566	88,02
1042,933	88,98
1043,301	89,13
1043,668	89,52
1044,035	89,69
1044,402	91,41
1044,77	90,48
1045,137	91,1
1045,503	89,41
1045,87	88,65
1046,237	90,63
1046,604	90,01
1046,97	90,47
1047,337	89,89
1047,703	87,09
1048,07	89,35
1048,436	88,6
1048,802	89,83
1049,168	89,45
1049,534	90,52
1049,9	89,66
1050,266	89,49
1050,632	91,13
1050,998	90,2
1051,364	89,83
1051,729	89,04
1052,095	88,69
1052,46	90
1052,825	91,14
1053,191	90,23
1053,556	90,1
1053,921	90,96
1054,286	89,91
1054,651	89,22
1055,016	89,52
1055,381	90,22
1055,745	89,99
1056,11	90,47
1056,475	90,12
1056,839	90,65
1057,203	90,21
1057,568	90,43
1057,932	91,54
1058,296	91,88
1058,66	89,38
1059,024	90,44
1059,388	91,13
1059,752	90,6
1060,116	90,19
1060,48	90,22
1060,843	90,28
1061,207	91,8
1061,57	88,87
1061,934	90,4
1062,297	90,23
1062,66	90,24
1063,023	90,33
1063,386	91,17
1063,749	89,26
1064,112	90,52
1064,475	90,15
1064,838	88,98
1065,201	88,94
1065,563	90,67
1065,926	90,4
1066,288	89,89
1066,651	89,64
1067,013	89,92
1067,375	91,37
1067,737	89,76
1068,099	90,42
1068,461	90,62
1068,823	90,53
1069,185	90,18
1069,547	87,61
1069,909	90,19
1070,27	90,49
1070,632	92,12
1070,993	89,64
1071,355	89,1
1071,716	88,7
1072,077	90
1072,438	87,99
1072,799	89,81
1073,16	91,42
1073,521	89,95
1073,882	91,4
1074,243	91,24
1074,603	92,24
1074,964	89,98
1075,325	89,93
1075,685	90,7
1076,045	89,42
1076,406	89,69
1076,766	90,69
1077,126	87,12
1077,486	89,9
1077,846	89,04
1078,206	90,12
1078,566	89,22
1078,925	90,94
1079,285	90
1079,645	92,79
1080,004	91,09
1080,364	90,51
1080,723	89,48
1081,082	89,39
1081,442	90,45
1081,801	89,21
1082,16	92,07
1082,519	90,56
1082,878	91,05
1083,237	90,84
1083,595	89,32
1083,954	88,19
1084,313	91,36
1084,671	86,46
1085,03	88,12
1085,388	90,74
1085,746	89,34
1086,104	93,83
1086,463	91,76
1086,821	89,64
1087,179	90,35
1087,537	93,6
1087,894	91,41
1088,252	92,14
1088,61	89,09
1088,967	90,82
1089,325	89,21
1089,682	89,11
1090,04	86,86
1090,397	93,43
1090,754	87,62
1091,111	90,98
1091,469	87,17
1091,826	89,93
1092,182	86,5
1092,539	91,75
1092,896	88,92
1093,253	85,75
1093,609	91,26
1093,966	92,42
1094,322	92,83
1094,679	88,01
1095,035	88,08
1095,391	88,68
1095,748	90,26
1096,104	86,61
1096,46	90,17
1096,816	89,18
1097,171	90,36
1097,527	89,7
1097,883	88,41
1098,239	87,87
1098,594	87,5
1098,95	85,15
1099,305	89,62
1099,66	88,07
1100,016	84,57
1100,371	92,63
1100,726	88,56
1101,081	87,96
1101,436	82,97
1101,791	90,49
1102,146	90,04
1102,5	82,28
1102,855	90,25
1103,21	89,4
1103,564	89,14
1103,918	84,96
1104,273	88,44
1104,627	87,34
1104,981	89,15
1105,335	87,26
1105,69	85,73
1106,043	88,9
1106,397	92,67
1106,751	87,1
1107,105	87,61
1107,459	89,45
1107,812	90,62
1108,166	88,57
1108,519	89,02
1108,873	91,85
1109,226	88,08
1109,579	89,7
1109,932	85,07
1110,285	83,13
1110,638	89,6
1110,991	88,44
1111,344	93,99
1111,697	87,47
1112,05	87,47
1112,402	90,21
1112,755	89,97
1113,107	87,56
1113,46	93,03
1113,812	91,39
1114,164	90,53
1114,517	82,64
1114,869	87,06
1115,221	76,74
1115,573	81,55
1115,924	84,09
