Data from C_4_0_Relative__0__00053.txt Node

Date: Mon Jan 29 12:54:30 CET 2024
User: diatiterra
Spectrometer: HDX00911
Trigger mode: 0
Integration Time (sec): 6,000000E-3
Scans to average: 4
Nonlinearity correction enabled: false
Boxcar width: 0
Storing dark spectrum: false
XAxis mode: Wavelengths
Number of Pixels in Spectrum: 2068
>>>>>Begin Spectral Data<<<<<
194,468	16,46
195,025	24,62
195,581	23,26
196,138	18,71
196,694	35,98
197,251	29,18
197,807	37,53
198,363	26,13
198,919	34,48
199,474	30,89
200,03	28,26
200,586	28,9
201,141	22,65
201,696	26,67
202,251	28,31
202,806	29,16
203,361	27
203,916	23,24
204,471	28,57
205,025	29,03
205,58	31,54
206,134	25,46
206,688	28,63
207,242	28,03
207,796	29,8
208,35	30,3
208,904	30,61
209,457	27,53
210,011	31,5
210,564	30,35
211,117	31,53
211,67	29,78
212,223	26,55
212,776	30,44
213,329	32,53
213,881	32,24
214,434	25,63
214,986	31,07
215,538	30,97
216,09	29,12
216,642	29,12
217,194	31,87
217,746	34,75
218,297	30,47
218,849	25,97
219,4	27,56
219,951	29,56
220,502	30,62
221,053	31,51
221,604	32,29
222,155	21,38
222,705	30,9
223,256	32,1
223,806	30,19
224,356	31,84
224,906	32,7
225,456	35,16
226,006	38,64
226,556	31,11
227,106	34,38
227,655	30,06
228,204	34,07
228,754	30,8
229,303	36,7
229,852	33,69
230,401	27,93
230,949	35,38
231,498	34
232,047	32,12
232,595	29,08
233,143	34,36
233,691	32,17
234,239	34,38
234,787	32,5
235,335	34,19
235,883	27,48
236,43	26,86
236,978	30,56
237,525	29,46
238,072	28,76
238,619	33,41
239,166	34,44
239,713	28,78
240,26	31,33
240,806	33,12
241,353	25,75
241,899	33,48
242,445	26,6
242,991	25,38
243,537	26,93
244,083	29,88
244,629	33,9
245,174	29,91
245,72	30,89
246,265	35,2
246,81	25,28
247,355	31,29
247,9	29,76
248,445	19,4
248,99	31,42
249,534	31,07
250,079	28,89
250,623	25,36
251,168	30,43
251,712	27,96
252,256	24,73
252,8	28,1
253,343	29,86
253,887	22,98
254,43	21,67
254,974	22,35
255,517	25,8
256,06	28,26
256,603	20,68
257,146	29,47
257,689	26,41
258,232	26,76
258,774	26,49
259,317	31,38
259,859	28,93
260,401	28,57
260,943	27,56
261,485	28,44
262,027	22,76
262,569	24
263,11	32,91
263,652	31,76
264,193	27,55
264,734	26,15
265,275	32,16
265,816	28,57
266,357	32,2
266,898	25,8
267,438	32,57
267,979	33,19
268,519	36,11
269,059	25,23
269,6	27,99
270,14	22,07
270,68	33,47
271,219	31,22
271,759	33,48
272,298	26,73
272,838	33,26
273,377	31,48
273,916	34,23
274,455	24,94
274,994	28,63
275,533	27,48
276,072	30,69
276,61	36,78
277,149	27,18
277,687	28,38
278,225	28,05
278,763	33,48
279,301	25,56
279,839	34,19
280,377	27,96
280,914	34,34
281,452	30,96
281,989	32,97
282,526	30,9
283,064	29,44
283,601	30,16
284,137	35,48
284,674	27,18
285,211	31,81
285,747	32,94
286,284	32,19
286,82	31,89
287,356	32,01
287,892	26,53
288,428	22,53
288,964	37,18
289,5	21,35
290,035	30,68
290,571	34,39
291,106	19,8
291,641	28,18
292,176	31,54
292,711	30,26
293,246	32,11
293,781	28,44
294,315	28,93
294,85	26,11
295,384	29,44
295,918	23,11
296,453	24,06
296,987	28,2
297,52	33,99
298,054	28,19
298,588	25,87
299,121	27,05
299,655	24,21
300,188	23,69
300,721	36,05
301,254	23,97
301,787	30,75
302,32	27,65
302,853	29,74
303,385	35,68
303,918	18,49
304,45	27,63
304,982	27,56
305,514	28,47
306,046	25,16
306,578	28,38
307,11	31,93
307,641	30,58
308,173	26,59
308,704	24,33
309,236	26,28
309,767	27,76
310,298	26,16
310,829	31,92
311,359	22,9
311,89	23,93
312,421	20,85
312,951	29,53
313,481	31,34
314,012	22,37
314,542	26,12
315,072	26,38
315,601	29,05
316,131	30,66
316,661	28,5
317,19	29,64
317,72	22,86
318,249	26,19
318,778	25,49
319,307	20,24
319,836	24,25
320,365	27,65
320,893	31,78
321,422	29,26
321,95	27,33
322,479	28,67
323,007	28,02
323,535	30,7
324,063	26,24
324,591	30,26
325,118	30,55
325,646	29,48
326,173	28,31
326,701	30,95
327,228	34,09
327,755	27,03
328,282	24,6
328,809	27,37
329,336	27,48
329,862	31,36
330,389	28,97
330,915	25,45
331,441	34,27
331,968	28,43
332,494	21
333,02	27,74
333,545	31,39
334,071	26,56
334,597	24,04
335,122	30,96
335,648	24,74
336,173	24,73
336,698	27,29
337,223	26,25
337,748	31,93
338,272	28,66
338,797	24,73
339,322	28,73
339,846	25,74
340,37	37,22
340,894	24,28
341,419	31,51
341,942	29,21
342,466	23,38
342,99	32,16
343,514	31,24
344,037	23,4
344,56	22,27
345,084	26,52
345,607	26,9
346,13	23,66
346,653	25,57
347,175	23,73
347,698	33,4
348,221	27,75
348,743	27,32
349,265	26,96
349,787	25,8
350,309	25,47
350,831	24,83
351,353	31,84
351,875	23,99
352,397	25,67
352,918	29,86
353,439	26,75
353,961	29,75
354,482	23,74
355,003	27,5
355,524	28,35
356,044	28,66
356,565	28,57
357,086	25,34
357,606	27,79
358,126	32,49
358,646	27,75
359,167	30,74
359,687	31,92
360,206	27,33
360,726	27,54
361,246	33,09
361,765	26,4
362,285	32,7
362,804	28,96
363,323	32,58
363,842	34,18
364,361	27,54
364,88	31,45
365,398	28,16
365,917	31,16
366,435	30,98
366,954	31,05
367,472	29,14
367,99	33,72
368,508	28,74
369,026	29,62
369,544	28,05
370,061	28,7
370,579	29,9
371,096	32,14
371,613	30,83
372,131	27,95
372,648	30,68
373,165	31,86
373,681	32,26
374,198	30,88
374,715	30,92
375,231	30,89
375,747	26,4
376,264	29,63
376,78	30,12
377,296	30,81
377,812	29,11
378,327	31,88
378,843	33,01
379,359	30,11
379,874	29,38
380,389	28,83
380,905	32,18
381,42	29,62
381,935	29
382,449	31,62
382,964	28,18
383,479	29,68
383,993	29,35
384,508	30,77
385,022	29,46
385,536	26,94
386,05	30,27
386,564	27,8
387,078	27,5
387,592	29,21
388,105	27,1
388,619	27,74
389,132	27,62
389,645	25,2
390,158	27,51
390,671	26,42
391,184	26,49
391,697	24,57
392,21	26,1
392,722	24,25
393,235	23,54
393,747	22,88
394,259	22,33
394,771	25,09
395,283	23
395,795	24,16
396,307	24,18
396,818	21,49
397,33	23,76
397,841	22,94
398,353	21,12
398,864	22,64
399,375	22,5
399,886	22,18
400,397	23
400,907	20,7
401,418	21,17
401,928	20,13
402,439	19,1
402,949	19,79
403,459	17,73
403,969	17,96
404,479	18,66
404,989	16,66
405,498	17,67
406,008	16,85
406,517	15,88
407,027	16,47
407,536	16,13
408,045	14,81
408,554	14,97
409,063	14,07
409,572	14,01
410,08	13,88
410,589	13,56
411,097	12,58
411,606	12,18
412,114	12,72
412,622	12,39
413,13	11,13
413,638	11,17
414,145	12,02
414,653	10,56
415,16	11,78
415,668	10,29
416,175	10,05
416,682	10,2
417,189	9,75
417,696	10,09
418,203	9,89
418,71	9,82
419,216	9,51
419,723	9,23
420,229	9,43
420,735	9,15
421,242	9,09
421,748	9,13
422,254	9,29
422,759	9,06
423,265	9,11
423,771	8,92
424,276	8,74
424,781	8,49
425,287	8,3
425,792	8,38
426,297	8,48
426,802	8,51
427,306	8,84
427,811	8,55
428,316	8,22
428,82	8,52
429,324	8,41
429,829	8,54
430,333	8,53
430,837	8,15
431,34	8,15
431,844	8,24
432,348	7,76
432,851	8,39
433,355	7,98
433,858	8,05
434,361	7,81
434,864	7,84
435,367	7,88
435,87	8,15
436,373	7,97
436,876	7,9
437,378	8,13
437,88	7,61
438,383	8,31
438,885	7,95
439,387	8,15
439,889	7,89
440,391	8,07
440,892	8,19
441,394	7,96
441,896	8,27
442,397	7,9
442,898	7,76
443,399	8,02
443,9	7,96
444,401	7,95
444,902	8,11
445,403	8,12
445,903	8,27
446,404	8,19
446,904	7,96
447,405	7,76
447,905	8,08
448,405	8,36
448,905	8,34
449,404	8,32
449,904	8,12
450,404	8,17
450,903	8,21
451,403	8,37
451,902	8,56
452,401	8,21
452,9	8,37
453,399	8,27
453,898	8,44
454,396	8,65
454,895	8,43
455,393	8,63
455,892	8,32
456,39	8,69
456,888	8,77
457,386	8,4
457,884	8,53
458,382	8,71
458,879	8,66
459,377	8,74
459,874	8,49
460,372	8,52
460,869	8,7
461,366	8,73
461,863	8,69
462,36	8,52
462,857	8,97
463,353	8,62
463,85	8,64
464,346	8,93
464,843	8,74
465,339	8,7
465,835	8,65
466,331	8,67
466,827	8,51
467,323	8,8
467,818	8,58
468,314	8,43
468,809	8,94
469,305	8,45
469,8	8,84
470,295	8,63
470,79	8,72
471,285	8,53
471,78	8,61
472,274	8,4
472,769	8,71
473,263	8,83
473,758	9,06
474,252	8,6
474,746	8,86
475,24	8,42
475,734	8,62
476,228	8,78
476,721	8,69
477,215	8,6
477,708	8,86
478,202	9,07
478,695	8,69
479,188	8,9
479,681	8,59
480,174	8,94
480,667	8,81
481,159	8,81
481,652	8,58
482,144	8,51
482,637	8,82
483,129	8,89
483,621	9,05
484,113	8,95
484,605	8,99
485,097	8,86
485,588	9,05
486,08	8,87
486,571	9,03
487,063	8,98
487,554	9,01
488,045	9,11
488,536	9,39
489,027	9,29
489,518	9,13
490,008	9,35
490,499	9,38
490,989	9,35
491,48	9,59
491,97	9,47
492,46	9,33
492,95	9,43
493,44	9,54
493,93	9,54
494,419	9,58
494,909	9,65
495,398	9,53
495,888	9,85
496,377	9,65
496,866	10,01
497,355	9,87
497,844	10,38
498,333	10,47
498,821	10,56
499,31	10,39
499,798	10,61
500,287	10,55
500,775	10,74
501,263	10,94
501,751	10,98
502,239	11,1
502,727	11,09
503,215	11,26
503,702	11,58
504,19	11,89
504,677	11,81
505,164	12
505,651	12,25
506,139	12,38
506,625	12,61
507,112	12,58
507,599	12,87
508,086	12,96
508,572	13,33
509,058	13,16
509,545	13,6
510,031	13,83
510,517	14,12
511,003	14,22
511,489	14,39
511,974	14,79
512,46	15,15
512,946	15,16
513,431	15,21
513,916	15,38
514,401	15,75
514,887	16,07
515,371	16,25
515,856	16,45
516,341	16,73
516,826	17,13
517,31	17,27
517,795	17,72
518,279	17,54
518,763	17,99
519,247	18,23
519,731	18,62
520,215	18,86
520,699	19,21
521,182	19,24
521,666	19,73
522,149	19,91
522,633	20,23
523,116	20,4
523,599	20,56
524,082	20,89
524,565	21,04
525,048	21,31
525,53	21,62
526,013	21,79
526,495	21,91
526,978	22,09
527,46	22,43
527,942	22,58
528,424	22,54
528,906	22,91
529,388	23,08
529,87	23,13
530,351	23,31
530,833	23,46
531,314	23,51
531,795	23,8
532,277	23,8
532,758	23,91
533,238	24,17
533,719	24,04
534,2	24,45
534,681	24,5
535,161	24,44
535,642	24,58
536,122	24,62
536,602	24,81
537,082	24,75
537,562	24,68
538,042	24,5
538,522	24,97
539,001	24,73
539,481	24,84
539,96	25,05
540,44	25,12
540,919	25,05
541,398	25,44
541,877	24,98
542,356	25,2
542,835	25,02
543,313	25,46
543,792	25,26
544,27	25,18
544,749	25,32
545,227	25,22
545,705	25,31
546,183	25,36
546,661	25,48
547,139	25,44
547,616	25,91
548,094	25,04
548,571	25,64
549,049	25,63
549,526	25,57
550,003	25,64
550,48	25,81
550,957	25,63
551,434	25,61
551,911	25,62
552,387	25,71
552,864	25,65
553,34	26,01
553,817	25,96
554,293	25,56
554,769	25,84
555,245	25,86
555,721	25,83
556,197	25,83
556,672	25,72
557,148	25,74
557,623	25,85
558,099	25,78
558,574	26,01
559,049	25,57
559,524	25,54
559,999	25,39
560,474	25,45
560,948	25,51
561,423	25,47
561,897	25,58
562,372	25,54
562,846	25,12
563,32	25,14
563,794	25,2
564,268	25,15
564,742	24,88
565,216	24,84
565,69	24,73
566,163	24,59
566,636	24,74
567,11	24,41
567,583	24,42
568,056	24,16
568,529	24,17
569,002	23,94
569,475	24,07
569,947	23,78
570,42	23,55
570,892	23,56
571,365	23,24
571,837	23,38
572,309	23,3
572,781	22,8
573,253	22,66
573,725	22,77
574,197	22,55
574,668	22,28
575,14	22,33
575,611	22,33
576,082	22,05
576,554	22,08
577,025	21,77
577,496	21,71
577,967	21,58
578,437	21,37
578,908	21,45
579,379	21,1
579,849	21,04
580,319	21,1
580,79	21,06
581,26	20,75
581,73	20,62
582,2	20,68
582,669	20,29
583,139	20,69
583,609	20,42
584,078	20,17
584,548	20,18
585,017	20,08
585,486	19,87
585,955	19,91
586,424	19,9
586,893	19,87
587,362	19,73
587,83	19,69
588,299	19,67
588,767	19,49
589,236	19,55
589,704	19,39
590,172	19,36
590,64	19,26
591,108	19,28
591,576	19,32
592,043	18,99
592,511	19,29
592,978	18,94
593,446	19,07
593,913	18,98
594,38	18,9
594,847	18,72
595,314	18,76
595,781	18,97
596,248	18,58
596,715	18,82
597,181	18,78
597,647	18,66
598,114	18,65
598,58	18,57
599,046	18,67
599,512	18,63
599,978	18,59
600,444	18,55
600,91	18,41
601,375	18,33
601,841	18,23
602,306	18,39
602,771	18,39
603,236	18,25
603,702	18,28
604,167	18,21
604,631	18,12
605,096	18,05
605,561	17,95
606,025	17,79
606,49	17,62
606,954	17,86
607,418	17,71
607,882	17,55
608,347	17,54
608,81	17,39
609,274	17,35
609,738	17,32
610,202	17,22
610,665	17,17
611,128	17,12
611,592	16,92
612,055	16,86
612,518	16,67
612,981	16,92
613,444	16,62
613,907	16,71
614,369	16,46
614,832	16,45
615,294	16,41
615,757	16,28
616,219	16,28
616,681	16,24
617,143	15,96
617,605	15,97
618,067	15,96
618,529	15,88
618,99	15,78
619,452	15,63
619,913	15,68
620,375	15,65
620,836	15,48
621,297	15,35
621,758	15,43
622,219	15,43
622,68	15,39
623,14	15,2
623,601	15,23
624,061	15,26
624,522	15,16
624,982	15,02
625,442	15,12
625,902	15,09
626,362	14,94
626,822	14,98
627,282	14,98
627,742	14,93
628,201	14,99
628,661	14,91
629,12	14,94
629,579	14,84
630,038	14,66
630,497	15
630,956	14,79
631,415	14,78
631,874	14,64
632,332	14,7
632,791	14,67
633,249	14,57
633,708	14,54
634,166	14,6
634,624	14,43
635,082	14,5
635,54	14,4
635,998	14,27
636,455	14,24
636,913	14,29
637,37	14
637,828	14,06
638,285	14,01
638,742	13,74
639,199	13,7
639,656	13,51
640,113	13,55
640,57	13,44
641,027	13,3
641,483	13,23
641,94	13,17
642,396	12,92
642,852	12,77
643,309	12,86
643,765	12,58
644,221	12,62
644,676	12,43
645,132	12,38
645,588	12,17
646,043	12,09
646,499	11,99
646,954	11,87
647,409	11,72
647,864	11,76
648,319	11,54
648,774	11,51
649,229	11,42
649,684	11,3
650,139	11,35
650,593	11,26
651,047	11,25
651,502	11,11
651,956	11,06
652,41	10,95
652,864	10,93
653,318	10,87
653,772	10,84
654,225	10,78
654,679	10,68
655,133	10,6
655,586	10,7
656,039	10,57
656,492	10,5
656,946	10,48
657,399	10,24
657,851	10,3
658,304	10,17
658,757	10,19
659,209	10,04
659,662	9,89
660,114	9,82
660,567	9,76
661,019	9,73
661,471	9,53
661,923	9,59
662,375	9,47
662,826	9,41
663,278	9,34
663,73	9,21
664,181	9,09
664,632	9,11
665,084	9,02
665,535	8,91
665,986	8,93
666,437	8,79
666,888	8,81
667,338	8,8
667,789	8,75
668,24	8,66
668,69	8,73
669,14	8,69
669,591	8,66
670,041	8,71
670,491	8,75
670,941	8,7
671,391	8,71
671,84	8,69
672,29	8,83
672,74	8,87
673,189	8,96
673,638	8,86
674,088	8,93
674,537	8,98
674,986	9,06
675,435	9,14
675,883	9,3
676,332	9,23
676,781	9,28
677,229	9,44
677,678	9,46
678,126	9,6
678,574	9,68
679,022	9,73
679,47	9,8
679,918	10,03
680,366	10,02
680,814	10,19
681,261	10,22
681,709	10,38
682,156	10,54
682,604	10,65
683,051	10,74
683,498	10,83
683,945	11,1
684,392	11,07
684,839	11,21
685,286	11,31
685,732	11,6
686,179	11,65
686,625	11,75
687,071	12,13
687,518	12,26
687,964	12,31
688,41	12,65
688,856	12,85
689,301	13,25
689,747	13,49
690,193	13,71
690,638	14,12
691,084	14,48
691,529	14,81
691,974	15,01
692,419	15,3
692,864	15,8
693,309	16,24
693,754	16,6
694,199	16,98
694,643	17,45
695,088	17,89
695,532	18,27
695,977	18,7
696,421	19,17
696,865	19,54
697,309	20,1
697,753	20,26
698,197	20,72
698,64	21,05
699,084	21,53
699,527	22,07
699,971	22,29
700,414	22,72
700,857	22,97
701,3	23,42
701,743	23,74
702,186	24,04
702,629	24,48
703,072	24,75
703,515	25,12
703,957	25,49
704,399	25,62
704,842	25,99
705,284	26,09
705,726	26,66
706,168	26,92
706,61	27,19
707,052	27,43
707,494	27,71
707,935	27,96
708,377	28,05
708,818	28,39
709,26	28,51
709,701	28,76
710,142	28,88
710,583	29,12
711,024	29,4
711,465	29,51
711,905	30,02
712,346	30,1
712,787	30,34
713,227	30,46
713,667	30,58
714,108	30,96
714,548	31,01
714,988	31,23
715,428	31,35
715,868	31,53
716,307	31,69
716,747	31,79
717,186	31,85
717,626	32,09
718,065	32,22
718,504	32,5
718,944	32,78
719,383	32,62
719,822	32,97
720,261	33,04
720,699	33,18
721,138	33,36
721,576	33,56
722,015	33,55
722,453	33,67
722,892	33,47
723,33	33,72
723,768	33,97
724,206	33,86
724,644	34,12
725,081	34,26
725,519	34,3
725,957	34,56
726,394	34,3
726,832	34,57
727,269	34,58
727,706	34,76
728,143	34,89
728,58	34,83
729,017	34,71
729,454	35,02
729,89	35,02
730,327	35,01
730,764	35,17
731,2	35,27
731,636	35,02
732,072	35,25
732,509	35,19
732,945	35,3
733,38	35,16
733,816	35,22
734,252	35,29
734,688	35,58
735,123	35,55
735,559	35,3
735,994	35,19
736,429	35,71
736,864	35,43
737,299	35,64
737,734	35,55
738,169	35,57
738,604	35,55
739,038	35,75
739,473	35,74
739,907	35,67
740,342	35,45
740,776	35,58
741,21	35,67
741,644	35,51
742,078	35,47
742,512	35,63
742,946	35,39
743,379	35,66
743,813	35,27
744,246	35,53
744,68	35,48
745,113	35,42
745,546	35,4
745,979	35,65
746,412	35,53
746,845	35,46
747,278	35,29
747,711	35,58
748,143	35,29
748,576	35,54
749,008	35,26
749,441	35,25
749,873	35,23
750,305	35,26
750,737	34,97
751,169	35,21
751,601	35,1
752,032	35,16
752,464	35,2
752,896	34,88
753,327	34,93
753,758	34,98
754,19	34,98
754,621	35,05
755,052	34,74
755,483	34,93
755,914	34,69
756,344	34,53
756,775	34,82
757,206	34,69
757,636	34,75
758,066	34,71
758,497	34,49
758,927	34,78
759,357	34,53
759,787	34,57
760,217	34,6
760,647	34,52
761,076	34,73
761,506	34,43
761,935	34,47
762,365	34,31
762,794	34,41
763,223	34,37
763,653	34,26
764,082	34,22
764,51	34,28
764,939	34,31
765,368	34,16
765,797	34,16
766,225	33,99
766,654	34,28
767,082	34,17
767,51	34,14
767,938	33,98
768,367	34,12
768,795	34,05
769,222	34,16
769,65	34,07
770,078	33,89
770,505	34
770,933	33,96
771,36	33,84
771,788	33,92
772,215	33,77
772,642	33,86
773,069	33,73
773,496	33,99
773,923	33,8
774,349	33,87
774,776	33,93
775,203	33,79
775,629	33,76
776,055	33,7
776,482	33,82
776,908	33,76
777,334	33,63
777,76	33,65
778,186	33,71
778,611	33,59
779,037	33,58
779,463	33,51
779,888	33,56
780,314	33,56
780,739	33,53
781,164	33,67
781,589	33,5
782,014	33,46
782,439	33,55
782,864	33,53
783,289	33,45
783,713	33,52
784,138	33,63
784,562	33,57
784,987	33,51
785,411	33,72
785,835	33,39
786,259	33,47
786,683	33,58
787,107	33,47
787,531	33,68
787,954	33,51
788,378	33,46
788,802	33,33
789,225	33,42
789,648	33,47
790,071	33,47
790,495	33,36
790,918	33,29
791,34	33,41
791,763	33,41
792,186	33,54
792,609	33,42
793,031	33,34
793,454	33,25
793,876	33,25
794,298	33,24
794,721	33,32
795,143	33,24
795,565	33,45
795,986	33,24
796,408	33,3
796,83	33,36
797,252	33,17
797,673	33,1
798,094	33,27
798,516	33,29
798,937	33,18
799,358	33,26
799,779	33,26
800,2	33,07
800,621	33,23
801,042	33,17
801,462	33,34
801,883	33,09
802,303	33,11
802,724	33,04
803,144	33,1
803,564	33,2
803,984	33,2
804,404	33,06
804,824	33,05
805,244	33,11
805,664	33,09
806,084	33,17
806,503	33,03
806,923	33,15
807,342	33,06
807,761	33,09
808,18	33,06
808,599	33,06
809,018	33,17
809,437	33,1
809,856	32,98
810,275	33,17
810,693	33,07
811,112	33,11
811,53	32,98
811,949	33,08
812,367	33,16
812,785	32,9
813,203	32,97
813,621	33,07
814,039	32,78
814,457	33,09
814,874	33,15
815,292	33,1
815,709	32,98
816,127	33,13
816,544	33,14
816,961	32,94
817,378	33,04
817,795	33,13
818,212	33,19
818,629	32,84
819,046	33,07
819,462	33,19
819,879	33,03
820,295	32,8
820,712	33,04
821,128	33,03
821,544	32,79
821,96	32,91
822,376	33,12
822,792	32,91
823,208	32,89
823,624	33,14
824,039	33,02
824,455	32,95
824,87	33,07
825,286	32,92
825,701	32,95
826,116	32,94
826,531	32,77
826,946	32,8
827,361	32,76
827,776	32,83
828,19	32,87
828,605	33,14
829,02	32,86
829,434	32,92
829,848	33,01
830,263	32,79
830,677	32,87
831,091	32,99
831,505	32,78
831,919	33,04
832,332	32,79
832,746	32,67
833,16	32,6
833,573	32,76
833,987	32,91
834,4	32,74
834,813	32,94
835,226	32,73
835,639	32,84
836,052	32,74
836,465	32,87
836,878	32,73
837,29	32,96
837,703	32,87
838,116	32,79
838,528	32,89
838,94	32,73
839,352	32,74
839,765	32,74
840,177	32,65
840,589	32,63
841	32,86
841,412	32,73
841,824	32,6
842,235	32,72
842,647	32,65
843,058	32,81
843,47	32,83
843,881	32,68
844,292	32,72
844,703	32,57
845,114	32,72
845,525	32,81
845,935	32,76
846,346	32,66
846,757	32,66
847,167	32,59
847,577	32,71
847,988	32,69
848,398	32,75
848,808	32,39
849,218	32,98
849,628	32,62
850,038	32,55
850,448	32,71
850,857	32,48
851,267	32,58
851,676	32,88
852,086	32,64
852,495	32,62
852,904	32,78
853,313	32,68
853,722	32,66
854,131	32,67
854,54	32,54
854,949	32,72
855,357	32,49
855,766	32,45
856,174	32,79
856,583	32,52
856,991	32,86
857,399	32,73
857,807	32,59
858,215	32,6
858,623	32,53
859,031	32,5
859,439	32,55
859,846	32,68
860,254	32,67
860,661	32,48
861,069	32,56
861,476	32,43
861,883	32,45
862,29	32,72
862,697	32,61
863,104	32,55
863,511	32,34
863,918	32,7
864,325	32,51
864,731	32,61
865,138	32,64
865,544	32,58
865,95	32,61
866,357	32,65
866,763	32,48
867,169	32,49
867,575	32,31
867,98	32,38
868,386	32,64
868,792	32,7
869,197	32,55
869,603	32,66
870,008	32,43
870,414	32,62
870,819	32,39
871,224	32,29
871,629	32,65
872,034	32,44
872,439	32,59
872,844	32,25
873,248	32,5
873,653	32,45
874,057	32,51
874,462	32,44
874,866	32,41
875,27	32,76
875,674	32,26
876,078	32,64
876,482	32,55
876,886	32,47
877,29	32,36
877,694	32,2
878,097	32,59
878,501	32,48
878,904	32,19
879,308	32,51
879,711	32,54
880,114	32,56
880,517	32,44
880,92	32,58
881,323	32,59
881,726	32,2
882,128	32,34
882,531	32,23
882,934	32,25
883,336	32,32
883,738	32,29
884,141	32,5
884,543	32,52
884,945	32,49
885,347	32,35
885,749	32,38
886,151	32,23
886,552	32,5
886,954	32,49
887,355	32,28
887,757	32,37
888,158	32,33
888,56	32,44
888,961	32,4
889,362	32,5
889,763	32,45
890,164	32,55
890,565	32,37
890,965	32,42
891,366	32,51
891,767	32,54
892,167	32,34
892,567	32,12
892,968	32,63
893,368	32,24
893,768	32,34
894,168	32,15
894,568	32,39
894,968	32,39
895,368	32,61
895,767	32,5
896,167	32,21
896,566	32,47
896,966	32,33
897,365	32,3
897,764	32,35
898,164	32,16
898,563	32,25
898,962	32,02
899,361	32,35
899,759	32,21
900,158	32,19
900,557	32,25
900,955	32,24
901,354	32,06
901,752	32,24
902,15	32,35
902,548	32,13
902,947	32,16
903,345	32,05
903,742	32,42
904,14	32,44
904,538	32,01
904,936	32,41
905,333	32,12
905,731	32,48
906,128	32,12
906,525	32,39
906,923	32,22
907,32	32,08
907,717	32,25
908,114	32,31
908,511	32,34
908,907	32,3
909,304	32,27
909,701	32,32
910,097	32,43
910,494	32,21
910,89	32,26
911,286	32,25
911,682	32,22
912,078	32,48
912,474	32,27
912,87	32,23
913,266	32,05
913,662	32,01
914,058	32,2
914,453	32,33
914,849	32,35
915,244	32,11
915,639	32,67
916,034	32,14
916,43	32,36
916,825	32,04
917,22	32,17
917,614	32,12
918,009	32,28
918,404	32,23
918,798	32,49
919,193	32,36
919,587	32,42
919,982	32,47
920,376	32,14
920,77	32,15
921,164	32,05
921,558	32,4
921,952	32,18
922,346	32,07
922,74	32,37
923,133	32,16
923,527	32,34
923,92	32,29
924,314	32,19
924,707	32
925,1	32,07
925,493	32,11
925,886	32,34
926,279	32,19
926,672	32,17
927,065	32,32
927,457	32,17
927,85	32,29
928,243	32,33
928,635	32,03
929,027	32
929,42	32,11
929,812	32,05
930,204	32,1
930,596	32,23
930,988	32,1
931,379	31,94
931,771	32,35
932,163	31,96
932,554	32,24
932,946	32
933,337	31,88
933,729	32,44
934,12	32,06
934,511	31,96
934,902	32,07
935,293	31,79
935,684	32,05
936,075	32,01
936,465	31,79
936,856	31,85
937,246	32,15
937,637	31,97
938,027	31,92
938,417	31,8
938,808	31,99
939,198	32,17
939,588	31,93
939,978	32,52
940,368	32,09
940,757	31,92
941,147	32,19
941,537	31,8
941,926	31,79
942,315	31,71
942,705	31,71
943,094	31,95
943,483	32,12
943,872	32,09
944,261	32,06
944,65	32,16
945,039	31,63
945,428	31,67
945,816	31,47
946,205	31,65
946,593	32,13
946,982	31,87
947,37	31,54
947,758	31,65
948,146	31,56
948,534	31,44
948,922	32,42
949,31	31,81
949,698	31,58
950,086	31,66
950,473	31,9
950,861	31,26
951,248	31,65
951,636	31,52
952,023	31,89
952,41	31,56
952,797	31,66
953,184	31,72
953,571	31,58
953,958	31,3
954,345	31,34
954,731	32,06
955,118	31,77
955,505	31,8
955,891	31,42
956,277	31,23
956,664	31,41
957,05	31,34
957,436	31,4
957,822	31,28
958,208	31,35
958,594	31,39
958,979	31,61
959,365	31,54
959,751	31,55
960,136	31,29
960,522	31,44
960,907	31,61
961,292	31,37
961,677	31,39
962,062	31,29
962,447	31,44
962,832	31,49
963,217	31,6
963,602	31,52
963,986	31,44
964,371	31,59
964,756	31,37
965,14	31,25
965,524	31,4
965,908	31,23
966,293	31,27
966,677	31,29
967,061	31,24
967,445	31,25
967,828	31,12
968,212	31,43
968,596	31,3
968,979	31,59
969,363	31,25
969,746	31,29
970,129	31,59
970,513	31,42
970,896	31,37
971,279	31,33
971,662	31,39
972,045	31,1
972,428	31,14
972,81	31,4
973,193	31,17
973,575	31,56
973,958	31,57
974,34	31,43
974,723	31,23
975,105	31,43
975,487	31,24
975,869	31,3
976,251	31,29
976,633	31,41
977,015	31,44
977,396	31,41
977,778	31,46
978,16	31,41
978,541	31,39
978,922	31,58
979,304	31,38
979,685	31,33
980,066	31,11
980,447	31,44
980,828	31,6
981,209	31,35
981,59	31,16
981,97	31,52
982,351	31,57
982,732	31,22
983,112	31,43
983,493	31,36
983,873	31,23
984,253	31,42
984,633	31,29
985,013	31,25
985,393	31,31
985,773	31,19
986,153	31,33
986,533	31,46
986,912	31,53
987,292	31,4
987,671	31,32
988,051	31,41
988,43	31,53
988,809	31,48
989,188	31,41
989,567	31,29
989,946	31,43
990,325	31,28
990,704	31,41
991,083	31,65
991,461	31,29
991,84	31,3
992,218	31,36
992,597	31,66
992,975	31,68
993,353	31,49
993,732	31,82
994,11	31,46
994,488	31,48
994,866	31,47
995,243	31,57
995,621	31,14
995,999	31,44
996,376	31,41
996,754	31,55
997,131	31,43
997,509	31,06
997,886	31,81
998,263	31,82
998,64	31,51
999,017	31,31
999,394	31,19
999,771	31,51
1000,148	31,48
1000,524	31,76
1000,901	31,35
1001,277	31,53
1001,654	31,02
1002,03	31,3
1002,406	31,38
1002,783	31,42
1003,159	31,6
1003,535	31,38
1003,911	31,55
1004,286	31,5
1004,662	31,35
1005,038	31,14
1005,414	31,83
1005,789	31,18
1006,164	31,31
1006,54	31,52
1006,915	31,37
1007,29	31,21
1007,665	31,63
1008,04	31,21
1008,415	31,56
1008,79	31,41
1009,165	31,55
1009,54	31,24
1009,914	31,45
1010,289	31,16
1010,663	31,55
1011,038	31,59
1011,412	31,53
1011,786	31,51
1012,16	31,54
1012,535	31,21
1012,909	31,46
1013,282	31,53
1013,656	31,25
1014,03	31,33
1014,404	31,53
1014,777	31,23
1015,151	31,41
1015,524	31,38
1015,897	31,76
1016,271	31,46
1016,644	31,58
1017,017	31,49
1017,39	31,2
1017,763	31,52
1018,136	31,33
1018,508	31,56
1018,881	32,02
1019,254	31,19
1019,626	31,29
1019,999	31,98
1020,371	31,29
1020,743	31,48
1021,116	31,76
1021,488	31,62
1021,86	31,48
1022,232	31,22
1022,604	31,61
1022,975	31,7
1023,347	31,4
1023,719	31,45
1024,09	31,51
1024,462	31,58
1024,833	31,5
1025,204	31,62
1025,576	31,43
1025,947	31,19
1026,318	31,08
1026,689	31,97
1027,06	31,49
1027,431	31,15
1027,801	31,13
1028,172	31,62
1028,543	31,43
1028,913	31,6
1029,284	31,23
1029,654	31,51
1030,024	31,24
1030,394	31,65
1030,764	31,19
1031,135	31,62
1031,504	31,57
1031,874	31,71
1032,244	31,54
1032,614	31,7
1032,983	31,21
1033,353	31,17
1033,722	31,42
1034,092	31,85
1034,461	31,32
1034,83	31,71
1035,2	31,45
1035,569	32,03
1035,938	31,59
1036,307	31,79
1036,675	31,54
1037,044	31,15
1037,413	32,03
1037,781	31,25
1038,15	31,62
1038,518	31,41
1038,887	31,37
1039,255	31,5
1039,623	31,62
1039,991	32,04
1040,359	31,56
1040,727	31,55
1041,095	31,39
1041,463	32,26
1041,831	31,11
1042,198	31,41
1042,566	32,06
1042,933	30,98
1043,301	31,72
1043,668	31,82
1044,035	31,12
1044,402	31,88
1044,77	31,31
1045,137	31,31
1045,503	31,76
1045,87	31,57
1046,237	31,64
1046,604	30,76
1046,97	31,61
1047,337	31,72
1047,703	31,39
1048,07	31,52
1048,436	31,02
1048,802	30,82
1049,168	30,72
1049,534	31,47
1049,9	31,34
1050,266	32,18
1050,632	31,38
1050,998	31,14
1051,364	30,89
1051,729	31,66
1052,095	32,06
1052,46	30,85
1052,825	31,21
1053,191	30,8
1053,556	31,44
1053,921	30,79
1054,286	31,83
1054,651	32,73
1055,016	31,91
1055,381	31,46
1055,745	32,13
1056,11	31,54
1056,475	32
1056,839	30,94
1057,203	31,32
1057,568	31,74
1057,932	30,58
1058,296	31,54
1058,66	30,74
1059,024	31,56
1059,388	31,7
1059,752	31,6
1060,116	31,21
1060,48	31,77
1060,843	31,09
1061,207	31,49
1061,57	31,61
1061,934	31,27
1062,297	30,96
1062,66	31,19
1063,023	31,92
1063,386	31,87
1063,749	31,25
1064,112	31,69
1064,475	31,39
1064,838	31,3
1065,201	30,78
1065,563	32,24
1065,926	31,21
1066,288	31,65
1066,651	31,11
1067,013	31,01
1067,375	32,32
1067,737	31,31
1068,099	31,41
1068,461	30,88
1068,823	31,4
1069,185	31,16
1069,547	31,36
1069,909	30,75
1070,27	31,07
1070,632	31,17
1070,993	31,43
1071,355	30,97
1071,716	31,91
1072,077	30,62
1072,438	30,91
1072,799	31,6
1073,16	31,11
1073,521	30,58
1073,882	31,14
1074,243	32,16
1074,603	31,75
1074,964	31,49
1075,325	31,36
1075,685	32,06
1076,045	31,57
1076,406	31,51
1076,766	30,37
1077,126	31,7
1077,486	30,98
1077,846	31,65
1078,206	30,4
1078,566	30,97
1078,925	31,37
1079,285	31,61
1079,645	31,49
1080,004	31,16
1080,364	32,02
1080,723	30,98
1081,082	31,26
1081,442	31,98
1081,801	31,7
1082,16	31,57
1082,519	31,71
1082,878	30,69
1083,237	30,96
1083,595	30,81
1083,954	31,47
1084,313	31,26
1084,671	30,97
1085,03	31,03
1085,388	31,26
1085,746	31,41
1086,104	31,17
1086,463	32,02
1086,821	31,5
1087,179	31,46
1087,537	31,3
1087,894	30,75
1088,252	31,62
1088,61	31,86
1088,967	31,44
1089,325	31,44
1089,682	30,84
1090,04	31,73
1090,397	30,67
1090,754	32,28
1091,111	31,47
1091,469	31,41
1091,826	31,44
1092,182	31,19
1092,539	31,59
1092,896	30,66
1093,253	30,66
1093,609	30,68
1093,966	31,38
1094,322	31,36
1094,679	29,96
1095,035	31,4
1095,391	31,21
1095,748	31,31
1096,104	31,1
1096,46	29,59
1096,816	31,34
1097,171	32,3
1097,527	30,61
1097,883	29,99
1098,239	31,2
1098,594	32,29
1098,95	31,76
1099,305	32,08
1099,66	31,33
1100,016	30,61
1100,371	30,92
1100,726	30,36
1101,081	31,09
1101,436	31,72
1101,791	30,51
1102,146	31,44
1102,5	30,65
1102,855	31
1103,21	31,91
1103,564	30,79
1103,918	29,88
1104,273	31,24
1104,627	30,7
1104,981	31,78
1105,335	30,12
1105,69	30,75
1106,043	30,97
1106,397	30,52
1106,751	30,85
1107,105	31,28
1107,459	30,22
1107,812	31,14
1108,166	30,59
1108,519	29,71
1108,873	30,36
1109,226	30,52
1109,579	30,23
1109,932	30,6
1110,285	29,84
1110,638	31,49
1110,991	31,1
1111,344	31,41
1111,697	31,42
1112,05	31,31
1112,402	31,42
1112,755	30,04
1113,107	29,95
1113,46	29,88
1113,812	28,9
1114,164	31,9
1114,517	30,38
1114,869	29,78
1115,221	18,75
1115,573	33,51
1115,924	23,47
