Data from D_5_0_Relative__2__00093.txt Node

Date: Mon Jan 29 12:58:12 CET 2024
User: diatiterra
Spectrometer: HDX00911
Trigger mode: 0
Integration Time (sec): 6,000000E-3
Scans to average: 2
Nonlinearity correction enabled: false
Boxcar width: 0
Storing dark spectrum: false
XAxis mode: Wavelengths
Number of Pixels in Spectrum: 2068
>>>>>Begin Spectral Data<<<<<
194,468	28,05
195,025	25,13
195,581	50,58
196,138	50,88
196,694	47,87
197,251	45,09
197,807	40,86
198,363	35,21
198,919	39,19
199,474	37,33
200,03	40,4
200,586	42,83
201,141	39,74
201,696	43,44
202,251	40,33
202,806	31,62
203,361	38,4
203,916	39,87
204,471	43,76
205,025	37,63
205,58	44,52
206,134	34,29
206,688	46,64
207,242	33,33
207,796	39,59
208,35	51,03
208,904	45,31
209,457	46,24
210,011	42,07
210,564	46,36
211,117	42,36
211,67	45,67
212,223	44,97
212,776	43,35
213,329	46,46
213,881	41,48
214,434	39,88
214,986	45,8
215,538	45,35
216,09	42,89
216,642	44,11
217,194	41,25
217,746	50,64
218,297	41,63
218,849	42,06
219,4	41,75
219,951	43,11
220,502	41,11
221,053	36,34
221,604	43,96
222,155	31,72
222,705	34,03
223,256	45,77
223,806	42,14
224,356	39,53
224,906	44,86
225,456	41,89
226,006	48,41
226,556	42,17
227,106	49,55
227,655	41,15
228,204	39,6
228,754	45,38
229,303	49,45
229,852	46,65
230,401	42,34
230,949	42,86
231,498	42,89
232,047	40,47
232,595	43,72
233,143	43,17
233,691	48,36
234,239	39,29
234,787	42,95
235,335	42,37
235,883	39,11
236,43	40,08
236,978	48,38
237,525	31,47
238,072	47,93
238,619	42,99
239,166	46,14
239,713	39,54
240,26	45,44
240,806	48,7
241,353	37,01
241,899	49,34
242,445	42,68
242,991	50,54
243,537	42,39
244,083	44,4
244,629	47,67
245,174	44,98
245,72	40,44
246,265	46,85
246,81	44,02
247,355	48
247,9	50,33
248,445	36,46
248,99	39,84
249,534	43,54
250,079	35,56
250,623	38,16
251,168	40,94
251,712	40,43
252,256	34,62
252,8	43,57
253,343	32,46
253,887	45,11
254,43	42,7
254,974	40,71
255,517	33,26
256,06	52,32
256,603	37,27
257,146	39,91
257,689	45,24
258,232	43,99
258,774	40,35
259,317	48,31
259,859	41,91
260,401	38,53
260,943	39,78
261,485	41,33
262,027	38,95
262,569	35
263,11	47,65
263,652	37,18
264,193	44,69
264,734	34,4
265,275	41,55
265,816	45,49
266,357	44,44
266,898	32,19
267,438	45,87
267,979	46,02
268,519	33,04
269,059	41,59
269,6	38,6
270,14	37,39
270,68	45,34
271,219	37,55
271,759	41,57
272,298	38,31
272,838	38,07
273,377	42,18
273,916	44,07
274,455	32,29
274,994	40,09
275,533	41,57
276,072	42,7
276,61	43,61
277,149	41,26
277,687	34,32
278,225	34,62
278,763	33,03
279,301	38,44
279,839	35,91
280,377	37,2
280,914	38,05
281,452	38,76
281,989	37,8
282,526	34,98
283,064	34,48
283,601	33,87
284,137	41,43
284,674	43,45
285,211	36,17
285,747	36,28
286,284	35,39
286,82	42,14
287,356	43,05
287,892	27,21
288,428	33,48
288,964	52,71
289,5	32,81
290,035	34,88
290,571	41,71
291,106	39,85
291,641	43,64
292,176	38,63
292,711	39,69
293,246	39,91
293,781	36,57
294,315	27,18
294,85	36,95
295,384	37,3
295,918	37,33
296,453	39,62
296,987	32,94
297,52	44,08
298,054	37,36
298,588	41,52
299,121	37,69
299,655	34,62
300,188	30,52
300,721	35,12
301,254	36,76
301,787	38,01
302,32	40,55
302,853	38,11
303,385	40,53
303,918	33,85
304,45	35,96
304,982	37,56
305,514	43,29
306,046	37,2
306,578	35,7
307,11	45,45
307,641	27,68
308,173	40
308,704	43,75
309,236	41,36
309,767	36,47
310,298	41,69
310,829	37,56
311,359	40,89
311,89	35,89
312,421	37,44
312,951	44,19
313,481	31,34
314,012	41,16
314,542	38,59
315,072	29,9
315,601	32,88
316,131	45,31
316,661	32,61
317,19	43,21
317,72	37,62
318,249	38,83
318,778	31,86
319,307	40,47
319,836	34,41
320,365	41,94
320,893	49,1
321,422	41,71
321,95	39,78
322,479	38,83
323,007	41,06
323,535	41,63
324,063	36,88
324,591	34,52
325,118	43,08
325,646	33,49
326,173	36,76
326,701	45
327,228	42,27
327,755	34,21
328,282	39,04
328,809	43,05
329,336	31,64
329,862	42,5
330,389	37,01
330,915	34,09
331,441	31,24
331,968	36,87
332,494	36
333,02	35,05
333,545	37,22
334,071	42,63
334,597	36,06
335,122	40,98
335,648	31,7
336,173	24,08
336,698	40,37
337,223	28,63
337,748	42,44
338,272	29,08
338,797	32,97
339,322	32,81
339,846	35,53
340,37	42,53
340,894	38,53
341,419	38,03
341,942	37,73
342,466	40,5
342,99	40,25
343,514	33,54
344,037	25,6
344,56	33,4
345,084	34,85
345,607	38,99
346,13	31,68
346,653	32,01
347,175	26,7
347,698	39,88
348,221	36,31
348,743	32,71
349,265	34,61
349,787	37,01
350,309	39,83
350,831	32,59
351,353	38,04
351,875	34,9
352,397	32
352,918	39,25
353,439	38,99
353,961	34,45
354,482	39,39
355,003	35,02
355,524	35,21
356,044	39,49
356,565	36,78
357,086	40,63
357,606	37,16
358,126	39,02
358,646	35,14
359,167	32,61
359,687	36,16
360,206	34,56
360,726	35,07
361,246	42,5
361,765	34,58
362,285	35,2
362,804	40,87
363,323	38,34
363,842	40,05
364,361	36,36
364,88	35,66
365,398	32,24
365,917	35,46
366,435	31,49
366,954	34,41
367,472	33,25
367,99	40,08
368,508	37,48
369,026	32,8
369,544	30,73
370,061	34,77
370,579	33,07
371,096	31,91
371,613	37,77
372,131	37,84
372,648	35,84
373,165	37,94
373,681	29,93
374,198	33,41
374,715	34,75
375,231	34,87
375,747	28,26
376,264	30,98
376,78	35,48
377,296	32,42
377,812	33,85
378,327	32,81
378,843	32,22
379,359	32,73
379,874	32,5
380,389	30,72
380,905	35,29
381,42	32,11
381,935	29,16
382,449	32,62
382,964	29,66
383,479	30,15
383,993	27,31
384,508	31,13
385,022	32,04
385,536	31,79
386,05	30,68
386,564	30,37
387,078	30,75
387,592	31,04
388,105	28,84
388,619	29,1
389,132	26,82
389,645	26,64
390,158	29,5
390,671	27,19
391,184	26,54
391,697	24,68
392,21	26,16
392,722	26,45
393,235	25,28
393,747	26,34
394,259	27,67
394,771	26,89
395,283	26,25
395,795	26,23
396,307	25,61
396,818	26,35
397,33	26,24
397,841	23,55
398,353	25,68
398,864	25,53
399,375	25,89
399,886	24,38
400,397	23,66
400,907	24,43
401,418	23,15
401,928	21,61
402,439	20,73
402,949	21,45
403,459	19,99
403,969	19,31
404,479	18,79
404,989	19,05
405,498	19,17
406,008	19,73
406,517	19,6
407,027	17,98
407,536	16,45
408,045	16,52
408,554	16,61
409,063	15,9
409,572	15,52
410,08	14,45
410,589	14,93
411,097	14,7
411,606	14,43
412,114	13,66
412,622	14,18
413,13	12,33
413,638	12,68
414,145	12,71
414,653	12,28
415,16	12,14
415,668	11,94
416,175	10,75
416,682	11,53
417,189	11,39
417,696	11,56
418,203	11,05
418,71	10,51
419,216	10,71
419,723	10,28
420,229	9,92
420,735	9,44
421,242	10,4
421,748	9,35
422,254	10,17
422,759	9,75
423,265	9,56
423,771	9,59
424,276	9,75
424,781	9,13
425,287	9,6
425,792	9,08
426,297	9,36
426,802	9,65
427,306	9,55
427,811	9,09
428,316	9,22
428,82	9,31
429,324	8,73
429,829	9,21
430,333	9,02
430,837	8,97
431,34	9,08
431,844	8,5
432,348	8,74
432,851	9,09
433,355	9,03
433,858	8,76
434,361	8,98
434,864	8,95
435,367	8,64
435,87	8,65
436,373	8,62
436,876	8,83
437,378	8,61
437,88	8,52
438,383	8,22
438,885	8,65
439,387	8,34
439,889	8,89
440,391	8,42
440,892	8,93
441,394	8,49
441,896	8,87
442,397	8,78
442,898	8,51
443,399	9,15
443,9	8,88
444,401	8,67
444,902	8,82
445,403	8,63
445,903	9,3
446,404	8,99
446,904	8,53
447,405	8,71
447,905	8,99
448,405	9,1
448,905	8,96
449,404	9,18
449,904	8,2
450,404	8,59
450,903	8,76
451,403	8,78
451,902	9,03
452,401	8,68
452,9	9
453,399	9,09
453,898	8,95
454,396	8,89
454,895	9,02
455,393	8,81
455,892	9,15
456,39	9,12
456,888	9,11
457,386	9,27
457,884	9,11
458,382	8,9
458,879	8,91
459,377	9,01
459,874	9,09
460,372	9,19
460,869	9,15
461,366	9,59
461,863	9,02
462,36	8,89
462,857	9
463,353	8,91
463,85	9,15
464,346	8,38
464,843	8,83
465,339	8,91
465,835	8,98
466,331	8,97
466,827	9,12
467,323	9,42
467,818	8,96
468,314	9,3
468,809	9,08
469,305	9,16
469,8	9,32
470,295	9,22
470,79	9,09
471,285	8,88
471,78	9,11
472,274	9,05
472,769	8,97
473,263	9,31
473,758	9,14
474,252	9,13
474,746	9,05
475,24	8,97
475,734	8,79
476,228	9,19
476,721	8,85
477,215	9,07
477,708	9,36
478,202	9,2
478,695	9,12
479,188	8,99
479,681	9,23
480,174	9,29
480,667	9,27
481,159	8,92
481,652	9,07
482,144	9,01
482,637	9,58
483,129	9,53
483,621	9,17
484,113	8,63
484,605	9,21
485,097	9,37
485,588	9,34
486,08	9
486,571	9,25
487,063	9,17
487,554	9,3
488,045	9,06
488,536	9,44
489,027	9,57
489,518	9,88
490,008	9,84
490,499	9,45
490,989	9,29
491,48	9,34
491,97	9,44
492,46	9,41
492,95	9,75
493,44	9,41
493,93	9,76
494,419	9,99
494,909	9,87
495,398	9,82
495,888	9,93
496,377	10,13
496,866	9,87
497,355	9,69
497,844	10,26
498,333	10,06
498,821	10,1
499,31	10,37
499,798	10,04
500,287	10,48
500,775	10,44
501,263	10,58
501,751	10,76
502,239	10,64
502,727	10,79
503,215	10,91
503,702	11,16
504,19	11,12
504,677	11,11
505,164	11,22
505,651	11,56
506,139	11,65
506,625	11,76
507,112	11,7
507,599	11,97
508,086	12,29
508,572	12,8
509,058	12,65
509,545	12,53
510,031	12,67
510,517	12,67
511,003	12,98
511,489	13,56
511,974	13,73
512,46	14,05
512,946	14,24
513,431	14,32
513,916	14,35
514,401	14,86
514,887	15,09
515,371	15,35
515,856	15,72
516,341	15,81
516,826	16,12
517,31	16,21
517,795	16,69
518,279	16,73
518,763	17,11
519,247	17,54
519,731	17,69
520,215	18,02
520,699	18,51
521,182	18,91
521,666	19,13
522,149	19,71
522,633	19,69
523,116	19,95
523,599	19,85
524,082	20,34
524,565	20,88
525,048	21,28
525,53	21,33
526,013	21,81
526,495	22,13
526,978	22,46
527,46	22,48
527,942	22,66
528,424	22,55
528,906	23,44
529,388	23,24
529,87	23,53
530,351	23,9
530,833	23,83
531,314	24,07
531,795	24,48
532,277	24,17
532,758	24,86
533,238	24,78
533,719	25,01
534,2	24,94
534,681	25,06
535,161	25,3
535,642	25,52
536,122	25,28
536,602	25,5
537,082	25,67
537,562	25,66
538,042	25,38
538,522	26,1
539,001	25,92
539,481	26,15
539,96	25,93
540,44	26,04
540,919	26,48
541,398	26,3
541,877	26,18
542,356	26,29
542,835	26,37
543,313	26,53
543,792	26,31
544,27	26,64
544,749	26,38
545,227	26,53
545,705	26,65
546,183	26,32
546,661	26,45
547,139	26,78
547,616	26,62
548,094	26,53
548,571	27
549,049	27,07
549,526	27,35
550,003	26,85
550,48	26,96
550,957	27,02
551,434	27,07
551,911	26,97
552,387	27,25
552,864	26,96
553,34	26,77
553,817	27,11
554,293	27,25
554,769	27,29
555,245	27,15
555,721	27,21
556,197	27,16
556,672	26,59
557,148	26,95
557,623	26,99
558,099	26,69
558,574	26,98
559,049	27,15
559,524	26,73
559,999	26,1
560,474	26,46
560,948	26,07
561,423	26,32
561,897	26,66
562,372	26,43
562,846	25,7
563,32	25,95
563,794	26
564,268	25,86
564,742	25,69
565,216	25,57
565,69	25,44
566,163	25,46
566,636	24,87
567,11	24,83
567,583	24,91
568,056	24,7
568,529	24,57
569,002	24,3
569,475	24,13
569,947	24,29
570,42	23,75
570,892	23,63
571,365	23,58
571,837	23,27
572,309	23,55
572,781	22,74
573,253	22,71
573,725	22,41
574,197	22,48
574,668	21,92
575,14	22,18
575,611	22,01
576,082	21,63
576,554	21,61
577,025	21,2
577,496	21,29
577,967	21,19
578,437	21,18
578,908	20,76
579,379	20,36
579,849	20,42
580,319	20,63
580,79	20,42
581,26	20,47
581,73	19,83
582,2	19,85
582,669	20,07
583,139	19,83
583,609	19,86
584,078	19,44
584,548	19,08
585,017	19,24
585,486	19,15
585,955	19,09
586,424	19,23
586,893	19
587,362	19,03
587,83	18,92
588,299	18,62
588,767	18,72
589,236	18,52
589,704	18,58
590,172	18,33
590,64	18,17
591,108	18,18
591,576	18,41
592,043	18,07
592,511	17,82
592,978	18,26
593,446	17,84
593,913	18,02
594,38	17,86
594,847	17,73
595,314	17,94
595,781	17,97
596,248	17,7
596,715	17,68
597,181	17,66
597,647	17,83
598,114	17,45
598,58	17,66
599,046	17,68
599,512	17,58
599,978	17,51
600,444	17,58
600,91	17,33
601,375	17,51
601,841	17,6
602,306	17,45
602,771	17,44
603,236	17,1
603,702	16,98
604,167	17,14
604,631	17,18
605,096	17,05
605,561	16,81
606,025	16,62
606,49	16,6
606,954	16,73
607,418	16,51
607,882	16,35
608,347	16,45
608,81	16,13
609,274	16,21
609,738	16,16
610,202	15,92
610,665	16,2
611,128	15,8
611,592	15,62
612,055	15,59
612,518	15,49
612,981	15,36
613,444	15,34
613,907	15,28
614,369	15,11
614,832	15,13
615,294	15,14
615,757	14,97
616,219	14,71
616,681	15,03
617,143	14,84
617,605	14,61
618,067	14,46
618,529	14,64
618,99	14,38
619,452	14,4
619,913	14,14
620,375	14,36
620,836	14,31
621,297	14,38
621,758	14,08
622,219	14,06
622,68	14,09
623,14	13,84
623,601	14,09
624,061	13,88
624,522	13,8
624,982	13,64
625,442	13,83
625,902	13,64
626,362	13,53
626,822	13,56
627,282	13,76
627,742	13,58
628,201	13,73
628,661	13,26
629,12	13,55
629,579	13,59
630,038	13,47
630,497	13,47
630,956	13,52
631,415	13,52
631,874	13,47
632,332	13,15
632,791	13,54
633,249	13,19
633,708	13,29
634,166	13,14
634,624	13,15
635,082	13,23
635,54	13,08
635,998	12,94
636,455	13,02
636,913	12,88
637,37	12,83
637,828	12,74
638,285	12,67
638,742	12,49
639,199	12,39
639,656	12,26
640,113	12,13
640,57	12,18
641,027	12
641,483	12,07
641,94	11,97
642,396	11,97
642,852	11,74
643,309	11,61
643,765	11,64
644,221	11,47
644,676	11,27
645,132	11,33
645,588	11,13
646,043	11,11
646,499	11,1
646,954	10,87
647,409	10,69
647,864	10,83
648,319	10,57
648,774	10,52
649,229	10,5
649,684	10,64
650,139	10,4
650,593	10,51
651,047	10,32
651,502	10,37
651,956	10,34
652,41	10,24
652,864	10,11
653,318	10,12
653,772	10,07
654,225	9,79
654,679	9,97
655,133	9,86
655,586	9,82
656,039	9,95
656,492	9,97
656,946	9,74
657,399	9,8
657,851	9,7
658,304	9,72
658,757	9,71
659,209	9,57
659,662	9,5
660,114	9,47
660,567	9,52
661,019	9,48
661,471	9,3
661,923	9,31
662,375	9,22
662,826	9,32
663,278	9,3
663,73	9,12
664,181	9,14
664,632	9,14
665,084	9,18
665,535	9,15
665,986	9,17
666,437	9,21
666,888	9,21
667,338	9,08
667,789	9,01
668,24	9,18
668,69	9,14
669,14	9,24
669,591	9,17
670,041	9,17
670,491	9,2
670,941	9,35
671,391	9,39
671,84	9,44
672,29	9,47
672,74	9,6
673,189	9,77
673,638	9,77
674,088	9,79
674,537	9,88
674,986	10
675,435	10,04
675,883	10,22
676,332	10,18
676,781	10,27
677,229	10,42
677,678	10,54
678,126	10,64
678,574	10,86
679,022	10,89
679,47	10,94
679,918	11,02
680,366	11,13
680,814	11,37
681,261	11,52
681,709	11,49
682,156	11,62
682,604	11,67
683,051	11,8
683,498	12,03
683,945	12,18
684,392	12,08
684,839	12,17
685,286	12,47
685,732	12,45
686,179	12,43
686,625	12,62
687,071	12,71
687,518	12,76
687,964	12,81
688,41	13,13
688,856	13,02
689,301	13,41
689,747	13,46
690,193	13,53
690,638	13,93
691,084	14,25
691,529	14,54
691,974	14,91
692,419	15,26
692,864	15,57
693,309	15,93
693,754	16,44
694,199	16,74
694,643	17,3
695,088	17,58
695,532	18,31
695,977	18,72
696,421	19,31
696,865	19,71
697,309	20,3
697,753	20,79
698,197	21,24
698,64	21,94
699,084	22,34
699,527	22,91
699,971	23,54
700,414	23,79
700,857	24,34
701,3	24,86
701,743	25,37
702,186	26,1
702,629	26,52
703,072	26,78
703,515	27,45
703,957	27,97
704,399	28,41
704,842	29,01
705,284	29,46
705,726	29,76
706,168	30,09
706,61	30,82
707,052	31,37
707,494	31,86
707,935	32,1
708,377	32,48
708,818	32,91
709,26	33,17
709,701	33,58
710,142	33,78
710,583	34,5
711,024	34,82
711,465	35,11
711,905	35,72
712,346	35,93
712,787	36,53
713,227	36,66
713,667	37,16
714,108	37,54
714,548	37,75
714,988	38,29
715,428	38,55
715,868	38,91
716,307	39,04
716,747	39,47
717,186	40,05
717,626	40,29
718,065	40,43
718,504	40,97
718,944	41,41
719,383	41,21
719,822	41,64
720,261	41,94
720,699	42,14
721,138	42,74
721,576	42,56
722,015	43,07
722,453	43,15
722,892	43,44
723,33	43,98
723,768	43,78
724,206	44,09
724,644	44,22
725,081	44,62
725,519	45,06
725,957	45,23
726,394	45,18
726,832	45,26
727,269	45,52
727,706	45,79
728,143	45,82
728,58	45,87
729,017	46,2
729,454	46,33
729,89	46,41
730,327	46,37
730,764	46,72
731,2	46,8
731,636	46,73
732,072	47,03
732,509	47,37
732,945	47,07
733,38	46,97
733,816	47,39
734,252	47,42
734,688	47,24
735,123	47,6
735,559	47,59
735,994	47,76
736,429	48
736,864	47,63
737,299	47,88
737,734	48,09
738,169	48,06
738,604	48,12
739,038	48,22
739,473	48,16
739,907	48,13
740,342	47,91
740,776	48,15
741,21	47,97
741,644	48,07
742,078	48,11
742,512	48,01
742,946	47,98
743,379	47,9
743,813	48,18
744,246	48,39
744,68	48,26
745,113	48,46
745,546	48,38
745,979	48,36
746,412	47,93
746,845	48,41
747,278	48,08
747,711	48,24
748,143	48,02
748,576	48,13
749,008	48,18
749,441	47,99
749,873	47,84
750,305	48,05
750,737	47,91
751,169	47,98
751,601	47,91
752,032	47,82
752,464	47,65
752,896	47,76
753,327	47,47
753,758	47,62
754,19	47,59
754,621	47,53
755,052	47,64
755,483	47,37
755,914	47,55
756,344	47,29
756,775	47,4
757,206	47,2
757,636	47,31
758,066	47,15
758,497	47,08
758,927	47,27
759,357	46,97
759,787	47,3
760,217	47,04
760,647	47,04
761,076	47,45
761,506	46,97
761,935	46,95
762,365	47,02
762,794	46,89
763,223	46,32
763,653	46,95
764,082	46,46
764,51	46,59
764,939	46,71
765,368	46,47
765,797	46,59
766,225	46,51
766,654	46,96
767,082	46,44
767,51	46,6
767,938	46,32
768,367	46,51
768,795	46,33
769,222	46,03
769,65	46,22
770,078	46,53
770,505	46,49
770,933	46,16
771,36	46,26
771,788	46,43
772,215	46,24
772,642	46,2
773,069	46,18
773,496	46,15
773,923	46,03
774,349	46,34
774,776	46,29
775,203	46,16
775,629	46,06
776,055	45,83
776,482	45,77
776,908	46,34
777,334	45,99
777,76	45,78
778,186	46,05
778,611	45,56
779,037	46,02
779,463	45,79
779,888	45,82
780,314	46,06
780,739	45,67
781,164	45,76
781,589	45,72
782,014	45,72
782,439	45,62
782,864	45,59
783,289	45,51
783,713	45,77
784,138	45,72
784,562	45,42
784,987	45,82
785,411	45,85
785,835	45,69
786,259	45,62
786,683	45,59
787,107	45,52
787,531	45,51
787,954	45,61
788,378	45,47
788,802	45,25
789,225	45,6
789,648	45,49
790,071	45,53
790,495	45,38
790,918	45,07
791,34	45,64
791,763	45,5
792,186	45,33
792,609	45,53
793,031	45,06
793,454	45,47
793,876	45,41
794,298	45,36
794,721	45,41
795,143	45,17
795,565	45,24
795,986	45,12
796,408	45,06
796,83	45,2
797,252	45,6
797,673	45,38
798,094	45,43
798,516	45,27
798,937	45,12
799,358	45,23
799,779	45,38
800,2	45,06
800,621	45,03
801,042	45,26
801,462	45
801,883	44,79
802,303	45,14
802,724	44,99
803,144	45,21
803,564	45,25
803,984	45,02
804,404	45,15
804,824	44,96
805,244	45,08
805,664	45,16
806,084	45,3
806,503	45,18
806,923	45,15
807,342	45,13
807,761	45,11
808,18	45,02
808,599	45,08
809,018	45,05
809,437	45,19
809,856	45
810,275	45,14
810,693	45,05
811,112	45,06
811,53	45,01
811,949	45,02
812,367	44,83
812,785	45,01
813,203	45,16
813,621	44,97
814,039	44,7
814,457	44,97
814,874	44,87
815,292	44,91
815,709	44,93
816,127	44,96
816,544	45,18
816,961	44,72
817,378	44,94
817,795	44,96
818,212	45,06
818,629	44,74
819,046	45,18
819,462	45,09
819,879	44,86
820,295	44,76
820,712	44,92
821,128	44,93
821,544	44,82
821,96	45,01
822,376	44,84
822,792	44,78
823,208	44,83
823,624	44,77
824,039	44,72
824,455	44,79
824,87	44,99
825,286	44,82
825,701	44,62
826,116	44,73
826,531	44,66
826,946	44,73
827,361	44,91
827,776	44,6
828,19	44,76
828,605	44,86
829,02	44,65
829,434	44,85
829,848	44,63
830,263	44,73
830,677	44,63
831,091	44,83
831,505	44,73
831,919	44,63
832,332	44,82
832,746	45
833,16	44,48
833,573	44,63
833,987	44,74
834,4	44,43
834,813	44,62
835,226	44,82
835,639	44,29
836,052	44,55
836,465	44,57
836,878	44,85
837,29	44,79
837,703	44,46
838,116	44,44
838,528	44,47
838,94	44,76
839,352	44,75
839,765	44,43
840,177	44,24
840,589	44,49
841	44,66
841,412	44,39
841,824	44,31
842,235	44,25
842,647	44,41
843,058	44,61
843,47	44,41
843,881	44,48
844,292	44,3
844,703	44,3
845,114	44,47
845,525	44,12
845,935	44,48
846,346	43,94
846,757	44,88
847,167	44,41
847,577	44,26
847,988	44,31
848,398	44,73
848,808	44,62
849,218	44,49
849,628	44,4
850,038	44,25
850,448	44,32
850,857	44,45
851,267	44,16
851,676	44,57
852,086	44,1
852,495	44,72
852,904	44,31
853,313	44,39
853,722	44,29
854,131	44,46
854,54	44
854,949	44,07
855,357	44,1
855,766	44,03
856,174	44,6
856,583	44,39
856,991	44,46
857,399	44,59
857,807	44,2
858,215	44,11
858,623	44,25
859,031	44,08
859,439	44,2
859,846	44,23
860,254	44,12
860,661	44,01
861,069	44
861,476	44,28
861,883	43,96
862,29	44,33
862,697	44,15
863,104	43,96
863,511	44,1
863,918	44,17
864,325	44,27
864,731	44,16
865,138	44,03
865,544	44,17
865,95	44,26
866,357	44,36
866,763	44,58
867,169	44,07
867,575	43,91
867,98	44,11
868,386	44,16
868,792	44,19
869,197	43,66
869,603	44,27
870,008	44,37
870,414	43,89
870,819	43,68
871,224	43,93
871,629	43,99
872,034	44,04
872,439	43,9
872,844	43,93
873,248	44
873,653	44,18
874,057	43,96
874,462	43,97
874,866	44,01
875,27	44,1
875,674	43,78
876,078	43,96
876,482	44,32
876,886	43,74
877,29	44,12
877,694	44,05
878,097	43,76
878,501	44,18
878,904	44
879,308	43,91
879,711	43,89
880,114	44,15
880,517	43,99
880,92	44,07
881,323	43,99
881,726	43,97
882,128	44,15
882,531	43,54
882,934	44
883,336	43,48
883,738	43,75
884,141	44,28
884,543	43,6
884,945	43,95
885,347	44
885,749	43,72
886,151	43,84
886,552	43,77
886,954	44,06
887,355	43,96
887,757	43,63
888,158	43,57
888,56	43,68
888,961	44,02
889,362	43,65
889,763	43,74
890,164	43,72
890,565	43,38
890,965	44,02
891,366	43,78
891,767	43,79
892,167	43,77
892,567	43,73
892,968	43,44
893,368	43,5
893,768	43,73
894,168	43,82
894,568	43,89
894,968	43,75
895,368	43,79
895,767	43,79
896,167	43,45
896,566	43,74
896,966	43,48
897,365	43,9
897,764	43,63
898,164	43,67
898,563	43,76
898,962	43,5
899,361	43,89
899,759	43,78
900,158	43,52
900,557	43,34
900,955	43,79
901,354	43,57
901,752	43,96
902,15	43,67
902,548	43,29
902,947	43,73
903,345	43,66
903,742	43,54
904,14	43,7
904,538	43,52
904,936	43,61
905,333	43,87
905,731	43,62
906,128	43,53
906,525	43,76
906,923	43,54
907,32	43,93
907,717	43,76
908,114	43,58
908,511	43,76
908,907	43,63
909,304	43,37
909,701	43,44
910,097	43,66
910,494	43,94
910,89	44,02
911,286	43,37
911,682	43,54
912,078	43,61
912,474	43,43
912,87	43,41
913,266	43,46
913,662	43,32
914,058	43,97
914,453	43,58
914,849	43,94
915,244	43,67
915,639	43,8
916,034	43,55
916,43	43,5
916,825	42,9
917,22	43,82
917,614	43,27
918,009	43,33
918,404	43,59
918,798	43,61
919,193	43,32
919,587	43,72
919,982	43,53
920,376	43,36
920,77	43,41
921,164	43,21
921,558	43,25
921,952	43,43
922,346	43,28
922,74	43,86
923,133	43,28
923,527	43,51
923,92	43,44
924,314	43,4
924,707	43,57
925,1	43,08
925,493	43,3
925,886	43,28
926,279	43,16
926,672	43,38
927,065	43,73
927,457	43,18
927,85	43,42
928,243	43,5
928,635	43,17
929,027	43,55
929,42	43,41
929,812	43,01
930,204	43,41
930,596	43,51
930,988	43,19
931,379	43,29
931,771	43,63
932,163	43,39
932,554	43,2
932,946	43,41
933,337	42,83
933,729	43,31
934,12	42,84
934,511	42,89
934,902	43,33
935,293	42,69
935,684	43,51
936,075	43,46
936,465	43,28
936,856	42,82
937,246	43,21
937,637	43,36
938,027	42,39
938,417	42,77
938,808	42,87
939,198	43,52
939,588	42,95
939,978	42,61
940,368	43,31
940,757	43,14
941,147	43,44
941,537	43,28
941,926	43,22
942,315	43,44
942,705	43,42
943,094	43,34
943,483	43,24
943,872	42,57
944,261	42,97
944,65	42,68
945,039	42,56
945,428	42,49
945,816	42,51
946,205	42,75
946,593	43,62
946,982	42,76
947,37	42,37
947,758	42,61
948,146	42,37
948,534	41,51
948,922	43,12
949,31	42,8
949,698	42,68
950,086	43,39
950,473	43,01
950,861	42,16
951,248	42,53
951,636	42,62
952,023	41,94
952,41	42,61
952,797	42,33
953,184	42,66
953,571	42,71
953,958	42,82
954,345	42,54
954,731	42,84
955,118	42,63
955,505	42,47
955,891	42,21
956,277	42,58
956,664	41,66
957,05	42,57
957,436	42,53
957,822	42,62
958,208	42,29
958,594	42,55
958,979	42,71
959,365	42,64
959,751	42,45
960,136	42,25
960,522	41,87
960,907	42,19
961,292	41,93
961,677	42,33
962,062	42,23
962,447	41,84
962,832	42,1
963,217	42,23
963,602	42,12
963,986	42,16
964,371	42,23
964,756	42,5
965,14	42,36
965,524	41,85
965,908	41,93
966,293	42,02
966,677	42,07
967,061	41,9
967,445	42,26
967,828	41,85
968,212	42,05
968,596	41,75
968,979	42,29
969,363	41,85
969,746	42,42
970,129	42,06
970,513	41,69
970,896	41,77
971,279	42,15
971,662	41,62
972,045	41,82
972,428	42,02
972,81	41,85
973,193	42,16
973,575	41,83
973,958	42,28
974,34	41,84
974,723	42,18
975,105	41,97
975,487	41,95
975,869	42,4
976,251	42,47
976,633	42,25
977,015	42,2
977,396	42,27
977,778	42,53
978,16	42,13
978,541	41,98
978,922	42,3
979,304	42,34
979,685	41,92
980,066	42,03
980,447	42,59
980,828	42,19
981,209	42,15
981,59	42,11
981,97	41,92
982,351	42,6
982,732	42,17
983,112	42,83
983,493	42,37
983,873	41,78
984,253	42,24
984,633	42,38
985,013	41,8
985,393	42,06
985,773	42,18
986,153	41,73
986,533	42,12
986,912	42,26
987,292	42,41
987,671	42,21
988,051	42,55
988,43	42,01
988,809	41,91
989,188	42,12
989,567	42,24
989,946	42,58
990,325	42,16
990,704	42,17
991,083	41,73
991,461	42,12
991,84	42,32
992,218	42,28
992,597	42,34
992,975	42,33
993,353	42,38
993,732	42,21
994,11	42,46
994,488	42,21
994,866	42,39
995,243	42,53
995,621	41,62
995,999	42
996,376	42,48
996,754	42,3
997,131	41,98
997,509	41,53
997,886	42,45
998,263	42,14
998,64	41,91
999,017	41,59
999,394	42,17
999,771	42,41
1000,148	42
1000,524	42,61
1000,901	42,03
1001,277	42,38
1001,654	42,32
1002,03	42,52
1002,406	42,06
1002,783	42,12
1003,159	42,12
1003,535	41,96
1003,911	41,94
1004,286	42,44
1004,662	42,07
1005,038	42,56
1005,414	42,49
1005,789	42,67
1006,164	42,71
1006,54	42,12
1006,915	42,5
1007,29	41,77
1007,665	43,43
1008,04	42,59
1008,415	42,34
1008,79	42,84
1009,165	42,3
1009,54	42,22
1009,914	42,45
1010,289	42,01
1010,663	42,29
1011,038	42,1
1011,412	42,96
1011,786	42,23
1012,16	42,67
1012,535	42,84
1012,909	42,46
1013,282	42,68
1013,656	42,62
1014,03	41,62
1014,404	42,39
1014,777	42,36
1015,151	42,12
1015,524	43,02
1015,897	42,22
1016,271	42,83
1016,644	43,03
1017,017	41,93
1017,39	42,22
1017,763	42,99
1018,136	42,06
1018,508	42
1018,881	42,79
1019,254	42,53
1019,626	42,16
1019,999	42,4
1020,371	42,27
1020,743	42,21
1021,116	43,07
1021,488	42,1
1021,86	41,83
1022,232	42,65
1022,604	42,63
1022,975	43,15
1023,347	42,61
1023,719	42,26
1024,09	42,65
1024,462	42,73
1024,833	41,97
1025,204	41,92
1025,576	42,25
1025,947	42,32
1026,318	42,49
1026,689	42,72
1027,06	42,7
1027,431	42,16
1027,801	42,14
1028,172	42,59
1028,543	42,69
1028,913	42,54
1029,284	42,8
1029,654	42,05
1030,024	42,03
1030,394	42,38
1030,764	42,23
1031,135	42,27
1031,504	42,51
1031,874	42,48
1032,244	42,18
1032,614	42,39
1032,983	42,4
1033,353	42,14
1033,722	41,75
1034,092	42,98
1034,461	42,29
1034,83	43,22
1035,2	42,38
1035,569	42,55
1035,938	42,34
1036,307	42,17
1036,675	42,16
1037,044	42,39
1037,413	42,48
1037,781	42,41
1038,15	42,41
1038,518	42,46
1038,887	43,41
1039,255	43,06
1039,623	42,65
1039,991	42,18
1040,359	42,91
1040,727	43,22
1041,095	42,95
1041,463	42,26
1041,831	42,5
1042,198	43,27
1042,566	43,25
1042,933	42,11
1043,301	42,61
1043,668	42,29
1044,035	42,74
1044,402	42,56
1044,77	42,36
1045,137	42,48
1045,503	42,12
1045,87	42,33
1046,237	41,52
1046,604	41,73
1046,97	43,26
1047,337	42,84
1047,703	42,76
1048,07	42,22
1048,436	42,83
1048,802	42,35
1049,168	42,25
1049,534	41,6
1049,9	42,87
1050,266	42,17
1050,632	42,27
1050,998	41,74
1051,364	42,23
1051,729	43,99
1052,095	42,86
1052,46	42,7
1052,825	42,12
1053,191	41,93
1053,556	43,38
1053,921	42,35
1054,286	41,72
1054,651	43,76
1055,016	43,34
1055,381	42,59
1055,745	42,71
1056,11	42,1
1056,475	43,13
1056,839	42,25
1057,203	42,74
1057,568	42,31
1057,932	42,53
1058,296	43,02
1058,66	42,09
1059,024	44,02
1059,388	42,35
1059,752	43,51
1060,116	42,27
1060,48	43,62
1060,843	42,42
1061,207	42,81
1061,57	42,04
1061,934	42,41
1062,297	42,21
1062,66	43,17
1063,023	43,85
1063,386	42,78
1063,749	42,14
1064,112	42,44
1064,475	42,5
1064,838	42,89
1065,201	42,65
1065,563	42,5
1065,926	40,9
1066,288	42,39
1066,651	42,87
1067,013	43,31
1067,375	42,3
1067,737	42,03
1068,099	42,46
1068,461	41,86
1068,823	42,85
1069,185	42,62
1069,547	42,59
1069,909	42,5
1070,27	41,96
1070,632	42,16
1070,993	41,86
1071,355	42,03
1071,716	42,83
1072,077	41,58
1072,438	43,04
1072,799	43,74
1073,16	43,76
1073,521	41,55
1073,882	43,35
1074,243	42,14
1074,603	42,59
1074,964	42,35
1075,325	41,68
1075,685	43,57
1076,045	42,85
1076,406	43,62
1076,766	41,49
1077,126	42,01
1077,486	42,35
1077,846	42,63
1078,206	41,46
1078,566	42,25
1078,925	43,53
1079,285	44,94
1079,645	42,72
1080,004	42,75
1080,364	42,07
1080,723	41,2
1081,082	42,21
1081,442	42,35
1081,801	40,87
1082,16	42,2
1082,519	41,72
1082,878	41,77
1083,237	42,06
1083,595	42,71
1083,954	43,18
1084,313	43,32
1084,671	42,83
1085,03	42,3
1085,388	42,19
1085,746	42,57
1086,104	42
1086,463	42,81
1086,821	43,04
1087,179	42,1
1087,537	42,69
1087,894	42,94
1088,252	41,17
1088,61	43,51
1088,967	42,06
1089,325	44,54
1089,682	44,04
1090,04	42,54
1090,397	42,11
1090,754	42,9
1091,111	41,71
1091,469	42,41
1091,826	43,84
1092,182	42,67
1092,539	42,86
1092,896	42,76
1093,253	42,53
1093,609	41,8
1093,966	42,1
1094,322	40,58
1094,679	41,66
1095,035	41,92
1095,391	43,48
1095,748	42,27
1096,104	41,82
1096,46	42,28
1096,816	42,86
1097,171	44,82
1097,527	43,48
1097,883	42,39
1098,239	43,18
1098,594	41,4
1098,95	41,62
1099,305	42,61
1099,66	43,78
1100,016	42,08
1100,371	42,4
1100,726	41,88
1101,081	43,01
1101,436	41,64
1101,791	43,33
1102,146	42,14
1102,5	42,52
1102,855	42,93
1103,21	42,96
1103,564	41,56
1103,918	42,1
1104,273	43,51
1104,627	43,76
1104,981	42,7
1105,335	42,44
1105,69	42,74
1106,043	45,08
1106,397	41,3
1106,751	41,58
1107,105	42,86
1107,459	44,53
1107,812	43,8
1108,166	44,22
1108,519	43,34
1108,873	44,8
1109,226	42,66
1109,579	42,1
1109,932	41,62
1110,285	40,76
1110,638	42,24
1110,991	43,64
1111,344	43,35
1111,697	43,91
1112,05	46,14
1112,402	43,05
1112,755	42,61
1113,107	41,55
1113,46	44,09
1113,812	39,49
1114,164	40,72
1114,517	43,96
1114,869	56,18
1115,221	44,27
1115,573	34,54
1115,924	46,01
