Data from E_2_0_Relative__1__00102.txt Node

Date: Mon Jan 29 12:58:54 CET 2024
User: diatiterra
Spectrometer: HDX00911
Trigger mode: 0
Integration Time (sec): 6,000000E-3
Scans to average: 2
Nonlinearity correction enabled: false
Boxcar width: 0
Storing dark spectrum: false
XAxis mode: Wavelengths
Number of Pixels in Spectrum: 2068
>>>>>Begin Spectral Data<<<<<
194,468	4,88
195,025	11,06
195,581	-0,58
196,138	6,43
196,694	31,4
197,251	15,92
197,807	17,1
198,363	17,06
198,919	19,49
199,474	22,67
200,03	18,32
200,586	17,88
201,141	17,52
201,696	22,8
202,251	15,89
202,806	12,73
203,361	23,63
203,916	26,65
204,471	15,19
205,025	24,73
205,58	19,02
206,134	16,22
206,688	20,17
207,242	12,95
207,796	17,14
208,35	21,87
208,904	24,08
209,457	20
210,011	15,86
210,564	19,33
211,117	25,34
211,67	17,51
212,223	24,84
212,776	21,98
213,329	26,26
213,881	19,3
214,434	11,75
214,986	14,51
215,538	20,58
216,09	15,35
216,642	17,13
217,194	19,17
217,746	19,28
218,297	17,6
218,849	16,74
219,4	21,71
219,951	19,11
220,502	23,55
221,053	14,92
221,604	15,21
222,155	25,75
222,705	20,67
223,256	20,61
223,806	15,72
224,356	17,31
224,906	18,45
225,456	17,47
226,006	20,23
226,556	19,62
227,106	20,98
227,655	16,84
228,204	14,82
228,754	22,38
229,303	19,12
229,852	15,98
230,401	22,07
230,949	23,52
231,498	23,33
232,047	18,2
232,595	20,71
233,143	16,3
233,691	21,72
234,239	20,54
234,787	15,23
235,335	19,14
235,883	17,12
236,43	12,4
236,978	13,66
237,525	16,74
238,072	17,86
238,619	26,17
239,166	18,76
239,713	18,43
240,26	20,12
240,806	20,13
241,353	16,78
241,899	25,55
242,445	13,4
242,991	21,91
243,537	26
244,083	30,29
244,629	21,82
245,174	13,97
245,72	22,22
246,265	21,68
246,81	20,54
247,355	27,29
247,9	25,38
248,445	10,87
248,99	23,41
249,534	28,12
250,079	22,22
250,623	17,87
251,168	14,54
251,712	21,94
252,256	21,29
252,8	23,53
253,343	18,25
253,887	22,55
254,43	19,96
254,974	21,41
255,517	15,35
256,06	24,06
256,603	14,09
257,146	21,35
257,689	22,73
258,232	22,22
258,774	11,63
259,317	13,54
259,859	19,13
260,401	24,24
260,943	22,44
261,485	21,33
262,027	21,88
262,569	18
263,11	20,73
263,652	14,59
264,193	17,79
264,734	16,06
265,275	21,83
265,816	16,48
266,357	12,7
266,898	16,21
267,438	21,1
267,979	15,93
268,519	22,98
269,059	20,56
269,6	29,12
270,14	25,68
270,68	22,88
271,219	23,63
271,759	29,44
272,298	18,71
272,838	22,94
273,377	22,43
273,916	15,44
274,455	7,35
274,994	20,7
275,533	19,4
276,072	18,24
276,61	24,67
277,149	10,68
277,687	23,8
278,225	16,06
278,763	20,81
279,301	23,33
279,839	18,28
280,377	16,82
280,914	21,81
281,452	24,08
281,989	21,1
282,526	16,52
283,064	27,62
283,601	23,67
284,137	16,19
284,674	17,72
285,211	21,79
285,747	18,62
286,284	19,41
286,82	23,46
287,356	17,44
287,892	16,33
288,428	11,16
288,964	15,06
289,5	19,33
290,035	27,37
290,571	17,8
291,106	19,55
291,641	21,36
292,176	16,14
292,711	17,32
293,246	19,72
293,781	16,25
294,315	18,2
294,85	12,61
295,384	18,43
295,918	21,78
296,453	18,4
296,987	12,56
297,52	19,96
298,054	21,25
298,588	15,87
299,121	17,29
299,655	11,54
300,188	16,4
300,721	26,74
301,254	23,52
301,787	14,29
302,32	22,58
302,853	21,37
303,385	28,19
303,918	17,82
304,45	21,93
304,982	22
305,514	22,92
306,046	22,32
306,578	20,59
307,11	18,41
307,641	24,55
308,173	19,55
308,704	20,98
309,236	29,2
309,767	14,35
310,298	26,61
310,829	16,9
311,359	31,07
311,89	21,9
312,421	20,85
312,951	26,98
313,481	18,89
314,012	27,74
314,542	25,41
315,072	10,3
315,601	24,32
316,131	27,92
316,661	20,53
317,19	19,68
317,72	15,24
318,249	18,51
318,778	22,06
319,307	25,41
319,836	20,09
320,365	25,35
320,893	14,47
321,422	18,66
321,95	19,33
322,479	18,96
323,007	19,32
323,535	23,95
324,063	12,77
324,591	16,55
325,118	17,58
325,646	23,58
326,173	28,08
326,701	25,48
327,228	20,91
327,755	7,42
328,282	17,65
328,809	14,79
329,336	20,09
329,862	19,77
330,389	16,32
330,915	17,27
331,441	21,45
331,968	13,73
332,494	19,5
333,02	14,84
333,545	22,74
334,071	15,4
334,597	21,63
335,122	18,71
335,648	4,38
336,173	11,93
336,698	18,35
337,223	15,18
337,748	21,43
338,272	8,58
338,797	8,24
339,322	11,99
339,846	18,51
340,37	15,19
340,894	18,04
341,419	19,96
341,942	12,98
342,466	17,95
342,99	16,18
343,514	11,32
344,037	9,6
344,56	4,25
345,084	14,02
345,607	13,72
346,13	12,21
346,653	15,34
347,175	8,2
347,698	10,81
348,221	15,46
348,743	14,87
349,265	15,13
349,787	14,59
350,309	11,79
350,831	16,72
351,353	19,1
351,875	17,45
352,397	17,33
352,918	16,38
353,439	16,26
353,961	13,95
354,482	12,46
355,003	14,73
355,524	12,35
356,044	12,42
356,565	15,81
357,086	9,45
357,606	14,22
358,126	18,25
358,646	17,73
359,167	14,72
359,687	12,58
360,206	15,07
360,726	15,07
361,246	16,62
361,765	9,9
362,285	10,16
362,804	11,37
363,323	13,9
363,842	15,22
364,361	10,7
364,88	12,5
365,398	13,55
365,917	15,65
366,435	11,7
366,954	9,23
367,472	10,4
367,99	8,69
368,508	13,91
369,026	11,75
369,544	14,15
370,061	11,9
370,579	12,23
371,096	13,87
371,613	14,11
372,131	15,8
372,648	9,8
373,165	12,72
373,681	10,86
374,198	12,31
374,715	10,52
375,231	11,83
375,747	7,46
376,264	11,49
376,78	12,87
377,296	12,13
377,812	12,77
378,327	12,42
378,843	10,27
379,359	7,96
379,874	9,45
380,389	11,62
380,905	12,28
381,42	10,15
381,935	8,8
382,449	12,09
382,964	9,01
383,479	11,97
383,993	8,8
384,508	14,44
385,022	8,08
385,536	5,27
386,05	7,95
386,564	8,14
387,078	10,74
387,592	9,95
388,105	7,8
388,619	7,52
389,132	8,7
389,645	8,72
390,158	9,27
390,671	8,92
391,184	8,47
391,697	8,77
392,21	7,87
392,722	8,54
393,235	9,02
393,747	7,54
394,259	7,51
394,771	7,87
395,283	7,35
395,795	7,27
396,307	9,01
396,818	8,29
397,33	5,81
397,841	7,25
398,353	6,26
398,864	6,37
399,375	8,25
399,886	5,79
400,397	4,72
400,907	6,35
401,418	6,35
401,928	6,14
402,439	5,73
402,949	5,49
403,459	5,85
403,969	5,94
404,479	6,08
404,989	6,44
405,498	5,22
406,008	5,5
406,517	4,59
407,027	4,87
407,536	4,72
408,045	4,62
408,554	3,84
409,063	3,95
409,572	4,47
410,08	3,34
410,589	3,84
411,097	3,64
411,606	3,16
412,114	3,03
412,622	3,89
413,13	2,79
413,638	3,69
414,145	3,39
414,653	3,39
415,16	2,87
415,668	2,55
416,175	2,93
416,682	2,53
417,189	2,56
417,696	2,56
418,203	3,2
418,71	2,34
419,216	2,71
419,723	3,21
420,229	2,74
420,735	2,23
421,242	2,41
421,748	2,13
422,254	2,58
422,759	2,26
423,265	2,05
423,771	2,42
424,276	2,28
424,781	2,45
425,287	2,18
425,792	2,06
426,297	2,05
426,802	1,98
427,306	2,01
427,811	2,08
428,316	2,14
428,82	1,68
429,324	2,18
429,829	2,35
430,333	2,15
430,837	1,84
431,34	2,47
431,844	1,78
432,348	1,76
432,851	2,21
433,355	2,25
433,858	2,11
434,361	2,08
434,864	1,46
435,367	1,89
435,87	1,84
436,373	1,67
436,876	2,38
437,378	1,6
437,88	1,91
438,383	2,1
438,885	1,84
439,387	2,12
439,889	2,4
440,391	2,01
440,892	1,88
441,394	1,72
441,896	1,98
442,397	2,18
442,898	2,21
443,399	2,01
443,9	1,93
444,401	1,87
444,902	2,24
445,403	2,19
445,903	1,84
446,404	1,95
446,904	1,81
447,405	1,96
447,905	2,1
448,405	2,39
448,905	2,06
449,404	2,09
449,904	1,9
450,404	2,09
450,903	1,82
451,403	2,17
451,902	1,97
452,401	2,12
452,9	1,91
453,399	1,96
453,898	1,99
454,396	2,23
454,895	2,05
455,393	2,26
455,892	2,2
456,39	1,99
456,888	1,98
457,386	2,08
457,884	2,26
458,382	2,18
458,879	2,08
459,377	1,95
459,874	2,02
460,372	2,23
460,869	1,93
461,366	2,12
461,863	2,26
462,36	2,09
462,857	2,03
463,353	2,29
463,85	2,08
464,346	2,14
464,843	2,08
465,339	2,21
465,835	1,96
466,331	2,16
466,827	2,29
467,323	2,48
467,818	2,05
468,314	2,14
468,809	2,07
469,305	2,01
469,8	2,26
470,295	2,18
470,79	2,32
471,285	2,13
471,78	2,22
472,274	2,09
472,769	2,12
473,263	1,97
473,758	2,16
474,252	2,21
474,746	2,26
475,24	2,15
475,734	2,06
476,228	2,17
476,721	2,01
477,215	2,17
477,708	2,03
478,202	2,33
478,695	2,2
479,188	2,07
479,681	2,38
480,174	2,4
480,667	2,23
481,159	2,09
481,652	2,31
482,144	1,99
482,637	2,25
483,129	2,26
483,621	2,33
484,113	2,18
484,605	2,18
485,097	2,47
485,588	2,64
486,08	2,23
486,571	2,24
487,063	2,37
487,554	2,46
488,045	2,29
488,536	2,27
489,027	2,58
489,518	2,33
490,008	2,36
490,499	2,48
490,989	2,55
491,48	2,49
491,97	2,47
492,46	2,62
492,95	2,52
493,44	2,75
493,93	2,41
494,419	2,58
494,909	2,45
495,398	2,68
495,888	2,54
496,377	2,67
496,866	2,83
497,355	2,6
497,844	2,96
498,333	2,81
498,821	2,94
499,31	3,17
499,798	2,99
500,287	3,2
500,775	2,92
501,263	3,24
501,751	3,12
502,239	3,34
502,727	3,45
503,215	3,45
503,702	3,61
504,19	3,64
504,677	3,74
505,164	3,7
505,651	3,77
506,139	3,95
506,625	4,01
507,112	4,33
507,599	4,03
508,086	4,4
508,572	4,45
509,058	4,72
509,545	4,52
510,031	4,9
510,517	4,93
511,003	5
511,489	5,2
511,974	5,1
512,46	5,42
512,946	5,56
513,431	5,58
513,916	5,83
514,401	5,99
514,887	6,19
515,371	6,43
515,856	6,46
516,341	6,72
516,826	6,72
517,31	6,85
517,795	7,12
518,279	7,18
518,763	7,33
519,247	7,54
519,731	7,7
520,215	7,9
520,699	8,2
521,182	8,22
521,666	8,16
522,149	8,56
522,633	8,62
523,116	9,02
523,599	9,13
524,082	9,26
524,565	9,49
525,048	9,65
525,53	9,77
526,013	10,08
526,495	9,94
526,978	10,02
527,46	10,17
527,942	10,46
528,424	10,44
528,906	10,48
529,388	10,93
529,87	10,82
530,351	11,12
530,833	10,98
531,314	11,07
531,795	11,26
532,277	11,52
532,758	11,38
533,238	11,61
533,719	11,41
534,2	12,03
534,681	11,77
535,161	11,75
535,642	11,78
536,122	11,9
536,602	11,9
537,082	11,98
537,562	12,21
538,042	12,23
538,522	12,19
539,001	12,21
539,481	12,2
539,96	12,19
540,44	11,97
540,919	12,26
541,398	12,3
541,877	12,5
542,356	12,11
542,835	12,23
543,313	12,18
543,792	12,15
544,27	12,06
544,749	12,32
545,227	12,41
545,705	12,44
546,183	12,43
546,661	12,66
547,139	12,3
547,616	12,52
548,094	12,54
548,571	12,85
549,049	12,51
549,526	12,44
550,003	12,68
550,48	12,44
550,957	12,84
551,434	12,9
551,911	12,49
552,387	12,62
552,864	12,76
553,34	12,65
553,817	12,59
554,293	12,84
554,769	12,89
555,245	12,54
555,721	12,6
556,197	12,77
556,672	12,53
557,148	12,38
557,623	12,65
558,099	12,73
558,574	12,57
559,049	12,85
559,524	12,56
559,999	12,71
560,474	12,51
560,948	12,42
561,423	12,46
561,897	12,38
562,372	12,29
562,846	12,17
563,32	12,23
563,794	12,15
564,268	12,24
564,742	11,98
565,216	12,08
565,69	12,03
566,163	11,54
566,636	11,61
567,11	11,67
567,583	11,53
568,056	11,41
568,529	11,61
569,002	11,31
569,475	11,46
569,947	11,06
570,42	11,18
570,892	10,84
571,365	10,87
571,837	10,85
572,309	10,69
572,781	10,53
573,253	10,49
573,725	10,32
574,197	10,36
574,668	10,17
575,14	9,96
575,611	10,08
576,082	10,01
576,554	10,09
577,025	9,88
577,496	9,78
577,967	9,88
578,437	9,63
578,908	9,6
579,379	9,47
579,849	9,27
580,319	9,35
580,79	9,25
581,26	8,94
581,73	9,07
582,2	8,9
582,669	8,88
583,139	8,84
583,609	8,88
584,078	8,94
584,548	8,84
585,017	8,92
585,486	8,59
585,955	8,52
586,424	8,59
586,893	8,47
587,362	8,52
587,83	8,36
588,299	8,41
588,767	8,25
589,236	8,29
589,704	8,23
590,172	8,19
590,64	8,12
591,108	8,05
591,576	8,11
592,043	8,05
592,511	8,04
592,978	7,9
593,446	7,99
593,913	7,98
594,38	7,91
594,847	7,88
595,314	7,78
595,781	7,8
596,248	7,83
596,715	7,91
597,181	7,91
597,647	7,96
598,114	7,71
598,58	7,87
599,046	7,68
599,512	7,79
599,978	7,61
600,444	7,56
600,91	7,55
601,375	7,76
601,841	7,64
602,306	7,62
602,771	7,66
603,236	7,46
603,702	7,52
604,167	7,47
604,631	7,47
605,096	7,36
605,561	7,3
606,025	7,31
606,49	7,27
606,954	7,25
607,418	7,24
607,882	7,08
608,347	7,01
608,81	7,12
609,274	6,89
609,738	6,87
610,202	6,94
610,665	6,84
611,128	6,67
611,592	6,77
612,055	6,56
612,518	6,71
612,981	6,66
613,444	6,49
613,907	6,46
614,369	6,46
614,832	6,41
615,294	6,25
615,757	6,27
616,219	6,09
616,681	6,27
617,143	6,24
617,605	6,07
618,067	6,25
618,529	5,99
618,99	6,04
619,452	5,92
619,913	5,87
620,375	5,9
620,836	5,81
621,297	5,83
621,758	5,74
622,219	5,73
622,68	5,7
623,14	5,79
623,601	5,62
624,061	5,6
624,522	5,71
624,982	5,64
625,442	5,59
625,902	5,66
626,362	5,59
626,822	5,59
627,282	5,64
627,742	5,52
628,201	5,52
628,661	5,46
629,12	5,57
629,579	5,47
630,038	5,5
630,497	5,44
630,956	5,57
631,415	5,46
631,874	5,5
632,332	5,46
632,791	5,44
633,249	5,4
633,708	5,23
634,166	5,29
634,624	5,4
635,082	5,39
635,54	5,21
635,998	5,15
636,455	5,12
636,913	5,21
637,37	5,05
637,828	4,97
638,285	4,97
638,742	4,8
639,199	4,88
639,656	4,8
640,113	4,75
640,57	4,67
641,027	4,57
641,483	4,6
641,94	4,39
642,396	4,41
642,852	4,31
643,309	4,36
643,765	4,19
644,221	4,14
644,676	4,2
645,132	4,11
645,588	3,96
646,043	4,06
646,499	3,87
646,954	3,88
647,409	3,84
647,864	3,72
648,319	3,7
648,774	3,75
649,229	3,63
649,684	3,51
650,139	3,61
650,593	3,55
651,047	3,43
651,502	3,47
651,956	3,49
652,41	3,44
652,864	3,38
653,318	3,39
653,772	3,32
654,225	3,29
654,679	3,32
655,133	3,22
655,586	3,39
656,039	3,23
656,492	3,2
656,946	3,17
657,399	3,15
657,851	3,1
658,304	3,1
658,757	3,09
659,209	2,98
659,662	2,9
660,114	2,9
660,567	2,94
661,019	2,83
661,471	2,81
661,923	2,76
662,375	2,72
662,826	2,66
663,278	2,69
663,73	2,66
664,181	2,67
664,632	2,63
665,084	2,66
665,535	2,57
665,986	2,56
666,437	2,52
666,888	2,55
667,338	2,52
667,789	2,56
668,24	2,65
668,69	2,54
669,14	2,58
669,591	2,65
670,041	2,64
670,491	2,66
670,941	2,68
671,391	2,66
671,84	2,76
672,29	2,73
672,74	2,84
673,189	2,87
673,638	2,87
674,088	2,89
674,537	2,89
674,986	2,93
675,435	3,07
675,883	3,07
676,332	3,2
676,781	3,24
677,229	3,29
677,678	3,37
678,126	3,48
678,574	3,46
679,022	3,57
679,47	3,68
679,918	3,7
680,366	3,83
680,814	3,78
681,261	3,97
681,709	3,92
682,156	4
682,604	4,1
683,051	4,11
683,498	4,32
683,945	4,31
684,392	4,36
684,839	4,49
685,286	4,58
685,732	4,49
686,179	4,67
686,625	4,74
687,071	4,85
687,518	4,92
687,964	5,01
688,41	5,1
688,856	5,16
689,301	5,37
689,747	5,46
690,193	5,63
690,638	5,83
691,084	6,08
691,529	6,23
691,974	6,38
692,419	6,75
692,864	6,96
693,309	7,21
693,754	7,58
694,199	7,74
694,643	7,97
695,088	8,35
695,532	8,56
695,977	8,86
696,421	9,1
696,865	9,53
697,309	9,59
697,753	10,01
698,197	10,33
698,64	10,51
699,084	10,84
699,527	11,11
699,971	11,27
700,414	11,7
700,857	11,92
701,3	12,11
701,743	12,38
702,186	12,8
702,629	12,88
703,072	13,02
703,515	13,32
703,957	13,63
704,399	13,79
704,842	14
705,284	14,18
705,726	14,61
706,168	14,58
706,61	14,92
707,052	15,04
707,494	15,42
707,935	15,47
708,377	15,71
708,818	15,93
709,26	15,9
709,701	16,12
710,142	16,2
710,583	16,69
711,024	16,56
711,465	16,76
711,905	17,17
712,346	17,4
712,787	17,45
713,227	17,76
713,667	17,86
714,108	17,95
714,548	17,95
714,988	18,36
715,428	18,27
715,868	18,41
716,307	18,61
716,747	18,77
717,186	18,81
717,626	19,03
718,065	19
718,504	19,21
718,944	19,43
719,383	19,36
719,822	19,6
720,261	19,82
720,699	19,78
721,138	20,02
721,576	20,03
722,015	20,21
722,453	20,14
722,892	20,35
723,33	20,49
723,768	20,46
724,206	20,56
724,644	20,61
725,081	20,71
725,519	20,85
725,957	20,97
726,394	20,83
726,832	20,93
727,269	21,16
727,706	21,2
728,143	21,43
728,58	21,24
729,017	21,25
729,454	21,43
729,89	21,26
730,327	21,6
730,764	21,65
731,2	21,63
731,636	21,82
732,072	21,66
732,509	21,78
732,945	21,66
733,38	21,8
733,816	21,73
734,252	21,81
734,688	22,09
735,123	21,97
735,559	21,64
735,994	21,96
736,429	22,06
736,864	21,92
737,299	21,83
737,734	22,04
738,169	21,91
738,604	21,95
739,038	21,88
739,473	22,31
739,907	22,11
740,342	21,85
740,776	21,93
741,21	22,16
741,644	21,99
742,078	21,95
742,512	22,07
742,946	21,99
743,379	22,06
743,813	22,11
744,246	22,04
744,68	22,01
745,113	21,96
745,546	22,2
745,979	21,97
746,412	22,11
746,845	21,92
747,278	22,06
747,711	22,09
748,143	22,03
748,576	21,85
749,008	21,9
749,441	22,02
749,873	21,83
750,305	21,97
750,737	21,93
751,169	21,8
751,601	21,84
752,032	22,07
752,464	21,83
752,896	21,6
753,327	21,75
753,758	21,63
754,19	21,52
754,621	21,8
755,052	21,47
755,483	21,65
755,914	21,7
756,344	21,48
756,775	21,37
757,206	21,43
757,636	21,77
758,066	21,53
758,497	21,47
758,927	21,48
759,357	21,57
759,787	21,45
760,217	21,35
760,647	21,48
761,076	21,51
761,506	21,37
761,935	21,33
762,365	21,45
762,794	21,36
763,223	21,23
763,653	21,17
764,082	21,14
764,51	21,28
764,939	21,12
765,368	21,17
765,797	21,51
766,225	21,14
766,654	21,37
767,082	21,36
767,51	21,12
767,938	21,15
768,367	21,1
768,795	21,15
769,222	21,05
769,65	21,02
770,078	21,18
770,505	21
770,933	20,93
771,36	20,98
771,788	21,18
772,215	21,16
772,642	20,95
773,069	21,12
773,496	21,04
773,923	21,07
774,349	21,05
774,776	20,84
775,203	21,06
775,629	20,94
776,055	20,94
776,482	20,93
776,908	20,81
777,334	20,89
777,76	20,83
778,186	20,84
778,611	20,81
779,037	20,85
779,463	20,69
779,888	20,86
780,314	20,92
780,739	20,82
781,164	20,88
781,589	20,7
782,014	20,77
782,439	20,78
782,864	20,92
783,289	20,75
783,713	20,6
784,138	20,69
784,562	20,95
784,987	20,8
785,411	20,92
785,835	20,71
786,259	20,59
786,683	20,76
787,107	20,64
787,531	20,78
787,954	20,55
788,378	20,55
788,802	20,57
789,225	20,42
789,648	20,78
790,071	20,71
790,495	20,46
790,918	20,7
791,34	20,65
791,763	20,7
792,186	20,82
792,609	20,57
793,031	20,67
793,454	20,51
793,876	20,55
794,298	20,53
794,721	20,67
795,143	20,47
795,565	20,7
795,986	20,57
796,408	20,53
796,83	20,61
797,252	20,54
797,673	20,71
798,094	20,62
798,516	20,54
798,937	20,58
799,358	20,45
799,779	20,57
800,2	20,48
800,621	20,44
801,042	20,54
801,462	20,62
801,883	20,55
802,303	20,56
802,724	20,55
803,144	20,38
803,564	20,61
803,984	20,34
804,404	20,33
804,824	20,35
805,244	20,55
805,664	20,52
806,084	20,6
806,503	20,51
806,923	20,54
807,342	20,39
807,761	20,51
808,18	20,54
808,599	20,51
809,018	20,39
809,437	20,33
809,856	20,64
810,275	20,38
810,693	20,5
811,112	20,48
811,53	20,37
811,949	20,44
812,367	20,33
812,785	20,37
813,203	20,36
813,621	20,48
814,039	20,14
814,457	20,41
814,874	20,59
815,292	20,54
815,709	20,48
816,127	20,64
816,544	20,65
816,961	20,29
817,378	20,24
817,795	20,6
818,212	20,26
818,629	20,45
819,046	20,54
819,462	20,19
819,879	20,25
820,295	20,44
820,712	20,33
821,128	20,3
821,544	20,59
821,96	20,4
822,376	20,37
822,792	20,45
823,208	20,49
823,624	20,45
824,039	20,42
824,455	20,34
824,87	20,32
825,286	20,5
825,701	20,41
826,116	20,35
826,531	20,4
826,946	20,34
827,361	20,21
827,776	20,42
828,19	20,36
828,605	20,42
829,02	20,2
829,434	20,52
829,848	20,19
830,263	20,28
830,677	20,39
831,091	20,45
831,505	20,2
831,919	20,4
832,332	20,31
832,746	20,23
833,16	20,17
833,573	20,17
833,987	20,51
834,4	19,94
834,813	20,31
835,226	20,41
835,639	20,28
836,052	20,43
836,465	20,37
836,878	20,22
837,29	20,31
837,703	20,2
838,116	20,24
838,528	20,18
838,94	20,28
839,352	20,34
839,765	20,17
840,177	20,31
840,589	20,5
841	20,3
841,412	20,47
841,824	20,07
842,235	20,26
842,647	20,41
843,058	20,21
843,47	20,32
843,881	20,12
844,292	20,46
844,703	20,11
845,114	20,23
845,525	20,39
845,935	20,28
846,346	20,19
846,757	20,36
847,167	20,1
847,577	20,21
847,988	20,09
848,398	20,08
848,808	20,36
849,218	20,38
849,628	20,17
850,038	20,32
850,448	20,02
850,857	20,25
851,267	20,25
851,676	20,22
852,086	20,22
852,495	20,49
852,904	20,3
853,313	20,3
853,722	20,1
854,131	20,03
854,54	20,14
854,949	19,97
855,357	20,32
855,766	20,15
856,174	20,18
856,583	20,31
856,991	20,38
857,399	20,12
857,807	20,09
858,215	20,28
858,623	20,16
859,031	20,29
859,439	20,3
859,846	20,3
860,254	20,22
860,661	20,04
861,069	20,1
861,476	20,18
861,883	20,07
862,29	20,08
862,697	20,46
863,104	20,03
863,511	19,83
863,918	19,98
864,325	20,23
864,731	20,18
865,138	20,24
865,544	20,25
865,95	20,05
866,357	20,18
866,763	20,02
867,169	20,02
867,575	20,1
867,98	20,18
868,386	20,18
868,792	20,22
869,197	20,19
869,603	20,16
870,008	19,96
870,414	20,06
870,819	20,06
871,224	19,88
871,629	20,13
872,034	20,18
872,439	20,08
872,844	20,13
873,248	20,1
873,653	19,88
874,057	20,15
874,462	20,03
874,866	20,15
875,27	20,07
875,674	20,2
876,078	20,1
876,482	20,02
876,886	20,04
877,29	19,97
877,694	19,95
878,097	20,14
878,501	20,14
878,904	20
879,308	20,01
879,711	19,99
880,114	20,11
880,517	19,9
880,92	20,11
881,323	20,03
881,726	20,12
882,128	19,95
882,531	19,82
882,934	19,92
883,336	19,85
883,738	20,12
884,141	20,28
884,543	20,11
884,945	20,02
885,347	20,07
885,749	19,88
886,151	19,73
886,552	20,09
886,954	20,23
887,355	20,06
887,757	19,95
888,158	19,85
888,56	20,15
888,961	19,99
889,362	20,17
889,763	19,98
890,164	19,81
890,565	19,91
890,965	20,09
891,366	19,84
891,767	20,07
892,167	19,93
892,567	19,86
892,968	20,13
893,368	20,05
893,768	19,99
894,168	19,73
894,568	19,78
894,968	20,15
895,368	19,93
895,767	20,18
896,167	19,79
896,566	20,1
896,966	19,74
897,365	20,2
897,764	20,15
898,164	19,94
898,563	19,99
898,962	19,75
899,361	20,16
899,759	20,23
900,158	19,85
900,557	20,04
900,955	19,99
901,354	19,95
901,752	19,74
902,15	19,89
902,548	19,94
902,947	20,25
903,345	20,2
903,742	19,83
904,14	19,85
904,538	19,98
904,936	20,07
905,333	19,95
905,731	19,8
906,128	19,97
906,525	20,03
906,923	19,94
907,32	20,05
907,717	20,04
908,114	19,94
908,511	20
908,907	20,12
909,304	19,98
909,701	20,09
910,097	19,91
910,494	19,98
910,89	20,16
911,286	19,67
911,682	20
912,078	19,79
912,474	20,05
912,87	19,81
913,266	19,88
913,662	20,11
914,058	19,95
914,453	19,69
914,849	20,12
915,244	19,94
915,639	20,1
916,034	19,83
916,43	19,92
916,825	19,8
917,22	20,3
917,614	20,13
918,009	20,01
918,404	19,91
918,798	19,93
919,193	20,01
919,587	19,94
919,982	19,77
920,376	20,14
920,77	19,82
921,164	19,82
921,558	19,99
921,952	19,87
922,346	19,97
922,74	20,18
923,133	19,8
923,527	19,93
923,92	20,04
924,314	19,69
924,707	19,83
925,1	19,77
925,493	19,9
925,886	19,91
926,279	19,89
926,672	20,35
927,065	20,01
927,457	19,93
927,85	19,84
928,243	19,77
928,635	19,81
929,027	19,58
929,42	19,82
929,812	19,87
930,204	19,81
930,596	19,87
930,988	19,83
931,379	19,99
931,771	19,51
932,163	19,85
932,554	19,82
932,946	19,65
933,337	19,63
933,729	19,8
934,12	19,98
934,511	19,68
934,902	19,59
935,293	19,73
935,684	19,95
936,075	19,97
936,465	19,68
936,856	19,5
937,246	19,56
937,637	19,67
938,027	19,38
938,417	19,86
938,808	19,68
939,198	20,13
939,588	19,67
939,978	19,73
940,368	19,83
940,757	20,49
941,147	19,61
941,537	19,47
941,926	19,78
942,315	19,74
942,705	20,11
943,094	19,86
943,483	19,83
943,872	20,03
944,261	19,01
944,65	19,42
945,039	19,73
945,428	19,25
945,816	19,45
946,205	19,56
946,593	20,05
946,982	19,61
947,37	19,7
947,758	19,64
948,146	19,46
948,534	19,92
948,922	19,79
949,31	19,33
949,698	19,43
950,086	19,78
950,473	19,65
950,861	19,33
951,248	19,53
951,636	19,52
952,023	19,63
952,41	19,38
952,797	19,6
953,184	19,88
953,571	19,81
953,958	19,27
954,345	19,45
954,731	19,37
955,118	19,26
955,505	19,55
955,891	19,52
956,277	19,64
956,664	19,47
957,05	19,53
957,436	19,56
957,822	19,28
958,208	19,12
958,594	19,21
958,979	19,63
959,365	19,36
959,751	19,4
960,136	19,54
960,522	18,95
960,907	19,46
961,292	19,29
961,677	19,57
962,062	19,5
962,447	19,46
962,832	19,18
963,217	19,49
963,602	19,5
963,986	18,86
964,371	19,16
964,756	19,68
965,14	19,44
965,524	19,5
965,908	19,32
966,293	19,45
966,677	19,24
967,061	19,33
967,445	19,08
967,828	19,11
968,212	19,59
968,596	19,63
968,979	19,36
969,363	19,57
969,746	19,24
970,129	19,17
970,513	19,09
970,896	19,14
971,279	19,39
971,662	19,43
972,045	18,96
972,428	19,51
972,81	19,21
973,193	19,43
973,575	19,19
973,958	19,25
974,34	19,44
974,723	19,28
975,105	19,47
975,487	19,35
975,869	19,58
976,251	19,19
976,633	19,49
977,015	19,27
977,396	19,65
977,778	19,84
978,16	19,41
978,541	19,22
978,922	19,5
979,304	19,38
979,685	19,31
980,066	19,34
980,447	19,52
980,828	19,44
981,209	19,52
981,59	19,49
981,97	19,17
982,351	19,57
982,732	19,68
983,112	19,59
983,493	19,57
983,873	19,21
984,253	18,97
984,633	19,39
985,013	19,57
985,393	19,32
985,773	19,04
986,153	19,36
986,533	19,48
986,912	19,61
987,292	19,24
987,671	19,14
988,051	19,57
988,43	19,66
988,809	19,36
989,188	19,57
989,567	19,29
989,946	19,32
990,325	19,86
990,704	19,49
991,083	19,19
991,461	19,59
991,84	19,52
992,218	19,53
992,597	19,71
992,975	19,41
993,353	19,54
993,732	19,54
994,11	19,52
994,488	19,16
994,866	19,34
995,243	18,97
995,621	19,79
995,999	19,31
996,376	19,16
996,754	19,63
997,131	19,67
997,509	19,31
997,886	19,24
998,263	19,27
998,64	19,2
999,017	19,65
999,394	19,45
999,771	19,52
1000,148	19,31
1000,524	19,51
1000,901	19,46
1001,277	19,35
1001,654	19,08
1002,03	19,36
1002,406	19,29
1002,783	19,29
1003,159	19,61
1003,535	19,28
1003,911	19,49
1004,286	19,48
1004,662	19,09
1005,038	19,61
1005,414	19,45
1005,789	19,58
1006,164	19,25
1006,54	19,14
1006,915	19,58
1007,29	19,01
1007,665	19,54
1008,04	19,39
1008,415	19,82
1008,79	19,66
1009,165	19,44
1009,54	19,57
1009,914	19,76
1010,289	19,38
1010,663	19,63
1011,038	19,67
1011,412	19,74
1011,786	19,41
1012,16	19,46
1012,535	19,88
1012,909	19,51
1013,282	19,33
1013,656	19,56
1014,03	19,27
1014,404	19,12
1014,777	19,53
1015,151	19,33
1015,524	19,57
1015,897	19,39
1016,271	19,53
1016,644	19,31
1017,017	19,36
1017,39	19,46
1017,763	19,24
1018,136	19,39
1018,508	19,44
1018,881	19,81
1019,254	19,63
1019,626	19,23
1019,999	19
1020,371	19,28
1020,743	19,49
1021,116	19,66
1021,488	19,26
1021,86	19,12
1022,232	19,67
1022,604	19,19
1022,975	19,79
1023,347	19,54
1023,719	19,24
1024,09	19,43
1024,462	19,9
1024,833	18,81
1025,204	19,26
1025,576	19,59
1025,947	19,63
1026,318	19,12
1026,689	19,4
1027,06	19,59
1027,431	19,32
1027,801	19,15
1028,172	19,06
1028,543	19,47
1028,913	19,51
1029,284	19,73
1029,654	19,41
1030,024	19,04
1030,394	19,09
1030,764	19,38
1031,135	19,54
1031,504	19,34
1031,874	19,23
1032,244	19,89
1032,614	19,84
1032,983	19,49
1033,353	19,48
1033,722	19,1
1034,092	19,85
1034,461	19,46
1034,83	19,85
1035,2	19,45
1035,569	19,64
1035,938	19,74
1036,307	19,49
1036,675	19,94
1037,044	19,66
1037,413	19,9
1037,781	19,9
1038,15	19,6
1038,518	19,36
1038,887	19,81
1039,255	19,54
1039,623	19,84
1039,991	20,06
1040,359	19,96
1040,727	20,32
1041,095	19,42
1041,463	19,52
1041,831	19,99
1042,198	19,41
1042,566	19,74
1042,933	19,36
1043,301	20,08
1043,668	18,99
1044,035	19,26
1044,402	19,84
1044,77	20,14
1045,137	18,95
1045,503	19,44
1045,87	19,48
1046,237	20,1
1046,604	19,28
1046,97	20,47
1047,337	19,44
1047,703	19,52
1048,07	19,87
1048,436	19,25
1048,802	19,69
1049,168	19,84
1049,534	19,59
1049,9	20,3
1050,266	19,57
1050,632	19,39
1050,998	19,3
1051,364	20,01
1051,729	19,19
1052,095	20,08
1052,46	19,35
1052,825	19,17
1053,191	19,63
1053,556	19,97
1053,921	18,99
1054,286	20,14
1054,651	19,11
1055,016	19,35
1055,381	20,38
1055,745	19,99
1056,11	18,9
1056,475	20,17
1056,839	19,5
1057,203	19,12
1057,568	19,78
1057,932	19,55
1058,296	19,45
1058,66	19,55
1059,024	19,17
1059,388	19,49
1059,752	20,09
1060,116	19,97
1060,48	19,74
1060,843	19,41
1061,207	20,06
1061,57	19,66
1061,934	19,14
1062,297	19,86
1062,66	18,93
1063,023	19,87
1063,386	18,95
1063,749	19,66
1064,112	19,43
1064,475	19,09
1064,838	19,68
1065,201	19
1065,563	19,87
1065,926	19,02
1066,288	18,67
1066,651	19,22
1067,013	19,39
1067,375	20,34
1067,737	19,83
1068,099	19,19
1068,461	19,76
1068,823	19,48
1069,185	19,66
1069,547	19,03
1069,909	18,93
1070,27	18,77
1070,632	18,96
1070,993	19,37
1071,355	19,64
1071,716	19,51
1072,077	20,06
1072,438	19,79
1072,799	19,71
1073,16	19,07
1073,521	18,38
1073,882	19,94
1074,243	20,18
1074,603	19,64
1074,964	19,97
1075,325	19,8
1075,685	19,62
1076,045	19,63
1076,406	19,69
1076,766	19,79
1077,126	19,26
1077,486	18,9
1077,846	19,91
1078,206	19,79
1078,566	19,53
1078,925	19,21
1079,285	19,3
1079,645	18,95
1080,004	19,91
1080,364	19,84
1080,723	18,91
1081,082	19,34
1081,442	19,45
1081,801	18,93
1082,16	20,27
1082,519	20,15
1082,878	20,14
1083,237	18,65
1083,595	19,68
1083,954	19,36
1084,313	20,14
1084,671	19,12
1085,03	19,8
1085,388	19,85
1085,746	18,61
1086,104	18,97
1086,463	19,78
1086,821	19,61
1087,179	19,74
1087,537	19,01
1087,894	19,31
1088,252	20,29
1088,61	18,27
1088,967	19,52
1089,325	19,11
1089,682	19,13
1090,04	18,94
1090,397	19,4
1090,754	20,43
1091,111	19,13
1091,469	20,11
1091,826	19,8
1092,182	18,52
1092,539	19,52
1092,896	19,38
1093,253	18,7
1093,609	18,82
1093,966	20,39
1094,322	20,02
1094,679	18,59
1095,035	19,29
1095,391	19,1
1095,748	18,56
1096,104	20,83
1096,46	19,98
1096,816	20,24
1097,171	20,47
1097,527	18,15
1097,883	19,69
1098,239	19,8
1098,594	19,28
1098,95	18,91
1099,305	20,09
1099,66	19,43
1100,016	20,19
1100,371	16,88
1100,726	18,62
1101,081	19,74
1101,436	18,99
1101,791	19,68
1102,146	19,63
1102,5	19,15
1102,855	17,92
1103,21	19,41
1103,564	18,68
1103,918	19,62
1104,273	19,35
1104,627	20,75
1104,981	18,27
1105,335	20,06
1105,69	18,69
1106,043	19,73
1106,397	19,32
1106,751	19,36
1107,105	18,34
1107,459	18,74
1107,812	17,88
1108,166	19,61
1108,519	19,28
1108,873	19,92
1109,226	19,09
1109,579	16,99
1109,932	19,1
1110,285	17,62
1110,638	20,08
1110,991	19,58
1111,344	19,9
1111,697	18,93
1112,05	21,99
1112,402	19,14
1112,755	18,61
1113,107	21,45
1113,46	20,46
1113,812	20,37
1114,164	21,38
1114,517	19,7
1114,869	21,35
1115,221	14,06
1115,573	14,95
1115,924	23,47
