Data from F_1_0_Relative__4__00134.txt Node

Date: Mon Jan 29 13:03:32 CET 2024
User: diatiterra
Spectrometer: HDX00911
Trigger mode: 0
Integration Time (sec): 6,000000E-3
Scans to average: 2
Nonlinearity correction enabled: false
Boxcar width: 0
Storing dark spectrum: false
XAxis mode: Wavelengths
Number of Pixels in Spectrum: 2068
>>>>>Begin Spectral Data<<<<<
194,468	58,54
195,025	24,12
195,581	45,93
196,138	33,33
196,694	42,99
197,251	46,15
197,807	32,78
198,363	36,07
198,919	42,61
199,474	46,22
200,03	35,98
200,586	36,59
201,141	37,18
201,696	33,55
202,251	34,62
202,806	36,14
203,361	39,66
203,916	41,58
204,471	41,95
205,025	43,66
205,58	44,97
206,134	35,93
206,688	41
207,242	43,52
207,796	40,82
208,35	33,26
208,904	38,37
209,457	37,2
210,011	42,92
210,564	37,63
211,117	38,49
211,67	44,87
212,223	40,26
212,776	42,14
213,329	47,68
213,881	31,21
214,434	36,8
214,986	39
215,538	42,26
216,09	37,47
216,642	36,83
217,194	38,75
217,746	44,28
218,297	31,76
218,849	36,91
219,4	38,83
219,951	36,44
220,502	37,69
221,053	35,5
221,604	36,88
222,155	42,3
222,705	35,28
223,256	38,39
223,806	44,23
224,356	38,68
224,906	36,48
225,456	39,37
226,006	32,05
226,556	27,56
227,106	44,64
227,655	41,58
228,204	28,98
228,754	40,45
229,303	38,02
229,852	44,49
230,401	37,84
230,949	42,42
231,498	38
232,047	39,61
232,595	39,12
233,143	40,09
233,691	37,3
234,239	41,52
234,787	32,05
235,335	38,06
235,883	33,19
236,43	32,23
236,978	28,94
237,525	33,26
238,072	38,78
238,619	42,52
239,166	38,19
239,713	32,51
240,26	42,95
240,806	38,74
241,353	37,93
241,899	36,12
242,445	27,01
242,991	32,32
243,537	37,24
244,083	36,1
244,629	43,43
245,174	39,74
245,72	39,11
246,265	42,19
246,81	35,44
247,355	35,76
247,9	34,14
248,445	32,2
248,99	35,73
249,534	42,18
250,079	31,56
250,623	39,13
251,168	36,02
251,712	41,72
252,256	35,48
252,8	39,65
253,343	32,94
253,887	33,62
254,43	36,27
254,974	35,53
255,517	37,1
256,06	35,54
256,603	38,64
257,146	35,73
257,689	29,65
258,232	28,57
258,774	35,89
259,317	41,53
259,859	35,54
260,401	35,5
260,943	40,22
261,485	43,11
262,027	28,01
262,569	41
263,11	38,68
263,652	39,06
264,193	42,95
264,734	33,03
265,275	32,63
265,816	27,03
266,357	34,47
266,898	36,3
267,438	38,53
267,979	41,15
268,519	44,42
269,059	29,44
269,6	37,25
270,14	36,94
270,68	41,1
271,219	37,13
271,759	45,62
272,298	31,63
272,838	39,91
273,377	38,48
273,916	40,49
274,455	25,17
274,994	38,33
275,533	36,03
276,072	36,27
276,61	29,52
277,149	29,61
277,687	28,83
278,225	33,71
278,763	38,01
279,301	38,44
279,839	35,05
280,377	30,57
280,914	37,12
281,452	32,8
281,989	35,16
282,526	31,12
283,064	31,25
283,601	36,66
284,137	41,9
284,674	38,59
285,211	34,86
285,747	38,19
286,284	33,56
286,82	28,02
287,356	41,72
287,892	28,57
288,428	29,18
288,964	33,88
289,5	31,01
290,035	30,91
290,571	35,85
291,106	22,52
291,641	35,91
292,176	32,76
292,711	33,55
293,246	34,4
293,781	37,92
294,315	36,66
294,85	28,54
295,384	35,51
295,918	37,33
296,453	41,51
296,987	28,2
297,52	39,69
298,054	33,33
298,588	33,7
299,121	38,58
299,655	34,16
300,188	32,8
300,721	34,65
301,254	36,76
301,787	34,62
302,32	35,02
302,853	28,85
303,385	31,72
303,918	30,73
304,45	35,09
304,982	35,33
305,514	31,25
306,046	36,32
306,578	34,32
307,11	38,93
307,641	33,48
308,173	37,27
308,704	41,52
309,236	37,96
309,767	31,76
310,298	35,92
310,829	35,21
311,359	38,08
311,89	41,76
312,421	35,2
312,951	40,47
313,481	34,1
314,012	28,19
314,542	35,76
315,072	29,4
315,601	40,54
316,131	36,61
316,661	39,37
317,19	35,52
317,72	35,71
318,249	31,15
318,778	47,06
319,307	34,35
319,836	45,5
320,365	39,17
320,893	41,34
321,422	35,25
321,95	36,67
322,479	32,05
323,007	34,3
323,535	44,42
324,063	34,52
324,591	37,83
325,118	39,56
325,646	39,62
326,173	37,67
326,701	45
327,228	43,64
327,755	37,56
328,282	37,43
328,809	47,9
329,336	32,1
329,862	39,32
330,389	32,41
330,915	38,64
331,441	32,63
331,968	31,08
332,494	39,5
333,02	31,18
333,545	38,43
334,071	36,83
334,597	37,02
335,122	41,43
335,648	42,01
336,173	38,39
336,698	41,74
337,223	38,61
337,748	39,92
338,272	34,1
338,797	29,93
339,322	35,52
339,846	34,68
340,37	35,44
340,894	36,3
341,419	38,87
341,942	38,13
342,466	37,16
342,99	38,59
343,514	38,57
344,037	31,2
344,56	30,16
345,084	30,3
345,607	41,88
346,13	30,15
346,653	29,73
347,175	33,68
347,698	35,95
348,221	33,33
348,743	34,94
349,265	37,04
349,787	41,99
350,309	40,85
350,831	37,41
351,353	33,22
351,875	27,85
352,397	38,67
352,918	29,69
353,439	38,64
353,961	37,14
354,482	30,64
355,003	27,82
355,524	26,07
356,044	35,67
356,565	31,31
357,086	28,34
357,606	31,02
358,126	40,8
358,646	33,83
359,167	31,75
359,687	32,7
360,206	32,2
360,726	37,39
361,246	32,21
361,765	35,72
362,285	29,9
362,804	34,64
363,323	33,85
363,842	35,25
364,361	30,21
364,88	35,39
365,398	34,08
365,917	32,59
366,435	25,06
366,954	28,43
367,472	31,96
367,99	32,04
368,508	30,33
369,026	30,84
369,544	30
370,061	28,47
370,579	34,43
371,096	30,29
371,613	35,72
372,131	31,93
372,648	30,68
373,165	31,97
373,681	33,04
374,198	30,11
374,715	33,9
375,231	33,82
375,747	29,05
376,264	24,61
376,78	29,82
377,296	28,06
377,812	30,95
378,327	26,88
378,843	31,17
379,359	29,66
379,874	31,28
380,389	30,55
380,905	34,08
381,42	31,78
381,935	29,64
382,449	29,8
382,964	28,11
383,479	30,92
383,993	25,96
384,508	28,08
385,022	27,92
385,536	28,23
386,05	25,89
386,564	24,68
387,078	28,76
387,592	31,17
388,105	27,97
388,619	28,73
389,132	26,95
389,645	28,08
390,158	26,25
390,671	26,31
391,184	27,22
391,697	24,78
392,21	25,31
392,722	24,5
393,235	25,17
393,747	23,24
394,259	24,9
394,771	25,55
395,283	24,95
395,795	21,9
396,307	23,32
396,818	21,74
397,33	24,18
397,841	23,93
398,353	22,83
398,864	23
399,375	21,66
399,886	22,18
400,397	22,72
400,907	20,74
401,418	21,81
401,928	19,59
402,439	21,75
402,949	20,3
403,459	18,32
403,969	20,33
404,479	17,59
404,989	16,79
405,498	16,8
406,008	17,21
406,517	15,99
407,027	16,36
407,536	16,89
408,045	15,17
408,554	14,79
409,063	14,65
409,572	14,46
410,08	14,27
410,589	14,14
411,097	13,06
411,606	13,68
412,114	12,62
412,622	11,99
413,13	11,8
413,638	11,2
414,145	11,63
414,653	10,84
415,16	11,1
415,668	10,69
416,175	10,56
416,682	10,35
417,189	10
417,696	10,11
418,203	9,82
418,71	9,82
419,216	9,98
419,723	9,5
420,229	9,44
420,735	8,56
421,242	9,19
421,748	8,84
422,254	9,3
422,759	9,1
423,265	9,46
423,771	8,5
424,276	9,13
424,781	9,15
425,287	8,36
425,792	8,62
426,297	8,47
426,802	8,13
427,306	8,16
427,811	8,15
428,316	7,8
428,82	8,15
429,324	8,25
429,829	8,71
430,333	8,18
430,837	8,48
431,34	8,31
431,844	7,98
432,348	8,13
432,851	8,48
433,355	7,37
433,858	8,29
434,361	7,77
434,864	7,85
435,367	7,54
435,87	7,86
436,373	8,23
436,876	7,71
437,378	7,86
437,88	7,75
438,383	7,75
438,885	8,31
439,387	8,2
439,889	8,05
440,391	8,1
440,892	8,3
441,394	8,05
441,896	8,29
442,397	7,8
442,898	7,64
443,399	8,06
443,9	8,42
444,401	8,17
444,902	7,93
445,403	8,18
445,903	8,06
446,404	8,03
446,904	8,18
447,405	7,78
447,905	8,27
448,405	8,1
448,905	7,78
449,404	8,04
449,904	8,44
450,404	7,97
450,903	7,89
451,403	8,19
451,902	8,26
452,401	8,37
452,9	7,7
453,399	8,75
453,898	8,45
454,396	8,28
454,895	8,5
455,393	8,24
455,892	8,24
456,39	8,12
456,888	8,48
457,386	8,27
457,884	8,44
458,382	8,28
458,879	8,42
459,377	8,13
459,874	8,25
460,372	8,64
460,869	8,32
461,366	8,77
461,863	8,38
462,36	8,33
462,857	8,27
463,353	8,88
463,85	8,31
464,346	8,37
464,843	8,36
465,339	8,52
465,835	8,35
466,331	8,62
466,827	8,4
467,323	8,39
467,818	8,6
468,314	8,34
468,809	8,29
469,305	8,25
469,8	8,38
470,295	8,42
470,79	8,6
471,285	8,4
471,78	8,44
472,274	8,46
472,769	8,51
473,263	8,33
473,758	8,6
474,252	8,85
474,746	8,36
475,24	8,32
475,734	8,7
476,228	8,6
476,721	8,14
477,215	8,24
477,708	8,7
478,202	8,4
478,695	8,73
479,188	8,54
479,681	8,75
480,174	8,62
480,667	8,4
481,159	8,6
481,652	8,66
482,144	8,45
482,637	8,5
483,129	8,67
483,621	8,69
484,113	8,59
484,605	8,66
485,097	8,45
485,588	8,73
486,08	8,62
486,571	8,73
487,063	8,82
487,554	8,81
488,045	8,52
488,536	8,81
489,027	9,08
489,518	9,16
490,008	8,81
490,499	8,89
490,989	8,97
491,48	9,21
491,97	8,88
492,46	9,28
492,95	9,11
493,44	9,43
493,93	9,4
494,419	9,54
494,909	9,96
495,398	9,7
495,888	9,81
496,377	9,54
496,866	9,81
497,355	10
497,844	9,93
498,333	9,86
498,821	10,29
499,31	10,27
499,798	10,61
500,287	10,6
500,775	10,74
501,263	10,73
501,751	10,96
502,239	11,15
502,727	11,28
503,215	11,32
503,702	11,17
504,19	11,8
504,677	11,62
505,164	11,94
505,651	12,3
506,139	12,4
506,625	12,59
507,112	12,69
507,599	13,01
508,086	13,03
508,572	13,08
509,058	13,37
509,545	13,89
510,031	14,01
510,517	14,15
511,003	14,4
511,489	14,9
511,974	15,07
512,46	15,2
512,946	15,52
513,431	15,9
513,916	16
514,401	16,1
514,887	16,89
515,371	16,72
515,856	17,4
516,341	17,62
516,826	17,95
517,31	18,18
517,795	18,58
518,279	18,86
518,763	19,34
519,247	19,1
519,731	19,84
520,215	20,17
520,699	20,57
521,182	20,68
521,666	20,88
522,149	21,52
522,633	21,75
523,116	21,91
523,599	22,37
524,082	22,82
524,565	22,97
525,048	23,28
525,53	23,4
526,013	23,95
526,495	23,7
526,978	24,01
527,46	24,83
527,942	24,62
528,424	24,83
528,906	25,37
529,388	25,51
529,87	25,39
530,351	25,85
530,833	25,95
531,314	26,24
531,795	26,51
532,277	26,22
532,758	26,62
533,238	26,83
533,719	26,84
534,2	26,89
534,681	27,15
535,161	27,55
535,642	26,95
536,122	27,62
536,602	27,27
537,082	27,23
537,562	27,6
538,042	27,58
538,522	27,75
539,001	27,57
539,481	28,06
539,96	27,49
540,44	28,18
540,919	27,91
541,398	28,2
541,877	28,14
542,356	28,65
542,835	28,09
543,313	28,08
543,792	27,83
544,27	28,48
544,749	27,87
545,227	28,43
545,705	28,54
546,183	28,43
546,661	28,41
547,139	28,32
547,616	28,25
548,094	28,31
548,571	28,55
549,049	28,66
549,526	28,66
550,003	28,41
550,48	29,25
550,957	28,42
551,434	28,51
551,911	28,36
552,387	29,18
552,864	28,82
553,34	28,58
553,817	28,88
554,293	28,8
554,769	29,07
555,245	28,57
555,721	28,81
556,197	29,49
556,672	28,77
557,148	28,33
557,623	28,92
558,099	28,38
558,574	29,08
559,049	28,72
559,524	28,77
559,999	28,27
560,474	28,59
560,948	28,5
561,423	28,52
561,897	28,37
562,372	28,58
562,846	27,6
563,32	28,03
563,794	28,19
564,268	27,71
564,742	27,55
565,216	27,72
565,69	27,29
566,163	27,02
566,636	27,25
567,11	26,82
567,583	26,73
568,056	26,66
568,529	26,53
569,002	26,59
569,475	26,48
569,947	26,58
570,42	25,87
570,892	25,66
571,365	25,62
571,837	25,65
572,309	24,91
572,781	25,33
573,253	24,81
573,725	24,58
574,197	24,22
574,668	24,35
575,14	24,29
575,611	23,83
576,082	23,69
576,554	23,99
577,025	23,84
577,496	23,21
577,967	23,35
578,437	23,23
578,908	22,86
579,379	22,98
579,849	22,8
580,319	22,63
580,79	22,64
581,26	22,45
581,73	22,16
582,2	22,05
582,669	22,46
583,139	21,99
583,609	21,73
584,078	21,7
584,548	21,81
585,017	21,55
585,486	21,19
585,955	21,3
586,424	21,3
586,893	21,11
587,362	20,75
587,83	21,22
588,299	21,02
588,767	20,84
589,236	20,64
589,704	20,61
590,172	20,47
590,64	20,3
591,108	20,36
591,576	20,41
592,043	20,26
592,511	20,2
592,978	19,93
593,446	20,16
593,913	20
594,38	19,93
594,847	20,02
595,314	19,68
595,781	19,84
596,248	19,97
596,715	19,71
597,181	19,77
597,647	19,7
598,114	19,9
598,58	19,49
599,046	19,54
599,512	19,59
599,978	19,62
600,444	19,56
600,91	19,33
601,375	19,35
601,841	19,51
602,306	19,25
602,771	19,22
603,236	19,14
603,702	19,42
604,167	19,15
604,631	19,05
605,096	19,15
605,561	19,09
606,025	18,95
606,49	18,62
606,954	18,47
607,418	18,7
607,882	18,37
608,347	18,28
608,81	18,45
609,274	17,98
609,738	18,01
610,202	18,24
610,665	17,86
611,128	17,92
611,592	17,75
612,055	17,7
612,518	17,83
612,981	17,58
613,444	17,44
613,907	17,27
614,369	17,2
614,832	16,94
615,294	17,1
615,757	17,17
616,219	16,78
616,681	16,77
617,143	16,72
617,605	16,56
618,067	16,65
618,529	16,25
618,99	16,54
619,452	16,29
619,913	16,26
620,375	16,23
620,836	16,03
621,297	16,14
621,758	16,09
622,219	16,04
622,68	15,96
623,14	15,66
623,601	15,65
624,061	15,73
624,522	15,62
624,982	15,66
625,442	15,45
625,902	15,52
626,362	15,53
626,822	15,45
627,282	15,75
627,742	15,57
628,201	15,65
628,661	15,59
629,12	15,55
629,579	15,36
630,038	15,3
630,497	15,14
630,956	15,51
631,415	15,25
631,874	15,31
632,332	15,14
632,791	15,29
633,249	15,15
633,708	15,11
634,166	15,11
634,624	15,01
635,082	14,84
635,54	14,75
635,998	14,64
636,455	14,63
636,913	14,58
637,37	14,35
637,828	14,29
638,285	14,16
638,742	14,02
639,199	13,91
639,656	14,03
640,113	13,73
640,57	13,57
641,027	13,38
641,483	13,51
641,94	13,45
642,396	13,1
642,852	13,15
643,309	13,12
643,765	12,66
644,221	12,57
644,676	12,61
645,132	12,42
645,588	12,3
646,043	12,09
646,499	12,04
646,954	11,88
647,409	11,77
647,864	11,65
648,319	11,62
648,774	11,43
649,229	11,48
649,684	11,26
650,139	11,29
650,593	11,29
651,047	11,09
651,502	11,15
651,956	11,04
652,41	10,9
652,864	10,96
653,318	10,86
653,772	10,83
654,225	10,73
654,679	10,73
655,133	10,71
655,586	10,68
656,039	10,71
656,492	10,41
656,946	10,51
657,399	10,33
657,851	10,38
658,304	10,25
658,757	10,22
659,209	10,17
659,662	9,97
660,114	10,02
660,567	9,81
661,019	9,88
661,471	9,65
661,923	9,55
662,375	9,52
662,826	9,45
663,278	9,5
663,73	9,31
664,181	9,26
664,632	9,25
665,084	9,11
665,535	9,12
665,986	9,11
666,437	9,07
666,888	8,98
667,338	8,92
667,789	8,96
668,24	8,99
668,69	8,88
669,14	9,09
669,591	9,03
670,041	8,99
670,491	9,02
670,941	9,13
671,391	8,97
671,84	9,15
672,29	9,18
672,74	9,28
673,189	9,31
673,638	9,3
674,088	9,34
674,537	9,51
674,986	9,51
675,435	9,62
675,883	9,84
676,332	9,96
676,781	10,06
677,229	9,9
677,678	10,17
678,126	10,29
678,574	10,42
679,022	10,47
679,47	10,64
679,918	10,72
680,366	10,76
680,814	10,86
681,261	11
681,709	11,14
682,156	11,34
682,604	11,53
683,051	11,6
683,498	11,72
683,945	11,83
684,392	12,02
684,839	12,16
685,286	12,28
685,732	12,61
686,179	12,81
686,625	12,92
687,071	13,04
687,518	13,4
687,964	13,44
688,41	13,65
688,856	13,91
689,301	14,27
689,747	14,62
690,193	15,05
690,638	15,39
691,084	15,8
691,529	16,18
691,974	16,5
692,419	17,13
692,864	17,65
693,309	17,9
693,754	18,48
694,199	19,12
694,643	19,42
695,088	19,89
695,532	20,79
695,977	21,07
696,421	21,76
696,865	22,27
697,309	22,65
697,753	23,35
698,197	23,52
698,64	24,3
699,084	24,85
699,527	25,59
699,971	25,9
700,414	26,25
700,857	26,66
701,3	27,27
701,743	27,82
702,186	28,27
702,629	28,76
703,072	29,36
703,515	29,43
703,957	30,05
704,399	30,31
704,842	30,7
705,284	30,95
705,726	31,53
706,168	32,01
706,61	32,25
707,052	32,77
707,494	32,96
707,935	33,32
708,377	33,6
708,818	33,89
709,26	34,13
709,701	34,6
710,142	34,82
710,583	35,35
711,024	35,39
711,465	35,72
711,905	36,19
712,346	36,22
712,787	36,36
713,227	36,82
713,667	36,97
714,108	37,26
714,548	37,5
714,988	37,92
715,428	37,79
715,868	38,33
716,307	38,86
716,747	38,86
717,186	38,91
717,626	39,22
718,065	39,55
718,504	39,66
718,944	40,1
719,383	39,9
719,822	40,13
720,261	40,48
720,699	40,51
721,138	40,63
721,576	41,06
722,015	41,03
722,453	41,12
722,892	41,17
723,33	41,71
723,768	41,68
724,206	41,84
724,644	41,99
725,081	42
725,519	41,91
725,957	42,36
726,394	42,32
726,832	42,62
727,269	42,16
727,706	42,8
728,143	43,04
728,58	42,97
729,017	42,72
729,454	43,1
729,89	43,18
730,327	43,18
730,764	43,34
731,2	43,56
731,636	43,32
732,072	43,52
732,509	43,44
732,945	43,52
733,38	43,43
733,816	43,62
734,252	43,38
734,688	43,79
735,123	43,61
735,559	44,11
735,994	43,53
736,429	44,02
736,864	43,96
737,299	43,8
737,734	43,98
738,169	43,86
738,604	44,04
739,038	44,04
739,473	43,96
739,907	44,01
740,342	43,82
740,776	43,89
741,21	44,05
741,644	44,03
742,078	43,87
742,512	44,07
742,946	43,77
743,379	43,87
743,813	43,92
744,246	43,83
744,68	44
745,113	43,91
745,546	44,12
745,979	43,88
746,412	43,81
746,845	43,72
747,278	43,75
747,711	43,91
748,143	43,59
748,576	43,61
749,008	43,69
749,441	43,55
749,873	43,45
750,305	43,32
750,737	43,75
751,169	43,81
751,601	43,67
752,032	43,53
752,464	43,31
752,896	43,54
753,327	43,37
753,758	43,29
754,19	43,26
754,621	43,03
755,052	43,07
755,483	42,88
755,914	42,78
756,344	42,76
756,775	42,78
757,206	43,02
757,636	43,02
758,066	42,94
758,497	42,67
758,927	42,85
759,357	42,63
759,787	42,64
760,217	42,53
760,647	42,58
761,076	42,89
761,506	42,46
761,935	42,78
762,365	42,49
762,794	42,53
763,223	42,07
763,653	42,39
764,082	42,21
764,51	42,25
764,939	42,33
765,368	42,19
765,797	42,25
766,225	41,77
766,654	42,23
767,082	42,44
767,51	42,08
767,938	41,92
768,367	42,13
768,795	42,27
769,222	41,95
769,65	42,07
770,078	41,92
770,505	41,88
770,933	42,03
771,36	41,75
771,788	41,93
772,215	41,89
772,642	41,73
773,069	41,69
773,496	41,85
773,923	41,97
774,349	41,93
774,776	41,69
775,203	41,77
775,629	41,83
776,055	41,76
776,482	41,54
776,908	41,44
777,334	41,56
777,76	41,22
778,186	41,57
778,611	41,26
779,037	41,75
779,463	41,5
779,888	41,3
780,314	41,59
780,739	41,51
781,164	41,29
781,589	41,21
782,014	41,09
782,439	41,31
782,864	41,53
783,289	41,14
783,713	41,46
784,138	41,17
784,562	41,14
784,987	41,57
785,411	41,31
785,835	41,24
786,259	41,2
786,683	41,38
787,107	41,28
787,531	41,41
787,954	41,33
788,378	41,28
788,802	40,92
789,225	41,3
789,648	40,77
790,071	41,06
790,495	40,96
790,918	41,26
791,34	41,22
791,763	40,74
792,186	41,05
792,609	40,81
793,031	40,77
793,454	41,22
793,876	41,07
794,298	40,95
794,721	40,92
795,143	41,09
795,565	40,9
795,986	40,86
796,408	41,04
796,83	40,91
797,252	40,99
797,673	40,63
798,094	40,9
798,516	40,78
798,937	41,09
799,358	41,08
799,779	41,16
800,2	40,96
800,621	40,85
801,042	40,61
801,462	41,14
801,883	40,87
802,303	40,71
802,724	40,78
803,144	40,66
803,564	40,56
803,984	40,66
804,404	40,55
804,824	40,62
805,244	40,69
805,664	40,63
806,084	40,75
806,503	40,76
806,923	40,9
807,342	40,99
807,761	40,55
808,18	40,83
808,599	40,81
809,018	40,45
809,437	40,71
809,856	40,65
810,275	40,65
810,693	40,91
811,112	40,7
811,53	40,71
811,949	40,95
812,367	40,23
812,785	40,64
813,203	40,65
813,621	40,7
814,039	40,57
814,457	40,47
814,874	40,59
815,292	40,74
815,709	40,41
816,127	40,64
816,544	40,85
816,961	40,38
817,378	40,52
817,795	40,76
818,212	40,71
818,629	40,71
819,046	40,54
819,462	40,63
819,879	40,51
820,295	40,21
820,712	40,54
821,128	40,45
821,544	40,38
821,96	40,58
822,376	40,32
822,792	40,68
823,208	40,25
823,624	40,67
824,039	40,13
824,455	40,42
824,87	40,77
825,286	40,32
825,701	40,66
826,116	40,39
826,531	40,35
826,946	40,42
827,361	40,42
827,776	40,66
828,19	40,32
828,605	40,23
829,02	40,62
829,434	40,2
829,848	40,58
830,263	40,4
830,677	40,57
831,091	40,34
831,505	40,27
831,919	40,64
832,332	40,05
832,746	40,11
833,16	39,95
833,573	40,04
833,987	40,07
834,4	40,07
834,813	40,38
835,226	40,43
835,639	40,58
836,052	40,35
836,465	40,66
836,878	40,21
837,29	40,15
837,703	40,54
838,116	40,4
838,528	40,32
838,94	40,2
839,352	40,44
839,765	40,31
840,177	40,14
840,589	40,08
841	40,43
841,412	40,24
841,824	39,99
842,235	40,12
842,647	40,26
843,058	40,33
843,47	39,97
843,881	40,14
844,292	40,17
844,703	40,15
845,114	39,57
845,525	39,93
845,935	40,28
846,346	40,44
846,757	40,18
847,167	39,84
847,577	39,84
847,988	40,24
848,398	40,01
848,808	40,04
849,218	40,41
849,628	39,91
850,038	40,27
850,448	40,07
850,857	39,79
851,267	40,05
851,676	40,07
852,086	40,06
852,495	40,2
852,904	40
853,313	40
853,722	40,11
854,131	40,03
854,54	40,31
854,949	40
855,357	40
855,766	40,15
856,174	40,2
856,583	39,95
856,991	40
857,399	40,08
857,807	39,85
858,215	40,15
858,623	39,79
859,031	39,7
859,439	39,94
859,846	40,18
860,254	40,23
860,661	40,24
861,069	40,06
861,476	40,1
861,883	39,93
862,29	40,29
862,697	39,94
863,104	40,13
863,511	39,6
863,918	40,21
864,325	39,99
864,731	39,96
865,138	39,87
865,544	39,99
865,95	39,98
866,357	40,12
866,763	39,74
867,169	39,96
867,575	39,55
867,98	39,72
868,386	39,67
868,792	39,99
869,197	39,65
869,603	39,81
870,008	39,84
870,414	39,78
870,819	39,99
871,224	39,65
871,629	39,61
872,034	39,71
872,439	39,77
872,844	39,89
873,248	39,73
873,653	39,84
874,057	39,71
874,462	39,81
874,866	39,87
875,27	39,75
875,674	39,54
876,078	39,86
876,482	39,72
876,886	39,58
877,29	39,71
877,694	39,24
878,097	39,86
878,501	39,92
878,904	39,81
879,308	39,69
879,711	40,08
880,114	39,97
880,517	39,98
880,92	39,57
881,323	39,87
881,726	39,28
882,128	39,82
882,531	39,9
882,934	39,77
883,336	39,68
883,738	39,73
884,141	39,48
884,543	39,49
884,945	39,42
885,347	39,75
885,749	39,49
886,151	39,48
886,552	39,68
886,954	39,65
887,355	39,38
887,757	39,49
888,158	39,48
888,56	39,53
888,961	39,39
889,362	39,68
889,763	39,65
890,164	39,73
890,565	40,01
890,965	39,48
891,366	39,53
891,767	39,68
892,167	39,87
892,567	39,51
892,968	39,59
893,368	39,98
893,768	39,41
894,168	39,9
894,568	39,38
894,968	39,43
895,368	39,36
895,767	39,32
896,167	39,42
896,566	39,62
896,966	39,38
897,365	39,31
897,764	39,55
898,164	39,37
898,563	39,89
898,962	39,42
899,361	39,49
899,759	39,31
900,158	39,34
900,557	39,36
900,955	39,77
901,354	39,53
901,752	39,36
902,15	39,55
902,548	39,2
902,947	39,12
903,345	39,4
903,742	39,54
904,14	39,6
904,538	39,31
904,936	39,3
905,333	39,35
905,731	39,51
906,128	39,52
906,525	39,39
906,923	39,71
907,32	39,48
907,717	39,47
908,114	39,44
908,511	39,8
908,907	38,94
909,304	39,29
909,701	39,46
910,097	39,48
910,494	39,18
910,89	39,69
911,286	39,39
911,682	39,05
912,078	39,45
912,474	39,08
912,87	39,22
913,266	39,34
913,662	39,4
914,058	39,42
914,453	39,37
914,849	39,28
915,244	39,26
915,639	39,35
916,034	39,55
916,43	39,69
916,825	39,4
917,22	39,47
917,614	39,29
918,009	39,46
918,404	39,15
918,798	39,42
919,193	39,17
919,587	39,21
919,982	39,24
920,376	39,47
920,77	39,23
921,164	39,09
921,558	39,44
921,952	39,1
922,346	39,23
922,74	38,95
923,133	39,15
923,527	39,36
923,92	39,35
924,314	39,29
924,707	39,01
925,1	39,01
925,493	39,38
925,886	38,89
926,279	39,41
926,672	39,39
927,065	39,47
927,457	39,23
927,85	39,19
928,243	39,32
928,635	39,08
929,027	39,1
929,42	39,16
929,812	38,92
930,204	39,14
930,596	39,04
930,988	39,28
931,379	39,07
931,771	39,63
932,163	38,85
932,554	38,74
932,946	39,07
933,337	39,14
933,729	39,1
934,12	39,26
934,511	38,85
934,902	38,75
935,293	39,06
935,684	38,85
936,075	39,28
936,465	38,87
936,856	38,91
937,246	39,08
937,637	38,54
938,027	39,35
938,417	39,39
938,808	39,04
939,198	38,48
939,588	39,01
939,978	39,14
940,368	39,01
940,757	39,76
941,147	39,44
941,537	38,51
941,926	38,64
942,315	39
942,705	39,1
943,094	39,79
943,483	39,41
943,872	39,45
944,261	38,5
944,65	39,55
945,039	38,3
945,428	38,47
945,816	38,5
946,205	38,47
946,593	38,87
946,982	38,06
947,37	38,35
947,758	38,13
948,146	38,8
948,534	38,59
948,922	38,89
949,31	39,07
949,698	38,33
950,086	39,07
950,473	38,61
950,861	38,58
951,248	39,07
951,636	38,69
952,023	38,29
952,41	38,51
952,797	38,68
953,184	39,28
953,571	38,82
953,958	38,55
954,345	38,56
954,731	38,95
955,118	38,33
955,505	38,29
955,891	38,62
956,277	38,61
956,664	38,77
957,05	38,15
957,436	38,23
957,822	38,14
958,208	38,33
958,594	38,51
958,979	38,44
959,365	38,67
959,751	37,89
960,136	38,55
960,522	38,08
960,907	38,78
961,292	38,02
961,677	38,61
962,062	38,06
962,447	38,54
962,832	38,12
963,217	38,79
963,602	38,33
963,986	38,33
964,371	38,52
964,756	38,3
965,14	38,03
965,524	38,55
965,908	38,28
966,293	38,2
966,677	38,07
967,061	38,03
967,445	38,35
967,828	38,12
968,212	38,39
968,596	38,74
968,979	38,92
969,363	38,96
969,746	38,22
970,129	38,52
970,513	38,35
970,896	38,23
971,279	38,15
971,662	38,58
972,045	37,82
972,428	38,05
972,81	38,04
973,193	38,73
973,575	38,03
973,958	38,17
974,34	38,02
974,723	38,05
975,105	38,47
975,487	38,41
975,869	38,27
976,251	37,91
976,633	38,2
977,015	38,28
977,396	38,61
977,778	38,54
978,16	37,98
978,541	37,99
978,922	38,64
979,304	38,25
979,685	38,2
980,066	38,29
980,447	38,32
980,828	38,17
981,209	38,18
981,59	38,34
981,97	38,17
982,351	37,92
982,732	38,21
983,112	38,55
983,493	38,11
983,873	38,09
984,253	38,61
984,633	38,24
985,013	37,91
985,393	38,07
985,773	38,35
986,153	38,04
986,533	38,25
986,912	38,5
987,292	38,06
987,671	38,34
988,051	38,32
988,43	37,79
988,809	38,28
989,188	38,65
989,567	38,05
989,946	38,26
990,325	38,34
990,704	38,36
991,083	38,23
991,461	38,3
991,84	38,94
992,218	38,25
992,597	38,98
992,975	38,28
993,353	38,32
993,732	38,8
994,11	38,08
994,488	38,19
994,866	38,58
995,243	38,5
995,621	38,21
995,999	38,78
996,376	38,38
996,754	38,87
997,131	38,39
997,509	38,35
997,886	38,19
998,263	38,03
998,64	38,33
999,017	38,11
999,394	38,08
999,771	38,4
1000,148	37,72
1000,524	38,53
1000,901	38,25
1001,277	38,09
1001,654	38,18
1002,03	38,5
1002,406	38,36
1002,783	38,28
1003,159	38,71
1003,535	38,16
1003,911	38,29
1004,286	38,41
1004,662	38,59
1005,038	38,47
1005,414	38,65
1005,789	38,88
1006,164	38,52
1006,54	38,52
1006,915	38,46
1007,29	38,46
1007,665	38,56
1008,04	38,39
1008,415	38,56
1008,79	38,51
1009,165	38,07
1009,54	38,38
1009,914	37,92
1010,289	38,58
1010,663	38,73
1011,038	38,3
1011,412	38,54
1011,786	38,71
1012,16	38,8
1012,535	38,68
1012,909	38,54
1013,282	38,38
1013,656	38,24
1014,03	38,63
1014,404	38,04
1014,777	37,79
1015,151	38,09
1015,524	38,65
1015,897	38,94
1016,271	38,23
1016,644	38,08
1017,017	38,96
1017,39	38,51
1017,763	38,5
1018,136	38,57
1018,508	38,32
1018,881	38,36
1019,254	37,95
1019,626	37,7
1019,999	38,4
1020,371	38
1020,743	38,26
1021,116	38,67
1021,488	38,3
1021,86	38,57
1022,232	38,73
1022,604	39,01
1022,975	39,01
1023,347	38,07
1023,719	39,14
1024,09	38,68
1024,462	38,51
1024,833	38,2
1025,204	37,64
1025,576	38,57
1025,947	38,04
1026,318	38,19
1026,689	38,26
1027,06	39,38
1027,431	38,89
1027,801	38,31
1028,172	38,16
1028,543	37,8
1028,913	37,55
1029,284	38,28
1029,654	38,26
1030,024	38,21
1030,394	38,11
1030,764	38,36
1031,135	38,6
1031,504	37,95
1031,874	38,05
1032,244	38,17
1032,614	39,06
1032,983	39,44
1033,353	38,23
1033,722	38,31
1034,092	38,87
1034,461	38,36
1034,83	38,55
1035,2	38,55
1035,569	38,31
1035,938	38,29
1036,307	39
1036,675	38,92
1037,044	38,19
1037,413	38,86
1037,781	38,33
1038,15	38,93
1038,518	37,9
1038,887	39,14
1039,255	38,27
1039,623	38,16
1039,991	39,33
1040,359	38,14
1040,727	38,68
1041,095	38,21
1041,463	39,2
1041,831	38,16
1042,198	38,12
1042,566	39,37
1042,933	38,24
1043,301	38,58
1043,668	38,66
1044,035	38,35
1044,402	39,25
1044,77	38,43
1045,137	37,69
1045,503	38,99
1045,87	38,71
1046,237	38,41
1046,604	38,23
1046,97	39,08
1047,337	38,39
1047,703	38,95
1048,07	38,52
1048,436	39,27
1048,802	37,95
1049,168	38,65
1049,534	38,53
1049,9	39,39
1050,266	38,44
1050,632	38,1
1050,998	38,08
1051,364	39,44
1051,729	39,12
1052,095	39,56
1052,46	37,65
1052,825	38,54
1053,191	38,42
1053,556	38,98
1053,921	38,16
1054,286	38,07
1054,651	39,48
1055,016	38,07
1055,381	38,55
1055,745	39,7
1056,11	37,94
1056,475	39,24
1056,839	38,95
1057,203	38,24
1057,568	39,21
1057,932	38,07
1058,296	37,63
1058,66	38,33
1059,024	38,67
1059,388	37,48
1059,752	39,36
1060,116	38,67
1060,48	38,27
1060,843	39,55
1061,207	39,26
1061,57	38,29
1061,934	38,62
1062,297	38,11
1062,66	38,88
1063,023	38,6
1063,386	38,21
1063,749	38,45
1064,112	37,74
1064,475	38,48
1064,838	38,38
1065,201	37,18
1065,563	39,72
1065,926	39,19
1066,288	38,8
1066,651	37,91
1067,013	37,56
1067,375	38,88
1067,737	38,17
1068,099	37,66
1068,461	38,33
1068,823	38,8
1069,185	38,67
1069,547	39,34
1069,909	38,55
1070,27	38,16
1070,632	39,46
1070,993	38,85
1071,355	38,52
1071,716	38,1
1072,077	38,64
1072,438	39,01
1072,799	38,1
1073,16	38,67
1073,521	37,26
1073,882	38,26
1074,243	38,67
1074,603	39,4
1074,964	37,43
1075,325	37,9
1075,685	39,99
1076,045	38,8
1076,406	37,84
1076,766	38,43
1077,126	38,7
1077,486	38,41
1077,846	40,53
1078,206	36,93
1078,566	38,8
1078,925	38,81
1079,285	38,79
1079,645	38,11
1080,004	39,08
1080,364	38,33
1080,723	38,3
1081,082	36,65
1081,442	38,18
1081,801	37,71
1082,16	38,13
1082,519	39,21
1082,878	37,6
1083,237	38,68
1083,595	37,59
1083,954	39,4
1084,313	38,44
1084,671	39,07
1085,03	38,58
1085,388	37,37
1085,746	37,99
1086,104	37,73
1086,463	38,28
1086,821	38,76
1087,179	38,11
1087,537	37,18
1087,894	37,71
1088,252	37,87
1088,61	38,28
1088,967	38,58
1089,325	37,3
1089,682	36,96
1090,04	37,74
1090,397	37,56
1090,754	38,34
1091,111	37,85
1091,469	39,32
1091,826	38,32
1092,182	39,39
1092,539	37,86
1092,896	38,29
1093,253	38,22
1093,609	37,61
1093,966	38,7
1094,322	37,17
1094,679	38,75
1095,035	36,45
1095,391	38,71
1095,748	39,89
1096,104	38,22
1096,46	37,62
1096,816	37,78
1097,171	39,46
1097,527	37,75
1097,883	39,68
1098,239	37,49
1098,594	38,35
1098,95	37,79
1099,305	38,17
1099,66	39,23
1100,016	38,25
1100,371	36,7
1100,726	38,59
1101,081	36,94
1101,436	37,16
1101,791	37,64
1102,146	39,08
1102,5	38,78
1102,855	37,88
1103,21	40,31
1103,564	37,41
1103,918	38,44
1104,273	37,39
1104,627	37,86
1104,981	38,4
1105,335	39,59
1105,69	38,5
1106,043	37,44
1106,397	37,81
1106,751	36,9
1107,105	39,63
1107,459	37,44
1107,812	37,94
1108,166	38,41
1108,519	36,31
1108,873	37,27
1109,226	37,74
1109,579	40,1
1109,932	37,26
1110,285	37,84
1110,638	37,01
1110,991	37,84
1111,344	35,9
1111,697	37,07
1112,05	38,8
1112,402	38,82
1112,755	35,24
1113,107	36,81
1113,46	39,41
1113,812	38,4
1114,164	36,43
1114,517	37,95
1114,869	40,45
1115,221	34,9
1115,573	50
1115,924	31,92
