Data from F_5_0_Relative__5__00143.txt Node

Date: Mon Jan 29 13:05:01 CET 2024
User: diatiterra
Spectrometer: HDX00911
Trigger mode: 0
Integration Time (sec): 6,000000E-3
Scans to average: 2
Nonlinearity correction enabled: false
Boxcar width: 0
Storing dark spectrum: false
XAxis mode: Wavelengths
Number of Pixels in Spectrum: 2068
>>>>>Begin Spectral Data<<<<<
194,468	17,07
195,025	16,08
195,581	26,16
196,138	21,64
196,694	22,87
197,251	24,4
197,807	21,38
198,363	21,38
198,919	21,2
199,474	20,44
200,03	10,82
200,586	19,13
201,141	18,8
201,696	20,22
202,251	18,33
202,806	13,96
203,361	18,99
203,916	17,7
204,471	13,83
205,025	17,42
205,58	24,83
206,134	14,58
206,688	14,53
207,242	14,65
207,796	20,41
208,35	12,3
208,904	24,08
209,457	15,27
210,011	17,12
210,564	19,33
211,117	21,86
211,67	19,92
212,223	20,13
212,776	17,54
213,329	21,41
213,881	9,45
214,434	16,76
214,986	19,5
215,538	16,59
216,09	23,93
216,642	25,27
217,194	24,17
217,746	18,01
218,297	19,74
218,849	20,6
219,4	18,79
219,951	21,78
220,502	26,12
221,053	17,02
221,604	21,88
222,155	14,25
222,705	21,5
223,256	24,51
223,806	24,11
224,356	16,03
224,906	18,45
225,456	18,74
226,006	15,23
226,556	18,79
227,106	25,89
227,655	23,67
228,204	15,27
228,754	21,15
229,303	14,73
229,852	25,49
230,401	8,11
230,949	23,52
231,498	26,89
232,047	20,77
232,595	21,55
233,143	21,59
233,691	24,18
234,239	15,18
234,787	12,95
235,335	20,43
235,883	24,74
236,43	17,36
236,978	21,99
237,525	16,29
238,072	24,84
238,619	22,9
239,166	25,39
239,713	24,22
240,26	18,46
240,806	26,62
241,353	20,46
241,899	24,23
242,445	20,82
242,991	25,38
243,537	19,44
244,083	21,16
244,629	25,64
245,174	13,54
245,72	25,78
246,265	20,75
246,81	21,44
247,355	21,65
247,9	14,44
248,445	18,12
248,99	24,23
249,534	22,22
250,079	13,78
250,623	9,66
251,168	23,49
251,712	22,37
252,256	17,42
252,8	21,79
253,343	12,56
253,887	25,53
254,43	18,67
254,974	26,59
255,517	19,62
256,06	19,65
256,603	18,64
257,146	14,39
257,689	23,16
258,232	28,57
258,774	19,55
259,317	20,77
259,859	34,17
260,401	22,08
260,943	20,22
261,485	30,67
262,027	28,45
262,569	30,5
263,11	23,29
263,652	24
264,193	24,73
264,734	22,94
265,275	22,77
265,816	28,35
266,357	29,48
266,898	12,56
267,438	30,28
267,979	27,88
268,519	28,23
269,059	13,55
269,6	17,83
270,14	18,02
270,68	25
271,219	19,83
271,759	27,19
272,298	22,27
272,838	21,56
273,377	18,31
273,916	25,28
274,455	19,38
274,994	26,87
275,533	20,32
276,072	27,25
276,61	25,55
277,149	18,93
277,687	19,22
278,225	19,23
278,763	23,53
279,301	23,78
279,839	21,29
280,377	23,93
280,914	24,13
281,452	18,12
281,989	31,65
282,526	21,67
283,064	17,54
283,601	23,67
284,137	21,9
284,674	22,09
285,211	23,53
285,747	26,73
286,284	23,52
286,82	28,93
287,356	32,01
287,892	21,77
288,428	18,45
288,964	29,65
289,5	20,22
290,035	26,93
290,571	25,12
291,106	21,04
291,641	25,91
292,176	20,05
292,711	31,8
293,246	23,85
293,781	30,25
294,315	19,2
294,85	24,56
295,384	23,82
295,918	19,56
296,453	30,66
296,987	13,03
297,52	23,9
298,054	14,99
298,588	26,3
299,121	19,96
299,655	17,87
300,188	18,22
300,721	25,35
301,254	24,43
301,787	29,3
302,32	18,43
302,853	20,48
303,385	29,96
303,918	12,03
304,45	22,81
304,982	19,78
305,514	30,79
306,046	25,82
306,578	24,71
307,11	24,01
307,641	27,23
308,173	25,45
308,704	22,77
309,236	25,79
309,767	21,41
310,298	29,27
310,829	27,7
311,359	26,87
311,89	30,02
312,421	10,09
312,951	17,21
313,481	17,51
314,012	21,48
314,542	21,18
315,072	16,33
315,601	14,86
316,131	15,1
316,661	20,53
317,19	21,95
317,72	20
318,249	17,61
318,778	10,29
319,307	22,59
319,836	19,63
320,365	27,65
320,893	17,05
321,422	18,2
321,95	18,89
322,479	22,57
323,007	23,67
323,535	17,91
324,063	18,44
324,591	17,97
325,118	27,69
325,646	18,87
326,173	22,6
326,701	22,62
327,228	24,09
327,755	12,68
328,282	13,37
328,809	17,88
329,336	15,47
329,862	28,41
330,389	17,24
330,915	19,09
331,441	20,51
331,968	13,25
332,494	23
333,02	13,12
333,545	20,32
334,071	13,62
334,597	14,9
335,122	15,59
335,648	17,27
336,173	14,97
336,698	13,3
337,223	17,35
337,748	15,55
338,272	14,44
338,797	16,05
339,322	11,99
339,846	9,57
340,37	22,28
340,894	18,04
341,419	14,92
341,942	16,63
342,466	14,61
342,99	20,75
343,514	18,45
344,037	20
344,56	11,13
345,084	13,26
345,607	14,44
346,13	14,12
346,653	14,2
347,175	13,09
347,698	10,02
348,221	12,1
348,743	11,15
349,265	15,13
349,787	16,73
350,309	19,66
350,831	18,1
351,353	14,29
351,875	13,76
352,397	17
352,918	17,06
353,439	15,21
353,961	16,3
354,482	11,78
355,003	13,75
355,524	14,79
356,044	17,52
356,565	13,37
357,086	16,94
357,606	12,6
358,126	18,84
358,646	14,45
359,167	15,01
359,687	9,75
360,206	14,77
360,726	8,7
361,246	15,15
361,765	11,62
362,285	13,7
362,804	15,43
363,323	18,12
363,842	11,21
364,361	10,16
364,88	13,29
365,398	9,34
365,917	13,04
366,435	10,41
366,954	11,72
367,472	11,17
367,99	13,1
368,508	14,17
369,026	11,26
369,544	10,98
370,061	9,33
370,579	13,36
371,096	12,02
371,613	12,74
372,131	9,2
372,648	7,64
373,165	10,29
373,681	9,98
374,198	6,81
374,715	10,52
375,231	9,53
375,747	7,07
376,264	7,82
376,78	12,09
377,296	3,79
377,812	10,06
378,327	8,53
378,843	11,68
379,359	10,85
379,874	8,41
380,389	7,66
380,905	10,55
381,42	7,65
381,935	6,22
382,449	9,11
382,964	7,3
383,479	6,37
383,993	5,49
384,508	5,88
385,022	7,2
385,536	5,99
386,05	6,3
386,564	8,41
387,078	5,96
387,592	8,25
388,105	6,68
388,619	6,78
389,132	4,56
389,645	7,4
390,158	7,59
390,671	6,6
391,184	4,88
391,697	6,71
392,21	5,95
392,722	5,27
393,235	8,81
393,747	4,75
394,259	7,51
394,771	6,43
395,283	6,65
395,795	3,9
396,307	6,34
396,818	6,92
397,33	6
397,841	6,12
398,353	3,96
398,864	5,92
399,375	5,78
399,886	6,11
400,397	4,72
400,907	4,13
401,418	3,88
401,928	5,2
402,439	5
402,949	4,19
403,459	2,74
403,969	5,19
404,479	3,95
404,989	3,46
405,498	4,1
406,008	4,05
406,517	3,55
407,027	3,71
407,536	3,85
408,045	3,43
408,554	4,54
409,063	2,35
409,572	3,22
410,08	3,34
410,589	3,58
411,097	2,81
411,606	2,02
412,114	2,59
412,622	2,59
413,13	1,64
413,638	2,39
414,145	2,06
414,653	1,95
415,16	1,74
415,668	2,13
416,175	1,98
416,682	1,86
417,189	1,89
417,696	1,81
418,203	1,92
418,71	1,68
419,216	1,71
419,723	1,93
420,229	1,63
420,735	2,18
421,242	1,53
421,748	1,38
422,254	1,82
422,759	1,58
423,265	1,51
423,771	2,26
424,276	1,79
424,781	2,01
425,287	1,65
425,792	1,31
426,297	1,26
426,802	1,33
427,306	1,6
427,811	1,18
428,316	1,53
428,82	1,48
429,324	1,24
429,829	1,51
430,333	1,45
430,837	1,39
431,34	1,55
431,844	1,09
432,348	1,29
432,851	1,09
433,355	1,31
433,858	1,2
434,361	1,28
434,864	1,25
435,367	0,99
435,87	1,46
436,373	1,21
436,876	1,6
437,378	1,54
437,88	1,35
438,383	1,45
438,885	1,48
439,387	1,39
439,889	1,55
440,391	1,21
440,892	1,2
441,394	1,19
441,896	1,13
442,397	1,45
442,898	1,28
443,399	1,37
443,9	1,35
444,401	1,34
444,902	1,4
445,403	1,27
445,903	1,39
446,404	1,28
446,904	1,22
447,405	1,16
447,905	1,33
448,405	1,43
448,905	1,43
449,404	1,33
449,904	1,21
450,404	1,39
450,903	1,17
451,403	1,23
451,902	1,55
452,401	1,23
452,9	1,36
453,399	1,44
453,898	1,57
454,396	1,74
454,895	1,45
455,393	1,47
455,892	1,38
456,39	1,44
456,888	1,62
457,386	1,34
457,884	1,43
458,382	1,44
458,879	1,3
459,377	1,57
459,874	1,44
460,372	1,47
460,869	1,42
461,366	1,4
461,863	1,5
462,36	1,45
462,857	1,55
463,353	1,51
463,85	1,42
464,346	1,23
464,843	1,39
465,339	1,56
465,835	1,49
466,331	1,46
466,827	1,57
467,323	1,29
467,818	1,38
468,314	1,35
468,809	1,51
469,305	1,36
469,8	1,44
470,295	1,43
470,79	1,28
471,285	1,55
471,78	1,39
472,274	1,33
472,769	1,36
473,263	1,42
473,758	1,58
474,252	1,33
474,746	1,61
475,24	1,41
475,734	1,38
476,228	1,56
476,721	1,45
477,215	1,55
477,708	1,53
478,202	1,58
478,695	1,58
479,188	1,4
479,681	1,52
480,174	1,62
480,667	1,45
481,159	1,38
481,652	1,47
482,144	1,4
482,637	1,51
483,129	1,51
483,621	1,52
484,113	1,57
484,605	1,66
485,097	1,42
485,588	1,5
486,08	1,47
486,571	1,64
487,063	1,59
487,554	1,7
488,045	1,63
488,536	1,58
489,027	1,67
489,518	1,6
490,008	1,6
490,499	1,6
490,989	1,59
491,48	1,7
491,97	1,92
492,46	1,78
492,95	1,77
493,44	1,81
493,93	1,73
494,419	1,81
494,909	1,84
495,398	1,77
495,888	1,87
496,377	1,99
496,866	2,02
497,355	1,97
497,844	2,12
498,333	2,18
498,821	2,19
499,31	2,23
499,798	2,18
500,287	2,4
500,775	2,25
501,263	2,53
501,751	2,36
502,239	2,56
502,727	2,43
503,215	2,51
503,702	2,96
504,19	2,84
504,677	2,84
505,164	3,07
505,651	3,01
506,139	2,97
506,625	3,2
507,112	3,21
507,599	3,31
508,086	3,57
508,572	3,53
509,058	3,82
509,545	3,98
510,031	3,85
510,517	4,07
511,003	4,33
511,489	4,31
511,974	4,55
512,46	4,71
512,946	4,8
513,431	4,87
513,916	4,95
514,401	5,05
514,887	5,55
515,371	5,44
515,856	5,76
516,341	5,87
516,826	5,98
517,31	6,03
517,795	6,31
518,279	6,33
518,763	6,49
519,247	6,84
519,731	6,77
520,215	7,14
520,699	7,2
521,182	7,53
521,666	7,67
522,149	7,65
522,633	8,01
523,116	8,04
523,599	8,35
524,082	8,7
524,565	8,65
525,048	8,88
525,53	8,84
526,013	9,37
526,495	9,28
526,978	9,59
527,46	9,67
527,942	9,89
528,424	10,05
528,906	10,35
529,388	10,27
529,87	10,2
530,351	10,15
530,833	10,49
531,314	10,44
531,795	10,62
532,277	10,61
532,758	10,95
533,238	11,13
533,719	11,06
534,2	10,98
534,681	11,41
535,161	11,22
535,642	11
536,122	11,54
536,602	11,62
537,082	11,45
537,562	11,45
538,042	11,53
538,522	11,59
539,001	11,64
539,481	11,74
539,96	11,65
540,44	11,94
540,919	11,7
541,398	11,78
541,877	11,99
542,356	11,69
542,835	11,81
543,313	11,8
543,792	11,95
544,27	11,99
544,749	11,92
545,227	11,91
545,705	11,87
546,183	12,26
546,661	12,1
547,139	11,86
547,616	12,1
548,094	12,09
548,571	12,07
549,049	12,23
549,526	12,24
550,003	12,17
550,48	12,31
550,957	12,23
551,434	12,42
551,911	12,11
552,387	12,15
552,864	12,21
553,34	12,28
553,817	12,54
554,293	12,51
554,769	12,26
555,245	12,55
555,721	12
556,197	12,46
556,672	12,1
557,148	12,14
557,623	12
558,099	12,04
558,574	12,16
559,049	12,01
559,524	12,21
559,999	11,92
560,474	12,05
560,948	11,82
561,423	11,81
561,897	12,06
562,372	11,76
562,846	11,71
563,32	11,72
563,794	11,53
564,268	11,53
564,742	11,45
565,216	11,48
565,69	11,27
566,163	11,18
566,636	11,29
567,11	11,07
567,583	11
568,056	10,82
568,529	10,52
569,002	10,66
569,475	10,74
569,947	10,61
570,42	10,44
570,892	10,31
571,365	10,43
571,837	10
572,309	10,25
572,781	10,15
573,253	9,95
573,725	9,48
574,197	9,58
574,668	9,55
575,14	9,39
575,611	9,25
576,082	9,42
576,554	9,23
577,025	9,42
577,496	8,97
577,967	9,13
578,437	8,88
578,908	8,64
579,379	8,69
579,849	8,75
580,319	8,66
580,79	8,63
581,26	8,36
581,73	8,41
582,2	8,38
582,669	8,27
583,139	8,15
583,609	8,17
584,078	8,02
584,548	8,05
585,017	7,94
585,486	7,76
585,955	7,84
586,424	7,82
586,893	7,93
587,362	7,75
587,83	7,6
588,299	7,65
588,767	7,7
589,236	7,51
589,704	7,62
590,172	7,47
590,64	7,25
591,108	7,43
591,576	7,38
592,043	7,36
592,511	7,35
592,978	7,27
593,446	7,19
593,913	7,02
594,38	7,15
594,847	7,25
595,314	6,98
595,781	7,09
596,248	7,22
596,715	6,99
597,181	7,01
597,647	7,05
598,114	7,02
598,58	7,09
599,046	6,99
599,512	6,91
599,978	6,94
600,444	7,01
600,91	6,93
601,375	6,79
601,841	6,82
602,306	6,97
602,771	6,82
603,236	6,77
603,702	6,82
604,167	6,7
604,631	6,78
605,096	6,69
605,561	6,62
606,025	6,65
606,49	6,49
606,954	6,57
607,418	6,44
607,882	6,42
608,347	6,35
608,81	6,47
609,274	6,21
609,738	6,22
610,202	6,16
610,665	6,14
611,128	6,03
611,592	5,92
612,055	5,87
612,518	5,84
612,981	5,81
613,444	5,79
613,907	5,62
614,369	5,72
614,832	5,7
615,294	5,52
615,757	5,64
616,219	5,48
616,681	5,44
617,143	5,45
617,605	5,29
618,067	5,37
618,529	5,35
618,99	5,2
619,452	5,07
619,913	5,13
620,375	5,18
620,836	5,01
621,297	5,11
621,758	5,12
622,219	4,93
622,68	4,92
623,14	4,83
623,601	4,99
624,061	4,94
624,522	4,85
624,982	4,95
625,442	4,87
625,902	4,94
626,362	4,97
626,822	4,75
627,282	4,76
627,742	4,85
628,201	4,84
628,661	4,86
629,12	4,79
629,579	4,75
630,038	4,75
630,497	4,91
630,956	4,81
631,415	4,77
631,874	4,74
632,332	4,63
632,791	4,76
633,249	4,65
633,708	4,75
634,166	4,66
634,624	4,72
635,082	4,51
635,54	4,56
635,998	4,55
636,455	4,54
636,913	4,42
637,37	4,37
637,828	4,37
638,285	4,36
638,742	4,26
639,199	4,18
639,656	4,12
640,113	4,06
640,57	3,92
641,027	3,96
641,483	3,83
641,94	3,88
642,396	3,78
642,852	3,7
643,309	3,63
643,765	3,57
644,221	3,64
644,676	3,52
645,132	3,39
645,588	3,4
646,043	3,37
646,499	3,26
646,954	3,2
647,409	3,01
647,864	3,11
648,319	3
648,774	2,96
649,229	2,91
649,684	2,95
650,139	2,92
650,593	2,81
651,047	2,8
651,502	2,88
651,956	2,8
652,41	2,65
652,864	2,71
653,318	2,73
653,772	2,62
654,225	2,71
654,679	2,69
655,133	2,62
655,586	2,58
656,039	2,59
656,492	2,6
656,946	2,56
657,399	2,55
657,851	2,52
658,304	2,48
658,757	2,39
659,209	2,34
659,662	2,37
660,114	2,38
660,567	2,3
661,019	2,3
661,471	2,22
661,923	2,22
662,375	2,17
662,826	2,17
663,278	2,15
663,73	2,01
664,181	2,05
664,632	2,13
665,084	2,03
665,535	2,03
665,986	2
666,437	2,03
666,888	2
667,338	2,05
667,789	2,05
668,24	2,05
668,69	2
669,14	2,07
669,591	2,07
670,041	2,05
670,491	2,14
670,941	2,17
671,391	2,16
671,84	2,3
672,29	2,33
672,74	2,35
673,189	2,39
673,638	2,41
674,088	2,43
674,537	2,54
674,986	2,61
675,435	2,68
675,883	2,63
676,332	2,72
676,781	2,82
677,229	2,89
677,678	3,01
678,126	3,01
678,574	3,12
679,022	3,26
679,47	3,21
679,918	3,38
680,366	3,5
680,814	3,62
681,261	3,61
681,709	3,67
682,156	3,77
682,604	3,9
683,051	3,94
683,498	3,93
683,945	4,07
684,392	4,12
684,839	4,17
685,286	4,36
685,732	4,32
686,179	4,41
686,625	4,53
687,071	4,59
687,518	4,65
687,964	4,74
688,41	4,96
688,856	4,87
689,301	5,06
689,747	5,21
690,193	5,37
690,638	5,5
691,084	5,75
691,529	5,92
691,974	6,08
692,419	6,38
692,864	6,56
693,309	6,76
693,754	6,95
694,199	7,34
694,643	7,64
695,088	7,93
695,532	8,26
695,977	8,55
696,421	8,78
696,865	9,05
697,309	9,38
697,753	9,61
698,197	9,98
698,64	10,3
699,084	10,51
699,527	10,89
699,971	11,1
700,414	11,48
700,857	11,73
701,3	11,95
701,743	12,38
702,186	12,5
702,629	12,87
703,072	13,08
703,515	13,46
703,957	13,74
704,399	13,94
704,842	14,06
705,284	14,31
705,726	14,63
706,168	14,81
706,61	15,01
707,052	15,35
707,494	15,61
707,935	15,71
708,377	15,98
708,818	16,24
709,26	16,48
709,701	16,51
710,142	17,02
710,583	17
711,024	17,26
711,465	17,36
711,905	17,57
712,346	17,81
712,787	17,93
713,227	18,11
713,667	18,33
714,108	18,66
714,548	18,86
714,988	18,91
715,428	19,37
715,868	19,08
716,307	19,55
716,747	19,68
717,186	19,78
717,626	19,71
718,065	19,99
718,504	20,29
718,944	20,42
719,383	20,58
719,822	20,76
720,261	20,83
720,699	20,8
721,138	20,94
721,576	21,32
722,015	21,25
722,453	21,52
722,892	21,35
723,33	21,55
723,768	21,7
724,206	21,87
724,644	22,01
725,081	21,91
725,519	22,19
725,957	22,05
726,394	22,34
726,832	22,4
727,269	22,53
727,706	22,51
728,143	22,8
728,58	22,73
729,017	22,69
729,454	22,89
729,89	22,93
730,327	22,94
730,764	23,21
731,2	23,1
731,636	23,18
732,072	23,29
732,509	23,26
732,945	23,29
733,38	23,37
733,816	23,14
734,252	23,43
734,688	23,35
735,123	23,62
735,559	23,73
735,994	23,47
736,429	23,8
736,864	23,49
737,299	23,67
737,734	23,68
738,169	23,71
738,604	23,66
739,038	23,76
739,473	23,95
739,907	23,84
740,342	23,84
740,776	23,56
741,21	23,49
741,644	23,69
742,078	23,81
742,512	23,76
742,946	23,7
743,379	23,77
743,813	23,69
744,246	23,78
744,68	23,51
745,113	23,59
745,546	23,74
745,979	23,58
746,412	23,71
746,845	23,81
747,278	23,61
747,711	23,71
748,143	23,71
748,576	23,87
749,008	23,46
749,441	23,54
749,873	23,42
750,305	23,7
750,737	23,81
751,169	23,36
751,601	23,56
752,032	23,62
752,464	23,59
752,896	23,37
753,327	23,56
753,758	23,4
754,19	23,48
754,621	23,45
755,052	23,45
755,483	23,24
755,914	23,14
756,344	23,21
756,775	23,22
757,206	23,35
757,636	23,13
758,066	23,35
758,497	23,13
758,927	23,04
759,357	23,05
759,787	23,14
760,217	23,12
760,647	23,12
761,076	23,18
761,506	22,77
761,935	23,02
762,365	23,02
762,794	23,16
763,223	23,16
763,653	22,97
764,082	23,02
764,51	22,99
764,939	22,96
765,368	22,82
765,797	23,09
766,225	22,87
766,654	22,91
767,082	22,78
767,51	22,74
767,938	22,82
768,367	22,87
768,795	22,75
769,222	22,76
769,65	22,78
770,078	22,76
770,505	22,54
770,933	22,63
771,36	22,73
771,788	22,71
772,215	22,61
772,642	22,68
773,069	22,51
773,496	22,72
773,923	22,53
774,349	22,59
774,776	22,9
775,203	22,5
775,629	22,67
776,055	22,49
776,482	22,61
776,908	22,71
777,334	22,58
777,76	22,4
778,186	22,5
778,611	22,37
779,037	22,42
779,463	22,36
779,888	22,53
780,314	22,56
780,739	22,31
781,164	22,54
781,589	22,37
782,014	22,24
782,439	22,54
782,864	22,36
783,289	22,31
783,713	22,47
784,138	22,43
784,562	22,42
784,987	22,37
785,411	22,33
785,835	22,14
786,259	22,13
786,683	22,16
787,107	22,39
787,531	22,47
787,954	22,22
788,378	22,14
788,802	22,33
789,225	22,18
789,648	22,27
790,071	22,35
790,495	22,33
790,918	22,42
791,34	22,36
791,763	22,18
792,186	22,3
792,609	22,26
793,031	22,44
793,454	22,21
793,876	22,37
794,298	22,28
794,721	22,27
795,143	22,06
795,565	22,11
795,986	22,22
796,408	22,08
796,83	22,08
797,252	22,11
797,673	21,95
798,094	21,97
798,516	22,35
798,937	22,08
799,358	22,22
799,779	22,03
800,2	22,11
800,621	22,14
801,042	22,04
801,462	22,16
801,883	22,14
802,303	22,05
802,724	21,95
803,144	22,14
803,564	21,91
803,984	22,02
804,404	22,13
804,824	22,05
805,244	22,05
805,664	22,15
806,084	22,04
806,503	21,92
806,923	22,27
807,342	22,35
807,761	21,79
808,18	21,94
808,599	22,01
809,018	22,01
809,437	21,91
809,856	21,97
810,275	21,96
810,693	22,2
811,112	22,14
811,53	22,04
811,949	21,93
812,367	21,95
812,785	22,05
813,203	22,19
813,621	22,03
814,039	22,02
814,457	21,92
814,874	21,91
815,292	21,93
815,709	22,01
816,127	22,07
816,544	21,92
816,961	22
817,378	22
817,795	21,99
818,212	21,89
818,629	22,05
819,046	22,01
819,462	22
819,879	21,83
820,295	22
820,712	21,98
821,128	21,98
821,544	21,78
821,96	21,93
822,376	22,05
822,792	21,97
823,208	21,99
823,624	21,86
824,039	22
824,455	21,92
824,87	21,85
825,286	21,89
825,701	21,77
826,116	21,6
826,531	21,84
826,946	21,94
827,361	21,9
827,776	22,05
828,19	21,78
828,605	21,99
829,02	21,99
829,434	21,69
829,848	21,82
830,263	21,79
830,677	21,9
831,091	21,9
831,505	21,87
831,919	22
832,332	21,74
832,746	21,74
833,16	21,8
833,573	21,89
833,987	21,76
834,4	21,73
834,813	21,75
835,226	21,86
835,639	21,79
836,052	21,83
836,465	21,83
836,878	21,84
837,29	21,89
837,703	21,75
838,116	21,79
838,528	21,64
838,94	21,88
839,352	21,91
839,765	21,93
840,177	21,86
840,589	21,88
841	21,59
841,412	21,67
841,824	21,83
842,235	21,72
842,647	21,65
843,058	21,79
843,47	21,7
843,881	21,96
844,292	21,82
844,703	21,74
845,114	21,85
845,525	21,72
845,935	21,73
846,346	21,84
846,757	21,93
847,167	21,61
847,577	21,7
847,988	21,74
848,398	21,91
848,808	21,8
849,218	21,79
849,628	21,8
850,038	21,82
850,448	21,55
850,857	21,9
851,267	21,56
851,676	21,9
852,086	21,7
852,495	21,85
852,904	21,5
853,313	21,55
853,722	21,8
854,131	21,63
854,54	21,67
854,949	21,82
855,357	21,65
855,766	21,66
856,174	21,86
856,583	21,75
856,991	21,68
857,399	21,65
857,807	21,67
858,215	21,72
858,623	21,54
859,031	21,6
859,439	21,73
859,846	21,72
860,254	21,5
860,661	21,71
861,069	21,47
861,476	21,77
861,883	21,63
862,29	21,57
862,697	21,53
863,104	21,58
863,511	21,45
863,918	21,67
864,325	21,61
864,731	21,41
865,138	21,64
865,544	21,82
865,95	21,68
866,357	21,63
866,763	21,63
867,169	21,44
867,575	21,62
867,98	21,61
868,386	21,7
868,792	21,73
869,197	21,29
869,603	21,69
870,008	21,46
870,414	21,58
870,819	21,47
871,224	21,59
871,629	21,41
872,034	21,5
872,439	21,58
872,844	21,44
873,248	21,64
873,653	21,37
874,057	21,4
874,462	21,8
874,866	21,65
875,27	21,6
875,674	21,44
876,078	21,45
876,482	21,61
876,886	21,25
877,29	21,48
877,694	21,64
878,097	21,57
878,501	21,73
878,904	21,61
879,308	21,64
879,711	21,75
880,114	21,57
880,517	21,65
880,92	21,63
881,323	21,36
881,726	21,45
882,128	21,52
882,531	21,7
882,934	21,43
883,336	21,3
883,738	21,38
884,141	21,51
884,543	21,49
884,945	21,37
885,347	21,69
885,749	21,45
886,151	21,49
886,552	21,49
886,954	21,39
887,355	21,48
887,757	21,36
888,158	21,76
888,56	21,61
888,961	21,36
889,362	21,61
889,763	21,47
890,164	21,49
890,565	21,49
890,965	21,39
891,366	21,53
891,767	21,55
892,167	21,41
892,567	21,5
892,968	21,69
893,368	21,38
893,768	21,54
894,168	21,5
894,568	21,23
894,968	21,41
895,368	21,53
895,767	21,53
896,167	21,35
896,566	21,38
896,966	21,37
897,365	21,21
897,764	21,48
898,164	21,28
898,563	21,37
898,962	21,41
899,361	21,54
899,759	21,45
900,158	21,56
900,557	21,11
900,955	21,46
901,354	21,5
901,752	21,56
902,15	21,27
902,548	20,94
902,947	21,33
903,345	21,61
903,742	21,7
904,14	21,42
904,538	21,29
904,936	21,41
905,333	21,44
905,731	21,45
906,128	21,32
906,525	21,32
906,923	21,42
907,32	21,3
907,717	21,47
908,114	21,19
908,511	21,4
908,907	21,44
909,304	21,49
909,701	21,06
910,097	21,36
910,494	21,41
910,89	21,35
911,286	21,48
911,682	21,39
912,078	21,44
912,474	21,37
912,87	21,25
913,266	21,37
913,662	21,2
914,058	21,48
914,453	21,21
914,849	21,25
915,244	21,29
915,639	21,5
916,034	21,39
916,43	21,32
916,825	21,37
917,22	21,38
917,614	21,29
918,009	21,48
918,404	21,26
918,798	21,57
919,193	21,33
919,587	21,28
919,982	21,08
920,376	21,46
920,77	21,13
921,164	21,42
921,558	21,34
921,952	21,29
922,346	21,18
922,74	21,37
923,133	21,03
923,527	21,19
923,92	21,43
924,314	21,32
924,707	21,13
925,1	21,15
925,493	21,38
925,886	21,19
926,279	21,05
926,672	21,34
927,065	21,18
927,457	21,3
927,85	21,15
928,243	21,17
928,635	21,05
929,027	21,11
929,42	21,18
929,812	21,17
930,204	20,98
930,596	21,28
930,988	21,18
931,379	21,18
931,771	21,12
932,163	21,44
932,554	21,04
932,946	21,29
933,337	21,15
933,729	21,62
934,12	21,06
934,511	21,26
934,902	21,04
935,293	21,01
935,684	21,21
936,075	21,11
936,465	21,22
936,856	20,91
937,246	21,15
937,637	21,15
938,027	21,28
938,417	21,27
938,808	20,87
939,198	21,08
939,588	20,8
939,978	21,35
940,368	20,81
940,757	20,94
941,147	20,94
941,537	21,14
941,926	21,07
942,315	21,18
942,705	21,4
943,094	21,36
943,483	21,02
943,872	21,02
944,261	21,06
944,65	21,17
945,039	20,91
945,428	21,03
945,816	21,02
946,205	20,82
946,593	21,28
946,982	20,72
947,37	20,99
947,758	20,97
948,146	21,1
948,534	21,12
948,922	21,29
949,31	20,91
949,698	20,51
950,086	21,41
950,473	20,7
950,861	21,02
951,248	21,02
951,636	20,67
952,023	20,32
952,41	21,09
952,797	20,63
953,184	21,11
953,571	20,65
953,958	20,49
954,345	20,44
954,731	20,93
955,118	20,97
955,505	20,58
955,891	20,9
956,277	21,13
956,664	20,66
957,05	20,92
957,436	20,82
957,822	20,43
958,208	20,78
958,594	20,63
958,979	21,03
959,365	20,62
959,751	20,71
960,136	20,76
960,522	20,4
960,907	20,97
961,292	20,7
961,677	20,66
962,062	20,52
962,447	20,98
962,832	20,35
963,217	20,89
963,602	20,51
963,986	21,12
964,371	20,19
964,756	20,47
965,14	20,42
965,524	20,7
965,908	20,72
966,293	20,09
966,677	20,31
967,061	20,29
967,445	20,63
967,828	20,81
968,212	20,67
968,596	20,41
968,979	20,54
969,363	20,47
969,746	20,54
970,129	20,43
970,513	20,1
970,896	20,69
971,279	20,66
971,662	20,26
972,045	20,46
972,428	20,59
972,81	20,57
973,193	20,82
973,575	20,66
973,958	20,82
974,34	20,88
974,723	20,44
975,105	20,59
975,487	20,47
975,869	20,77
976,251	20,92
976,633	20,31
977,015	20,67
977,396	20,41
977,778	20,41
978,16	20,65
978,541	20,81
978,922	21,02
979,304	20,38
979,685	20,53
980,066	20,75
980,447	20,81
980,828	20,8
981,209	20,61
981,59	20,52
981,97	20,38
982,351	20,83
982,732	20,47
983,112	20,66
983,493	21
983,873	20,97
984,253	20,8
984,633	20,69
985,013	20,45
985,393	20,78
985,773	20,5
986,153	20,64
986,533	20,72
986,912	21,05
987,292	20,83
987,671	20,41
988,051	20,66
988,43	20,64
988,809	20,61
989,188	20,66
989,567	20,92
989,946	20,6
990,325	20,42
990,704	20,55
991,083	21,04
991,461	20,81
991,84	20,68
992,218	20,44
992,597	20,84
992,975	20,94
993,353	20,66
993,732	20,57
994,11	20,83
994,488	21,07
994,866	20,74
995,243	20,76
995,621	20,79
995,999	20,54
996,376	20,47
996,754	20,54
997,131	20,89
997,509	20,53
997,886	20,53
998,263	20,6
998,64	20,51
999,017	20,6
999,394	20,76
999,771	20,69
1000,148	20,78
1000,524	20,48
1000,901	20,64
1001,277	20,82
1001,654	20,81
1002,03	20,67
1002,406	20,61
1002,783	20,69
1003,159	20,73
1003,535	20,55
1003,911	20,66
1004,286	20,59
1004,662	20,74
1005,038	20,89
1005,414	20,96
1005,789	20,64
1006,164	20,28
1006,54	21,04
1006,915	20,89
1007,29	20,7
1007,665	20,91
1008,04	20,46
1008,415	20,63
1008,79	20,62
1009,165	20,36
1009,54	20,45
1009,914	20,41
1010,289	20,45
1010,663	20,75
1011,038	20,61
1011,412	20,72
1011,786	20,48
1012,16	20,1
1012,535	20,74
1012,909	20,25
1013,282	21,13
1013,656	20,9
1014,03	20,45
1014,404	20,74
1014,777	20,27
1015,151	20,85
1015,524	20,93
1015,897	20,55
1016,271	21,02
1016,644	20,59
1017,017	21
1017,39	20,79
1017,763	20,56
1018,136	20,73
1018,508	20,82
1018,881	20,92
1019,254	20,76
1019,626	20,41
1019,999	20,4
1020,371	20,67
1020,743	20,83
1021,116	20,84
1021,488	21,05
1021,86	20,63
1022,232	20,78
1022,604	20,37
1022,975	20,97
1023,347	20,37
1023,719	20,87
1024,09	20,86
1024,462	20,71
1024,833	20,43
1025,204	20,4
1025,576	20,66
1025,947	20,83
1026,318	20,74
1026,689	20,9
1027,06	20,84
1027,431	20,8
1027,801	20,33
1028,172	21,22
1028,543	21,12
1028,913	21,03
1029,284	20,62
1029,654	20,56
1030,024	20,71
1030,394	21,1
1030,764	21,02
1031,135	20,67
1031,504	20,28
1031,874	20,69
1032,244	20,42
1032,614	21,11
1032,983	20,76
1033,353	20,87
1033,722	21,2
1034,092	21,17
1034,461	20,48
1034,83	20,72
1035,2	21,22
1035,569	20,97
1035,938	20,64
1036,307	21,04
1036,675	20,92
1037,044	20,65
1037,413	20,55
1037,781	21,09
1038,15	20,86
1038,518	20,72
1038,887	21,18
1039,255	20,72
1039,623	21,12
1039,991	21,12
1040,359	20,9
1040,727	21,42
1041,095	20,2
1041,463	21,03
1041,831	20,83
1042,198	21,33
1042,566	21,17
1042,933	20,18
1043,301	21,24
1043,668	20,59
1044,035	21,61
1044,402	21,04
1044,77	21,17
1045,137	20,27
1045,503	21
1045,87	20,7
1046,237	20,64
1046,604	21,06
1046,97	21,25
1047,337	21,46
1047,703	21,31
1048,07	21,25
1048,436	20,75
1048,802	20,21
1049,168	20,61
1049,534	21,65
1049,9	21,92
1050,266	21,38
1050,632	21,52
1050,998	20,8
1051,364	21,59
1051,729	20,99
1052,095	21,13
1052,46	21,17
1052,825	20,95
1053,191	20,78
1053,556	21,22
1053,921	20,53
1054,286	20,97
1054,651	21,4
1055,016	20,18
1055,381	21,36
1055,745	20,99
1056,11	21,38
1056,475	21,29
1056,839	21,08
1057,203	21,4
1057,568	20,31
1057,932	20,61
1058,296	20,69
1058,66	20,39
1059,024	20,57
1059,388	21,21
1059,752	21,18
1060,116	20,9
1060,48	20,48
1060,843	20,46
1061,207	20,43
1061,57	20,96
1061,934	21,23
1062,297	21,52
1062,66	21,12
1063,023	21,16
1063,386	20,94
1063,749	20,91
1064,112	20,66
1064,475	20,83
1064,838	20,71
1065,201	21,02
1065,563	21,5
1065,926	21,34
1066,288	21,93
1066,651	19,91
1067,013	20,96
1067,375	21,02
1067,737	20,17
1068,099	21,17
1068,461	21,28
1068,823	19,57
1069,185	20,89
1069,547	19,88
1069,909	20,89
1070,27	20,9
1070,632	20,18
1070,993	20,84
1071,355	20,03
1071,716	20,97
1072,077	19,99
1072,438	21,3
1072,799	21
1073,16	20,63
1073,521	19,93
1073,882	21,19
1074,243	21,21
1074,603	21,69
1074,964	20,87
1075,325	20,35
1075,685	20,84
1076,045	20,76
1076,406	20,63
1076,766	21,09
1077,126	19,79
1077,486	20,14
1077,846	21,13
1078,206	21,42
1078,566	20,68
1078,925	21,51
1079,285	21,07
1079,645	21,12
1080,004	20,73
1080,364	21,23
1080,723	20,54
1081,082	21,5
1081,442	20,68
1081,801	20,43
1082,16	20,06
1082,519	20,26
1082,878	20,28
1083,237	20,11
1083,595	20,69
1083,954	21,11
1084,313	20,21
1084,671	20,8
1085,03	20,64
1085,388	21,62
1085,746	20,33
1086,104	20,31
1086,463	20,54
1086,821	21,22
1087,179	20,63
1087,537	20,73
1087,894	20,7
1088,252	21,12
1088,61	21,45
1088,967	20,21
1089,325	21,1
1089,682	20,82
1090,04	21,54
1090,397	20,08
1090,754	20,64
1091,111	20,76
1091,469	21,21
1091,826	21,22
1092,182	21,22
1092,539	21,89
1092,896	20,56
1093,253	21,59
1093,609	21,21
1093,966	21,13
1094,322	19,93
1094,679	20,5
1095,035	20,39
1095,391	21,26
1095,748	20,6
1096,104	20,43
1096,46	20,82
1096,816	20,8
1097,171	21,88
1097,527	20,94
1097,883	20,2
1098,239	20,01
1098,594	22,38
1098,95	22,47
1099,305	20,63
1099,66	20,21
1100,016	20,08
1100,371	20,2
1100,726	21,06
1101,081	20,65
1101,436	20,83
1101,791	21,03
1102,146	20,45
1102,5	20,72
1102,855	20,63
1103,21	19,92
1103,564	18,61
1103,918	22,07
1104,273	21,45
1104,627	20,68
1104,981	21,38
1105,335	22,19
1105,69	20,74
1106,043	20,41
1106,397	21,35
1106,751	21,31
1107,105	22,15
1107,459	19,09
1107,812	22,39
1108,166	22,33
1108,519	19,43
1108,873	20,23
1109,226	20,18
1109,579	21,95
1109,932	19,26
1110,285	19,16
1110,638	20,66
1110,991	20,69
1111,344	23,23
1111,697	19,89
1112,05	22,18
1112,402	22,45
1112,755	21,73
1113,107	21,16
1113,46	23,89
1113,812	20,91
1114,164	21,27
1114,517	19,37
1114,869	17,98
1115,221	19,27
1115,573	27,32
1115,924	13,15
