Data from H_1_0_Relative__3__00170.txt Node

Date: Mon Jan 29 13:07:47 CET 2024
User: diatiterra
Spectrometer: HDX00911
Trigger mode: 0
Integration Time (sec): 6,000000E-3
Scans to average: 2
Nonlinearity correction enabled: false
Boxcar width: 0
Storing dark spectrum: false
XAxis mode: Wavelengths
Number of Pixels in Spectrum: 2068
>>>>>Begin Spectral Data<<<<<
194,468	28,05
195,025	25,13
195,581	5,23
196,138	11,11
196,694	24,09
197,251	15,38
197,807	21,38
198,363	15,77
198,919	21,63
199,474	19,11
200,03	14,79
200,586	19,13
201,141	20,09
201,696	23,66
202,251	19,14
202,806	15,61
203,361	23,21
203,916	22,81
204,471	18,37
205,025	23,87
205,58	17,67
206,134	19,1
206,688	7,16
207,242	17,62
207,796	19,18
208,35	24,6
208,904	25,31
209,457	12,69
210,011	15,86
210,564	15,59
211,117	18,76
211,67	25,15
212,223	19,27
212,776	21,57
213,329	26,26
213,881	20,94
214,434	16,76
214,986	28,12
215,538	21,9
216,09	16,25
216,642	23,98
217,194	18,75
217,746	24,79
218,297	16,31
218,849	27,47
219,4	30,48
219,951	17,78
220,502	21,84
221,053	25,42
221,604	21,04
222,155	17,01
222,705	21,92
223,256	25,81
223,806	24,95
224,356	20,3
224,906	23,48
225,456	21,68
226,006	22,05
226,556	25,89
227,106	31,25
227,655	18,12
228,204	16,59
228,754	26,9
229,303	22,64
229,852	23,76
230,401	25,68
230,949	24,84
231,498	21,56
232,047	27,62
232,595	19,87
233,143	22,47
233,691	25
234,239	19,2
234,787	19,77
235,335	23,01
235,883	19,24
236,43	22,73
236,978	22,45
237,525	15,4
238,072	20,04
238,619	24,3
239,166	22,74
239,713	19,67
240,26	18,46
240,806	26,19
241,353	19,54
241,899	29,52
242,445	19,18
242,991	19,74
243,537	18,5
244,083	24,48
244,629	16,31
245,174	20,52
245,72	23,56
246,265	18,88
246,81	20,54
247,355	24
247,9	22,32
248,445	12,58
248,99	29,98
249,534	19,05
250,079	17,78
250,623	19,81
251,168	23,04
251,712	21,94
252,256	15,7
252,8	22,22
253,343	12,56
253,887	17,87
254,43	13,52
254,974	12,94
255,517	26,87
256,06	25,39
256,603	14,55
257,146	15,78
257,689	16,67
258,232	9,52
258,774	20,05
259,317	20,32
259,859	12,76
260,401	21,65
260,943	22,44
261,485	16,44
262,027	17,51
262,569	14,5
263,11	24,57
263,652	18,35
264,193	21,26
264,734	16,51
265,275	27,93
265,816	20,44
266,357	26,3
266,898	10,73
267,438	31,65
267,979	17,7
268,519	20,79
269,059	10,75
269,6	22,8
270,14	20,72
270,68	23,73
271,219	19,41
271,759	22,7
272,298	19,6
272,838	18,35
273,377	24,07
273,916	15,44
274,455	16,26
274,994	21,15
275,533	29,1
276,072	29,4
276,61	30,84
277,149	18,93
277,687	18,76
278,225	22,85
278,763	22,17
279,301	19,78
279,839	24,3
280,377	16,82
280,914	25,99
281,452	25,92
281,989	24,62
282,526	23,82
283,064	17,14
283,601	21,81
284,137	18,1
284,674	20,15
285,211	23,97
285,747	13,37
286,284	19,41
286,82	13,9
287,356	21,41
287,892	15,42
288,428	16,74
288,964	30,12
289,5	20,67
290,035	19,43
290,571	15,37
291,106	17,57
291,641	17,73
292,176	18,58
292,711	20,83
293,246	22,94
293,781	15,8
294,315	4,24
294,85	18,36
295,384	19,78
295,918	16,89
296,453	21,23
296,987	18,72
297,52	17,32
298,054	16,78
298,588	14,57
299,121	21,73
299,655	14,25
300,188	18,22
300,721	14,19
301,254	15,75
301,787	18,64
302,32	22,58
302,853	22,69
303,385	20,7
303,918	14,7
304,45	14,91
304,982	16,67
305,514	10,88
306,046	14,88
306,578	18,76
307,11	15,15
307,641	10,71
308,173	21,82
308,704	24,11
309,236	20,44
309,767	15,29
310,298	22,62
310,829	18,78
311,359	16,59
311,89	7,45
312,421	10,54
312,951	18,14
313,481	23,04
314,012	21,03
314,542	26,35
315,072	16,33
315,601	17,57
316,131	22,43
316,661	14,25
317,19	12,44
317,72	21,9
318,249	9,93
318,778	17,16
319,307	19,29
319,836	11,78
320,365	18,89
320,893	14,47
321,422	12,67
321,95	24,67
322,479	18,06
323,007	13,04
323,535	23,02
324,063	12,77
324,591	18,91
325,118	12,31
325,646	20,28
326,173	14,84
326,701	20,24
327,228	16,82
327,755	12,2
328,282	8,56
328,809	21,41
329,336	12,24
329,862	19,32
330,389	15,4
330,915	10,45
331,441	17,72
331,968	9,4
332,494	25
333,02	15,27
333,545	20,72
334,071	6,92
334,597	11,06
335,122	24,05
335,648	14,18
336,173	14,1
336,698	15,6
337,223	16,92
337,748	17,23
338,272	12,34
338,797	9,11
339,322	15,16
339,846	13,4
340,37	23,8
340,894	10,02
341,419	16,6
341,942	9,33
342,466	13,36
342,99	16,6
343,514	24,74
344,037	12
344,56	8,3
345,084	18,18
345,607	15,88
346,13	17,18
346,653	11,93
347,175	12,04
347,698	15,91
348,221	19,93
348,743	14,13
349,265	20,35
349,787	10,32
350,309	12,48
350,831	16,72
351,353	17,04
351,875	16,11
352,397	8
352,918	18,43
353,439	8,22
353,961	16,3
354,482	12,12
355,003	17,02
355,524	15,7
356,044	23,25
356,565	17,93
357,086	14,24
357,606	12,28
358,126	19,44
358,646	24,96
359,167	17,89
359,687	23,27
360,206	13,29
360,726	16,52
361,246	15,44
361,765	15,35
362,285	14,87
362,804	19,49
363,323	17,28
363,842	12,82
364,361	18,18
364,88	15,13
365,398	14,34
365,917	13,82
366,435	13,24
366,954	15,96
367,472	12,2
367,99	15,95
368,508	14,97
369,026	17,87
369,544	15,85
370,061	15,87
370,579	13,82
371,096	14,57
371,613	17,29
372,131	16,02
372,648	13,24
373,165	15,6
373,681	12,64
374,198	15,6
374,715	15,2
375,231	17,91
375,747	16,68
376,264	19,21
376,78	13,84
377,296	13,08
377,812	15,86
378,327	15,01
378,843	18,17
379,359	12,48
379,874	13,78
380,389	13,17
380,905	14,01
381,42	15,14
381,935	9,61
382,449	17,38
382,964	13,98
383,479	14,3
383,993	14,52
384,508	15,46
385,022	14,99
385,536	12,97
386,05	13,15
386,564	13,69
387,078	14,71
387,592	12,18
388,105	12,5
388,619	12,08
389,132	14,42
389,645	11,85
390,158	13,61
390,671	13,87
391,184	12,96
391,697	11,58
392,21	12,55
392,722	11,71
393,235	11,96
393,747	9,09
394,259	12,76
394,771	13,32
395,283	11,25
395,795	13,04
396,307	11,3
396,818	10,75
397,33	10,59
397,841	10,83
398,353	9,02
398,864	10,8
399,375	10,9
399,886	10,68
400,397	8,73
400,907	9,89
401,418	9,04
401,928	9,76
402,439	8,26
402,949	8,67
403,459	8
403,969	8,52
404,479	8,22
404,989	6,89
405,498	8,41
406,008	7,84
406,517	7,85
407,027	6,5
407,536	6,47
408,045	7,48
408,554	7,98
409,063	6,45
409,572	5,77
410,08	6,49
410,589	6,32
411,097	5,44
411,606	5,34
412,114	5,52
412,622	5,05
413,13	5,14
413,638	4,84
414,145	5,13
414,653	4,06
415,16	4,26
415,668	4,37
416,175	4,72
416,682	4,08
417,189	4,1
417,696	4,12
418,203	4,2
418,71	4,25
419,216	3,95
419,723	3,99
420,229	4,31
420,735	3,53
421,242	3,72
421,748	3,85
422,254	3,47
422,759	3,44
423,265	3,75
423,771	3,36
424,276	3,87
424,781	3,7
425,287	3,61
425,792	3,67
426,297	3,53
426,802	3,07
427,306	3,33
427,811	4,02
428,316	3,38
428,82	3,18
429,324	3,5
429,829	3,72
430,333	3,46
430,837	3,53
431,34	3,49
431,844	3,26
432,348	3,37
432,851	3,4
433,355	3,18
433,858	3,43
434,361	3,47
434,864	3,32
435,367	3,25
435,87	3,56
436,373	3,1
436,876	3,43
437,378	3,55
437,88	3,07
438,383	3,34
438,885	3,33
439,387	3,45
439,889	3,49
440,391	3,59
440,892	3,48
441,394	3,5
441,896	3,35
442,397	3,49
442,898	3,21
443,399	3,41
443,9	3,26
444,401	3,42
444,902	3,38
445,403	3,29
445,903	3,32
446,404	3,26
446,904	3,36
447,405	3,6
447,905	3,48
448,405	3,57
448,905	3,47
449,404	3,5
449,904	3,12
450,404	3,46
450,903	3,54
451,403	3,47
451,902	3,61
452,401	3,68
452,9	3,37
453,399	3,3
453,898	3,77
454,396	3,37
454,895	3,66
455,393	3,63
455,892	3,06
456,39	3,43
456,888	3,65
457,386	3,63
457,884	3,52
458,382	3,67
458,879	3,33
459,377	3,54
459,874	3,41
460,372	3,72
460,869	3,68
461,366	3,75
461,863	3,8
462,36	3,6
462,857	3,42
463,353	3,48
463,85	3,4
464,346	3,56
464,843	3,67
465,339	3,7
465,835	3,52
466,331	3,77
466,827	3,5
467,323	3,62
467,818	3,58
468,314	3,62
468,809	3,5
469,305	3,59
469,8	3,41
470,295	3,76
470,79	3,27
471,285	3,33
471,78	3,52
472,274	3,59
472,769	3,66
473,263	3,71
473,758	3,55
474,252	3,46
474,746	3,56
475,24	3,61
475,734	3,69
476,228	3,48
476,721	3,62
477,215	3,87
477,708	3,75
478,202	3,56
478,695	3,44
479,188	3,4
479,681	3,81
480,174	3,89
480,667	3,85
481,159	3,57
481,652	3,6
482,144	3,73
482,637	3,79
483,129	3,69
483,621	3,82
484,113	3,87
484,605	3,91
485,097	3,73
485,588	3,95
486,08	3,72
486,571	3,81
487,063	3,95
487,554	3,77
488,045	3,6
488,536	3,75
489,027	3,82
489,518	4,05
490,008	3,88
490,499	3,9
490,989	3,87
491,48	3,97
491,97	4,15
492,46	3,91
492,95	4,21
493,44	3,99
493,93	4,03
494,419	4,25
494,909	4,31
495,398	4,17
495,888	4,14
496,377	4,32
496,866	4,46
497,355	4,33
497,844	4,44
498,333	4,41
498,821	4,37
499,31	4,61
499,798	4,85
500,287	4,89
500,775	4,87
501,263	5,02
501,751	5,01
502,239	5,16
502,727	4,99
503,215	5,24
503,702	5,35
504,19	5,39
504,677	5,64
505,164	5,42
505,651	5,84
506,139	5,85
506,625	5,87
507,112	6,13
507,599	6,11
508,086	5,92
508,572	6,07
509,058	6,48
509,545	6,43
510,031	6,39
510,517	6,53
511,003	6,98
511,489	6,92
511,974	7,23
512,46	7,48
512,946	7,41
513,431	7,51
513,916	7,78
514,401	7,75
514,887	8,15
515,371	8,28
515,856	8,33
516,341	8,59
516,826	8,71
517,31	8,88
517,795	9,21
518,279	9,18
518,763	9,5
519,247	9,26
519,731	9,44
520,215	9,74
520,699	10,05
521,182	10,15
521,666	10,55
522,149	10,14
522,633	10,83
523,116	10,36
523,599	10,86
524,082	11,06
524,565	11,06
525,048	11,36
525,53	11,45
526,013	11,45
526,495	11,85
526,978	11,92
527,46	12,04
527,942	12,12
528,424	12,25
528,906	12,59
529,388	12,29
529,87	12,6
530,351	12,59
530,833	13,06
531,314	12,71
531,795	13,01
532,277	12,87
532,758	13,18
533,238	13,15
533,719	13,27
534,2	13,43
534,681	13,26
535,161	13,16
535,642	13,49
536,122	13,44
536,602	13,55
537,082	13,21
537,562	13,48
538,042	13,5
538,522	13,72
539,001	13,83
539,481	13,59
539,96	13,65
540,44	13,94
540,919	13,5
541,398	13,87
541,877	14,09
542,356	13,63
542,835	13,85
543,313	13,95
543,792	14,1
544,27	13,92
544,749	13,87
545,227	14,03
545,705	13,96
546,183	14,43
546,661	14,13
547,139	14,02
547,616	14,22
548,094	14,16
548,571	13,95
549,049	14,19
549,526	14,6
550,003	14,12
550,48	14,21
550,957	14,19
551,434	14,2
551,911	14,12
552,387	14,23
552,864	14,45
553,34	14,31
553,817	14,22
554,293	14,3
554,769	14,2
555,245	14,48
555,721	14,19
556,197	13,97
556,672	14,16
557,148	14,47
557,623	14,19
558,099	14,13
558,574	14,17
559,049	14,23
559,524	14,23
559,999	13,7
560,474	14,23
560,948	13,87
561,423	13,9
561,897	14
562,372	13,96
562,846	13,73
563,32	13,76
563,794	13,89
564,268	13,72
564,742	13,97
565,216	13,62
565,69	13,79
566,163	13,43
566,636	13,54
567,11	13,26
567,583	13,41
568,056	13,67
568,529	12,92
569,002	12,77
569,475	13,17
569,947	12,96
570,42	12,97
570,892	12,63
571,365	12,38
571,837	12,64
572,309	12,42
572,781	12,57
573,253	12,55
573,725	12,15
574,197	12,15
574,668	12,2
575,14	12,18
575,611	12,03
576,082	11,77
576,554	11,6
577,025	11,81
577,496	11,52
577,967	11,65
578,437	11,52
578,908	11,3
579,379	11,2
579,849	11,28
580,319	11,3
580,79	11,2
581,26	11,17
581,73	11
582,2	10,99
582,669	10,88
583,139	10,82
583,609	10,73
584,078	10,68
584,548	10,66
585,017	10,47
585,486	10,47
585,955	10,68
586,424	10,52
586,893	10,55
587,362	10,34
587,83	10,28
588,299	10,36
588,767	10,04
589,236	10,35
589,704	10,12
590,172	10,35
590,64	9,96
591,108	10,16
591,576	9,99
592,043	9,95
592,511	9,83
592,978	9,97
593,446	9,95
593,913	9,85
594,38	9,87
594,847	9,93
595,314	9,79
595,781	9,69
596,248	9,82
596,715	9,68
597,181	9,71
597,647	9,78
598,114	9,74
598,58	9,61
599,046	9,59
599,512	9,67
599,978	9,57
600,444	9,54
600,91	9,44
601,375	9,62
601,841	9,46
602,306	9,69
602,771	9,46
603,236	9,46
603,702	9,42
604,167	9,43
604,631	9,3
605,096	9,28
605,561	9,07
606,025	8,97
606,49	9,22
606,954	9,18
607,418	9,06
607,882	9,06
608,347	9,05
608,81	8,96
609,274	8,9
609,738	8,72
610,202	8,85
610,665	8,73
611,128	8,72
611,592	8,69
612,055	8,62
612,518	8,56
612,981	8,62
613,444	8,53
613,907	8,49
614,369	8,43
614,832	8,5
615,294	8,32
615,757	8,19
616,219	8,03
616,681	8,25
617,143	8,21
617,605	8,03
618,067	8,07
618,529	7,87
618,99	8,05
619,452	8,01
619,913	7,86
620,375	7,86
620,836	7,82
621,297	7,82
621,758	7,7
622,219	7,72
622,68	7,65
623,14	7,53
623,601	7,61
624,061	7,69
624,522	7,6
624,982	7,49
625,442	7,57
625,902	7,45
626,362	7,56
626,822	7,68
627,282	7,28
627,742	7,48
628,201	7,55
628,661	7,62
629,12	7,45
629,579	7,53
630,038	7,54
630,497	7,44
630,956	7,44
631,415	7,44
631,874	7,4
632,332	7,16
632,791	7,21
633,249	7,16
633,708	7,21
634,166	7,24
634,624	7,1
635,082	7,23
635,54	7,13
635,998	7,16
636,455	6,87
636,913	7,03
637,37	6,86
637,828	6,94
638,285	6,83
638,742	6,83
639,199	6,59
639,656	6,55
640,113	6,53
640,57	6,57
641,027	6,4
641,483	6,33
641,94	6,44
642,396	6,08
642,852	6,09
643,309	6,09
643,765	5,87
644,221	6,02
644,676	5,92
645,132	5,81
645,588	5,64
646,043	5,61
646,499	5,61
646,954	5,49
647,409	5,49
647,864	5,38
648,319	5,32
648,774	5,34
649,229	5,26
649,684	5,18
650,139	5,14
650,593	5,15
651,047	5,14
651,502	5,04
651,956	5,12
652,41	5,05
652,864	5,04
653,318	5,06
653,772	4,97
654,225	4,98
654,679	4,85
655,133	4,85
655,586	4,82
656,039	4,77
656,492	4,85
656,946	4,71
657,399	4,65
657,851	4,74
658,304	4,64
658,757	4,58
659,209	4,46
659,662	4,45
660,114	4,47
660,567	4,48
661,019	4,33
661,471	4,25
661,923	4,24
662,375	4,18
662,826	4,2
663,278	4
663,73	4,09
664,181	4,08
664,632	3,93
665,084	3,96
665,535	3,9
665,986	3,84
666,437	3,94
666,888	3,87
667,338	3,89
667,789	3,94
668,24	3,79
668,69	3,7
669,14	3,83
669,591	3,81
670,041	3,84
670,491	3,79
670,941	3,72
671,391	3,86
671,84	3,89
672,29	3,89
672,74	3,95
673,189	3,91
673,638	4,01
674,088	4,06
674,537	4,03
674,986	4,11
675,435	4,01
675,883	4,23
676,332	4,2
676,781	4,24
677,229	4,29
677,678	4,37
678,126	4,37
678,574	4,46
679,022	4,57
679,47	4,62
679,918	4,69
680,366	4,84
680,814	4,78
681,261	4,84
681,709	4,98
682,156	5,03
682,604	5,11
683,051	5,2
683,498	5,32
683,945	5,37
684,392	5,44
684,839	5,54
685,286	5,56
685,732	5,67
686,179	5,67
686,625	5,96
687,071	6,12
687,518	6,16
687,964	6,26
688,41	6,53
688,856	6,54
689,301	6,74
689,747	6,89
690,193	7,11
690,638	7,2
691,084	7,54
691,529	7,67
691,974	8,02
692,419	8,24
692,864	8,43
693,309	8,74
693,754	9,03
694,199	9,3
694,643	9,61
695,088	9,81
695,532	10,06
695,977	10,24
696,421	10,57
696,865	10,84
697,309	11,22
697,753	11,31
698,197	11,55
698,64	11,78
699,084	12,19
699,527	12,46
699,971	12,66
700,414	12,85
700,857	13,07
701,3	13,43
701,743	13,48
702,186	13,78
702,629	14
703,072	14,21
703,515	14,38
703,957	14,71
704,399	14,84
704,842	14,99
705,284	15,17
705,726	15,37
706,168	15,59
706,61	15,55
707,052	15,88
707,494	16,15
707,935	16,33
708,377	16,5
708,818	16,75
709,26	16,86
709,701	16,99
710,142	17,05
710,583	17,32
711,024	17,33
711,465	17,48
711,905	17,68
712,346	17,87
712,787	18,11
713,227	18,09
713,667	18,31
714,108	18,28
714,548	18,46
714,988	18,64
715,428	18,69
715,868	19,07
716,307	18,9
716,747	19,02
717,186	19,31
717,626	19,21
718,065	19,27
718,504	19,39
718,944	19,72
719,383	19,76
719,822	19,63
720,261	19,88
720,699	20,05
721,138	20,23
721,576	20,1
722,015	20,18
722,453	20,24
722,892	20,55
723,33	20,35
723,768	20,57
724,206	20,62
724,644	20,74
725,081	20,66
725,519	20,67
725,957	20,73
726,394	20,91
726,832	21,08
727,269	21,06
727,706	21,02
728,143	21,11
728,58	21,33
729,017	21,2
729,454	21,45
729,89	21,31
730,327	21,42
730,764	21,32
731,2	21,63
731,636	21,34
732,072	21,54
732,509	21,5
732,945	21,56
733,38	21,6
733,816	21,6
734,252	21,65
734,688	21,8
735,123	21,71
735,559	21,84
735,994	21,62
736,429	21,86
736,864	21,71
737,299	21,86
737,734	21,73
738,169	21,96
738,604	21,84
739,038	21,86
739,473	21,91
739,907	21,91
740,342	21,83
740,776	21,96
741,21	21,83
741,644	21,86
742,078	21,67
742,512	22,01
742,946	21,84
743,379	21,71
743,813	21,92
744,246	21,8
744,68	21,98
745,113	21,84
745,546	21,89
745,979	22
746,412	21,85
746,845	21,68
747,278	21,7
747,711	21,73
748,143	21,75
748,576	21,66
749,008	21,55
749,441	21,59
749,873	21,64
750,305	21,53
750,737	21,74
751,169	21,69
751,601	21,61
752,032	21,57
752,464	21,78
752,896	21,57
753,327	21,51
753,758	21,69
754,19	21,59
754,621	21,48
755,052	21,42
755,483	21,39
755,914	21,39
756,344	21,4
756,775	21,32
757,206	21,27
757,636	21,26
758,066	21,17
758,497	21,24
758,927	21,36
759,357	21,35
759,787	21,13
760,217	21,26
760,647	21,09
761,076	21,34
761,506	21,06
761,935	21,13
762,365	21,17
762,794	21,18
763,223	20,92
763,653	21,18
764,082	20,95
764,51	21,15
764,939	21,19
765,368	21,18
765,797	21,1
766,225	21
766,654	21,02
767,082	21,05
767,51	20,79
767,938	20,91
768,367	21,03
768,795	20,91
769,222	20,9
769,65	21,01
770,078	20,79
770,505	20,9
770,933	20,97
771,36	20,85
771,788	20,78
772,215	20,81
772,642	20,82
773,069	20,71
773,496	20,79
773,923	20,82
774,349	20,83
774,776	21,01
775,203	20,96
775,629	20,73
776,055	20,77
776,482	20,77
776,908	20,75
777,334	20,65
777,76	20,6
778,186	20,62
778,611	20,53
779,037	20,87
779,463	20,75
779,888	20,56
780,314	20,73
780,739	20,79
781,164	20,76
781,589	20,71
782,014	20,7
782,439	20,37
782,864	20,53
783,289	20,55
783,713	20,6
784,138	20,83
784,562	20,5
784,987	20,61
785,411	20,44
785,835	20,67
786,259	20,49
786,683	20,36
787,107	20,35
787,531	20,52
787,954	20,63
788,378	20,55
788,802	20,42
789,225	20,63
789,648	20,48
790,071	20,44
790,495	20,61
790,918	20,54
791,34	20,5
791,763	20,5
792,186	20,46
792,609	20,41
793,031	20,67
793,454	20,55
793,876	20,34
794,298	20,37
794,721	20,36
795,143	20,43
795,565	20,41
795,986	20,51
796,408	20,55
796,83	20,41
797,252	20,34
797,673	20,35
798,094	20,28
798,516	20,47
798,937	20,29
799,358	20,23
799,779	20,5
800,2	20,32
800,621	20,11
801,042	20,33
801,462	20,43
801,883	20,56
802,303	20,32
802,724	20,48
803,144	20,39
803,564	20,36
803,984	20,31
804,404	20,33
804,824	20,39
805,244	20,23
805,664	20,46
806,084	20,37
806,503	20,51
806,923	20,12
807,342	20,41
807,761	20,36
808,18	20,56
808,599	20,31
809,018	20,26
809,437	20,33
809,856	20,54
810,275	20,49
810,693	20,49
811,112	20,43
811,53	20,36
811,949	20,41
812,367	20,32
812,785	20,32
813,203	20,2
813,621	20,38
814,039	20,31
814,457	20,12
814,874	20,29
815,292	20,18
815,709	20,31
816,127	20,2
816,544	20,38
816,961	20,24
817,378	20,35
817,795	20,18
818,212	20,44
818,629	20,2
819,046	20,41
819,462	20,3
819,879	20,2
820,295	20,41
820,712	20,42
821,128	20,5
821,544	20,09
821,96	20,31
822,376	20,17
822,792	19,99
823,208	20,09
823,624	20,35
824,039	20,28
824,455	20,2
824,87	20,23
825,286	20,42
825,701	20,3
826,116	20,2
826,531	20,09
826,946	20,36
827,361	20,21
827,776	20,21
828,19	20,24
828,605	19,98
829,02	20,51
829,434	20,24
829,848	20,04
830,263	20,1
830,677	20,32
831,091	20,32
831,505	20,14
831,919	20,42
832,332	20,28
832,746	20,15
833,16	20,21
833,573	20,17
833,987	20,05
834,4	20,19
834,813	20,36
835,226	20,39
835,639	20,1
836,052	20,29
836,465	20,06
836,878	20,15
837,29	20,22
837,703	20
838,116	20,29
838,528	20,24
838,94	20,26
839,352	20,33
839,765	19,86
840,177	20,21
840,589	20,04
841	20,25
841,412	20
841,824	20,01
842,235	19,95
842,647	20,23
843,058	20,13
843,47	20,25
843,881	20,06
844,292	20,07
844,703	20,06
845,114	19,96
845,525	19,96
845,935	19,91
846,346	20,04
846,757	20,25
847,167	20,03
847,577	19,97
847,988	20,01
848,398	19,95
848,808	20,03
849,218	20,01
849,628	20,12
850,038	20,14
850,448	20,01
850,857	20,08
851,267	20,15
851,676	19,73
852,086	20,09
852,495	20,05
852,904	20,13
853,313	20,34
853,722	20,04
854,131	19,79
854,54	20,18
854,949	20,37
855,357	20,13
855,766	19,84
856,174	20,01
856,583	19,99
856,991	20,22
857,399	19,95
857,807	20,04
858,215	19,89
858,623	20,35
859,031	20,24
859,439	19,96
859,846	20,24
860,254	19,88
860,661	19,91
861,069	20
861,476	19,9
861,883	19,98
862,29	20,11
862,697	20,14
863,104	20,19
863,511	19,93
863,918	19,83
864,325	20,09
864,731	19,86
865,138	19,9
865,544	20,15
865,95	19,96
866,357	19,86
866,763	20
867,169	19,9
867,575	19,73
867,98	19,87
868,386	20,31
868,792	20,03
869,197	20,04
869,603	20,09
870,008	20,16
870,414	19,76
870,819	19,78
871,224	19,86
871,629	19,85
872,034	20
872,439	19,81
872,844	19,95
873,248	20,08
873,653	19,75
874,057	19,81
874,462	19,85
874,866	19,95
875,27	20,11
875,674	19,93
876,078	20,04
876,482	19,89
876,886	19,8
877,29	19,88
877,694	19,78
878,097	20,15
878,501	19,96
878,904	20,04
879,308	19,89
879,711	19,91
880,114	19,89
880,517	19,98
880,92	19,89
881,323	19,92
881,726	19,78
882,128	19,92
882,531	19,68
882,934	19,87
883,336	19,89
883,738	20,08
884,141	19,97
884,543	20,01
884,945	20,08
885,347	20,14
885,749	19,74
886,151	19,87
886,552	19,82
886,954	19,79
887,355	19,89
887,757	19,92
888,158	19,78
888,56	19,86
888,961	20
889,362	19,79
889,763	19,75
890,164	19,85
890,565	19,68
890,965	19,74
891,366	19,72
891,767	19,69
892,167	19,81
892,567	19,94
892,968	19,58
893,368	19,85
893,768	19,82
894,168	19,61
894,568	20,04
894,968	19,95
895,368	19,87
895,767	19,8
896,167	19,82
896,566	19,9
896,966	19,79
897,365	19,84
897,764	19,94
898,164	19,76
898,563	19,84
898,962	19,73
899,361	19,94
899,759	19,77
900,158	19,79
900,557	19,95
900,955	19,73
901,354	19,97
901,752	19,92
902,15	19,83
902,548	19,94
902,947	19,86
903,345	19,81
903,742	19,86
904,14	19,78
904,538	19,79
904,936	19,82
905,333	19,92
905,731	19,68
906,128	19,71
906,525	19,87
906,923	19,89
907,32	19,44
907,717	19,75
908,114	19,91
908,511	19,78
908,907	19,71
909,304	19,95
909,701	19,64
910,097	19,66
910,494	19,67
910,89	19,77
911,286	19,57
911,682	20
912,078	19,71
912,474	19,69
912,87	19,89
913,266	19,62
913,662	19,69
914,058	19,82
914,453	19,88
914,849	19,91
915,244	19,59
915,639	19,54
916,034	19,71
916,43	19,8
916,825	19,64
917,22	19,85
917,614	19,75
918,009	19,6
918,404	19,59
918,798	19,63
919,193	19,91
919,587	19,76
919,982	19,54
920,376	19,37
920,77	19,47
921,164	19,76
921,558	19,75
921,952	20,02
922,346	19,6
922,74	19,77
923,133	19,49
923,527	19,63
923,92	19,61
924,314	19,58
924,707	19,2
925,1	19,72
925,493	19,51
925,886	19,91
926,279	19,56
926,672	19,6
927,065	19,5
927,457	19,57
927,85	19,68
928,243	19,75
928,635	19,61
929,027	19,7
929,42	20
929,812	19,37
930,204	19,43
930,596	19,66
930,988	19,48
931,379	19,45
931,771	19,62
932,163	19,64
932,554	19,61
932,946	19,51
933,337	19,76
933,729	19,92
934,12	19,42
934,511	19,81
934,902	19,71
935,293	19,11
935,684	19,5
936,075	19,87
936,465	19,42
936,856	19,42
937,246	19,7
937,637	19,82
938,027	19,41
938,417	19,26
938,808	19,59
939,198	18,93
939,588	19,66
939,978	19,77
940,368	19,63
940,757	19,91
941,147	19,41
941,537	19
941,926	19,78
942,315	19,73
942,705	19,57
943,094	19,4
943,483	19,49
943,872	19,21
944,261	19,43
944,65	19,65
945,039	19,4
945,428	19,6
945,816	19,42
946,205	19,88
946,593	19,1
946,982	18,84
947,37	19,63
947,758	19,39
948,146	19,5
948,534	19,15
948,922	19,62
949,31	19,4
949,698	18,84
950,086	19,28
950,473	19,3
950,861	19,06
951,248	19,07
951,636	19,11
952,023	19,14
952,41	19,14
952,797	19,26
953,184	19,32
953,571	19,36
953,958	19,24
954,345	19,11
954,731	19,42
955,118	18,94
955,505	19,07
955,891	19,31
956,277	19,55
956,664	18,78
957,05	18,96
957,436	19,59
957,822	18,92
958,208	19,37
958,594	19,32
958,979	19,33
959,365	19,11
959,751	19,02
960,136	19,12
960,522	19,05
960,907	19,1
961,292	19,21
961,677	19,4
962,062	19,09
962,447	19,06
962,832	18,81
963,217	19,32
963,602	19,06
963,986	18,86
964,371	19,17
964,756	19,12
965,14	19,19
965,524	18,85
965,908	18,75
966,293	19,25
966,677	19,06
967,061	19,13
967,445	19,01
967,828	19,02
968,212	19,19
968,596	19,22
968,979	19,19
969,363	19,19
969,746	18,88
970,129	19,29
970,513	19,01
970,896	19,03
971,279	19,05
971,662	18,98
972,045	18,85
972,428	19,24
972,81	18,9
973,193	19
973,575	19,26
973,958	19,17
974,34	19,07
974,723	19,05
975,105	19,29
975,487	18,99
975,869	18,95
976,251	19,33
976,633	18,94
977,015	18,92
977,396	18,93
977,778	19,18
978,16	19,12
978,541	18,96
978,922	19,04
979,304	19,04
979,685	18,81
980,066	19,11
980,447	19,22
980,828	19,03
981,209	19,25
981,59	19,08
981,97	19
982,351	19,1
982,732	18,91
983,112	19,16
983,493	18,97
983,873	18,91
984,253	19,12
984,633	19
985,013	18,83
985,393	19,15
985,773	19,05
986,153	19,06
986,533	18,9
986,912	18,77
987,292	19,43
987,671	18,91
988,051	18,73
988,43	18,7
988,809	18,99
989,188	18,92
989,567	19,09
989,946	19,24
990,325	18,96
990,704	18,71
991,083	19,28
991,461	19,11
991,84	19,31
992,218	18,75
992,597	19,25
992,975	18,97
993,353	18,95
993,732	18,73
994,11	19,09
994,488	18,89
994,866	18,9
995,243	18,98
995,621	18,9
995,999	19,47
996,376	19,05
996,754	18,94
997,131	18,93
997,509	18,57
997,886	19,08
998,263	18,98
998,64	19,27
999,017	19,08
999,394	19,13
999,771	18,83
1000,148	18,97
1000,524	18,99
1000,901	19,09
1001,277	18,64
1001,654	18,98
1002,03	18,91
1002,406	18,67
1002,783	19,23
1003,159	18,95
1003,535	18,78
1003,911	18,81
1004,286	19,06
1004,662	19,27
1005,038	19,13
1005,414	18,96
1005,789	19,39
1006,164	19,14
1006,54	19,2
1006,915	19,11
1007,29	18,97
1007,665	18,71
1008,04	18,87
1008,415	19,14
1008,79	19
1009,165	18,73
1009,54	18,76
1009,914	19,17
1010,289	19,04
1010,663	19,14
1011,038	18,89
1011,412	19,05
1011,786	19,29
1012,16	19,09
1012,535	18,85
1012,909	19,16
1013,282	19,14
1013,656	19,08
1014,03	18,66
1014,404	19,16
1014,777	19,02
1015,151	19,17
1015,524	19,12
1015,897	19,39
1016,271	19,44
1016,644	19,03
1017,017	19,15
1017,39	19,21
1017,763	18,9
1018,136	19,1
1018,508	18,98
1018,881	19,03
1019,254	19,2
1019,626	19,14
1019,999	18,95
1020,371	18,89
1020,743	19,51
1021,116	19,54
1021,488	19,31
1021,86	19,35
1022,232	18,96
1022,604	19,13
1022,975	19,32
1023,347	18,84
1023,719	19,45
1024,09	19,22
1024,462	18,94
1024,833	19,13
1025,204	18,68
1025,576	18,99
1025,947	19,11
1026,318	19,43
1026,689	19,04
1027,06	19,04
1027,431	19,05
1027,801	19,27
1028,172	19,06
1028,543	19,27
1028,913	19,2
1029,284	18,63
1029,654	19,26
1030,024	19,14
1030,394	19,01
1030,764	19,25
1031,135	18,97
1031,504	19,33
1031,874	19,38
1032,244	19,3
1032,614	19,57
1032,983	19,12
1033,353	19,33
1033,722	19
1034,092	19,01
1034,461	19,05
1034,83	19,03
1035,2	19,35
1035,569	19,13
1035,938	19,21
1036,307	18,83
1036,675	19,79
1037,044	19,4
1037,413	19,1
1037,781	19,57
1038,15	19,59
1038,518	19,35
1038,887	19,17
1039,255	18,81
1039,623	18,92
1039,991	19,31
1040,359	19,58
1040,727	19,37
1041,095	19,49
1041,463	19,28
1041,831	19,3
1042,198	19,12
1042,566	19,63
1042,933	18,94
1043,301	18,96
1043,668	18,9
1044,035	19,05
1044,402	19,58
1044,77	19,29
1045,137	18,78
1045,503	19,56
1045,87	19,17
1046,237	19,34
1046,604	18,88
1046,97	19,64
1047,337	19,01
1047,703	19,03
1048,07	19,66
1048,436	18,82
1048,802	19,03
1049,168	19,38
1049,534	19,12
1049,9	19,35
1050,266	19,45
1050,632	19,54
1050,998	18,75
1051,364	18,86
1051,729	19,27
1052,095	19,42
1052,46	19,35
1052,825	19,13
1053,191	18,91
1053,556	19,88
1053,921	19,09
1054,286	19,31
1054,651	19,64
1055,016	19,19
1055,381	19,43
1055,745	20,34
1056,11	19,09
1056,475	19,18
1056,839	19,24
1057,203	19,07
1057,568	19,01
1057,932	19,07
1058,296	19,35
1058,66	19,31
1059,024	19,56
1059,388	19,19
1059,752	19,47
1060,116	19,34
1060,48	18,83
1060,843	18,99
1061,207	18,74
1061,57	18,58
1061,934	19,65
1062,297	19,71
1062,66	19,18
1063,023	19,69
1063,386	18,93
1063,749	19,26
1064,112	18,9
1064,475	19,3
1064,838	19,12
1065,201	19,52
1065,563	19,16
1065,926	19,15
1066,288	19,8
1066,651	19,11
1067,013	18,45
1067,375	19,24
1067,737	19,12
1068,099	19,64
1068,461	19,66
1068,823	19,5
1069,185	19,66
1069,547	20,48
1069,909	18,95
1070,27	18,92
1070,632	19,15
1070,993	18,76
1071,355	19,27
1071,716	20,09
1072,077	18,47
1072,438	19,35
1072,799	18,98
1073,16	19,15
1073,521	18,8
1073,882	20,37
1074,243	19,91
1074,603	19
1074,964	19,44
1075,325	19,63
1075,685	20
1076,045	19,14
1076,406	19,16
1076,766	17,79
1077,126	19,47
1077,486	18,81
1077,846	19,64
1078,206	19,06
1078,566	18,83
1078,925	19,33
1079,285	19,08
1079,645	19,8
1080,004	19,4
1080,364	19,68
1080,723	18,4
1081,082	19,14
1081,442	20,18
1081,801	19,53
1082,16	19,76
1082,519	18,58
1082,878	19,17
1083,237	19,38
1083,595	18,12
1083,954	19,33
1084,313	19,38
1084,671	18,97
1085,03	19,91
1085,388	18,9
1085,746	19,62
1086,104	18,55
1086,463	20,05
1086,821	18,58
1087,179	19,86
1087,537	19,01
1087,894	19,59
1088,252	22,15
1088,61	19,08
1088,967	19,36
1089,325	20,31
1089,682	19,7
1090,04	20,74
1090,397	19,99
1090,754	20,21
1091,111	20,37
1091,469	19,45
1091,826	19,84
1092,182	19,27
1092,539	18,54
1092,896	19,56
1093,253	19,29
1093,609	19,19
1093,966	18,29
1094,322	19,98
1094,679	19,54
1095,035	17,68
1095,391	19,54
1095,748	20,1
1096,104	19,1
1096,46	18,79
1096,816	20,34
1097,171	20,36
1097,527	21,14
1097,883	20,66
1098,239	19,54
1098,594	21,85
1098,95	19,92
1099,305	19,55
1099,66	21,76
1100,016	18,42
1100,371	17,99
1100,726	19,24
1101,081	19,63
1101,436	19,45
1101,791	19,45
1102,146	18,98
1102,5	21,14
1102,855	20,14
1103,21	20,86
1103,564	19,77
1103,918	19,62
1104,273	18,97
1104,627	19,64
1104,981	19,53
1105,335	19,4
1105,69	18,69
1106,043	20,75
1106,397	19,95
1106,751	18,66
1107,105	20,35
1107,459	19,09
1107,812	18,78
1108,166	21,45
1108,519	18,82
1108,873	18,08
1109,226	19,16
1109,579	19,47
1109,932	19,58
1110,285	18,92
1110,638	19
1110,991	20,69
1111,344	19,81
1111,697	17,79
1112,05	21,44
1112,402	18,12
1112,755	19,46
1113,107	20
1113,46	20,25
1113,812	19,07
1114,164	19,46
1114,517	20,26
1114,869	23,6
1115,221	24,48
1115,573	23,2
1115,924	21,6
