Data from I_4_0_Relative__4__00187.txt Node

Date: Mon Jan 29 13:09:18 CET 2024
User: diatiterra
Spectrometer: HDX00911
Trigger mode: 0
Integration Time (sec): 6,000000E-3
Scans to average: 2
Nonlinearity correction enabled: false
Boxcar width: 0
Storing dark spectrum: false
XAxis mode: Wavelengths
Number of Pixels in Spectrum: 2068
>>>>>Begin Spectral Data<<<<<
194,468	21,95
195,025	12,06
195,581	-1,74
196,138	5,26
196,694	11,28
197,251	23,34
197,807	19,48
198,363	16,2
198,919	22,91
199,474	28,89
200,03	16,11
200,586	13,72
201,141	20,94
201,696	18,49
202,251	16,29
202,806	15,61
203,361	25,74
203,916	23,67
204,471	19,27
205,025	26,88
205,58	15,88
206,134	20,33
206,688	17,14
207,242	9,98
207,796	16,33
208,35	20,05
208,904	25,31
209,457	16,56
210,011	19,24
210,564	23,08
211,117	23,79
211,67	23,94
212,223	22,27
212,776	19,56
213,329	26,26
213,881	24,23
214,434	22,16
214,986	20,86
215,538	20,58
216,09	18,96
216,642	24,41
217,194	25,83
217,746	20,55
218,297	25,75
218,849	17,6
219,4	23,8
219,951	15,56
220,502	24,84
221,053	24,16
221,604	25,62
222,155	16,09
222,705	23,59
223,256	20,17
223,806	25,37
224,356	21,15
224,906	31,45
225,456	22,53
226,006	20,23
226,556	17,95
227,106	32,14
227,655	26,65
228,204	17,04
228,754	27,72
229,303	23,96
229,852	23,33
230,401	18,02
230,949	33,19
231,498	24,67
232,047	25,05
232,595	26,15
233,143	14,54
233,691	26,23
234,239	15,18
234,787	22,05
235,335	24,73
235,883	24,31
236,43	20,25
236,978	26,62
237,525	25,22
238,072	20,48
238,619	26,17
239,166	21,85
239,713	25,05
240,26	25,93
240,806	31,82
241,353	20,46
241,899	27,75
242,445	25,77
242,991	18,44
243,537	19,44
244,083	29,88
244,629	22,25
245,174	28,82
245,72	27,56
246,265	19,35
246,81	23,7
247,355	27,29
247,9	21,88
248,445	17,7
248,99	23,41
249,534	27,21
250,079	23,56
250,623	21,26
251,168	23,04
251,712	18,06
252,256	17,85
252,8	29,63
253,343	20,62
253,887	28,09
254,43	18,24
254,974	14,35
255,517	20,47
256,06	22,74
256,603	19,55
257,146	17,63
257,689	28,79
258,232	27,21
258,774	20,54
259,317	25,28
259,859	17,31
260,401	22,94
260,943	19,78
261,485	16
262,027	17,51
262,569	12,5
263,11	25,85
263,652	19,29
264,193	19,52
264,734	12,39
265,275	20,89
265,816	18,68
266,357	22,68
266,898	16,21
267,438	23,85
267,979	26,99
268,519	24,29
269,059	15,89
269,6	21,9
270,14	15,32
270,68	19,49
271,219	21,94
271,759	21,8
272,298	16,48
272,838	21,1
273,377	19,55
273,916	25,28
274,455	14,48
274,994	21,59
275,533	23,09
276,072	23,39
276,61	23,79
277,149	18,93
277,687	20,14
278,225	27,83
278,763	23,08
279,301	16,67
279,839	24,73
280,377	16,82
280,914	24,59
281,452	20,41
281,989	18,46
282,526	18,24
283,064	21,98
283,601	19,49
284,137	18,1
284,674	14,81
285,211	27,45
285,747	20,05
286,284	17,58
286,82	19,82
287,356	24,06
287,892	17,23
288,428	19,31
288,964	22,12
289,5	18,43
290,035	24,72
290,571	23,66
291,106	13,12
291,641	20,45
292,176	23,96
292,711	19,08
293,246	20,64
293,781	18,96
294,315	13,22
294,85	13,94
295,384	21,57
295,918	11,56
296,453	21,23
296,987	21,56
297,52	17,76
298,054	19,46
298,588	14,57
299,121	15,52
299,655	24,66
300,188	16,4
300,721	20,7
301,254	15,3
301,787	24,46
302,32	17,97
302,853	18,28
303,385	17,62
303,918	26,73
304,45	20,61
304,982	18
305,514	16,44
306,046	12,69
306,578	21,51
307,11	15,62
307,641	16,96
308,173	19,09
308,704	24,55
309,236	12,65
309,767	11,53
310,298	19,96
310,829	15,49
311,359	16,59
311,89	17,38
312,421	18,61
312,951	21,4
313,481	19,35
314,012	14,77
314,542	13,18
315,072	14,82
315,601	22,07
316,131	19,22
316,661	15,22
317,19	23,76
317,72	11,43
318,249	6,77
318,778	11,76
319,307	21,65
319,836	17,78
320,365	15,67
320,893	6,72
321,422	15,44
321,95	17,56
322,479	16,7
323,007	15,94
323,535	18,37
324,063	25,06
324,591	19,39
325,118	20,22
325,646	21,7
326,173	11,19
326,701	22,62
327,228	17,73
327,755	14,59
328,282	11,76
328,809	22,3
329,336	15,94
329,862	14,32
330,389	15,4
330,915	15
331,441	17,25
331,968	9,88
332,494	14,5
333,02	10,54
333,545	18,31
334,071	10,04
334,597	15,87
335,122	16,93
335,648	10,05
336,173	10,63
336,698	14,68
337,223	8,68
337,748	16,39
338,272	14,85
338,797	18,66
339,322	15,61
339,846	14,68
340,37	14,18
340,894	11,36
341,419	11,13
341,942	10,95
342,466	12,94
342,99	14,94
343,514	19,71
344,037	16,8
344,56	7,49
345,084	9,85
345,607	10,83
346,13	17,18
346,653	7,77
347,175	18,67
347,698	15,52
348,221	9,87
348,743	13,38
349,265	17,91
349,787	15,3
350,309	11,11
350,831	15,69
351,353	17,04
351,875	17,79
352,397	11,67
352,918	20,82
353,439	14,86
353,961	13,28
354,482	18,86
355,003	19,64
355,524	19,66
356,044	17,52
356,565	17,63
357,086	17,54
357,606	16,16
358,126	15,58
358,646	16,09
359,167	16,74
359,687	15,41
360,206	19,79
360,726	14,2
361,246	17,21
361,765	17,65
362,285	13,99
362,804	15,43
363,323	17,56
363,842	18,69
364,361	11,23
364,88	14,87
365,398	18,82
365,917	16,69
366,435	14,01
366,954	16,21
367,472	19,38
367,99	16,99
368,508	11,26
369,026	14,2
369,544	17,56
370,061	15,17
370,579	14,95
371,096	16,42
371,613	18,66
372,131	17,39
372,648	15,61
373,165	17,81
373,681	11,97
374,198	16,26
374,715	21,57
375,231	16,65
375,747	13,94
376,264	15,93
376,78	18,13
377,296	15,55
377,812	16,83
378,327	12,42
378,843	15,01
379,359	17
379,874	14,99
380,389	14,03
380,905	15,92
381,42	14,64
381,935	14,78
382,449	15,23
382,964	15,06
383,479	15,23
383,993	16,93
384,508	16,76
385,022	12,2
385,536	13,26
386,05	12,74
386,564	13,56
387,078	14,45
387,592	12,31
388,105	12,5
388,619	13,81
389,132	13,56
389,645	13,05
390,158	14,69
390,671	15,63
391,184	12,29
391,697	14,39
392,21	13,61
392,722	11,82
393,235	12,9
393,747	11,26
394,259	13,37
394,771	14,76
395,283	12,75
395,795	12,66
396,307	12,35
396,818	11,73
397,33	12
397,841	12,06
398,353	10,49
398,864	11,52
399,375	12,92
399,886	13,86
400,397	10,46
400,907	10,7
401,418	12,32
401,928	10,84
402,439	10,66
402,949	10,62
403,459	10,29
403,969	9,4
404,479	10,1
404,989	8,51
405,498	9,16
406,008	10,48
406,517	9,13
407,027	7,37
407,536	9,03
408,045	7,95
408,554	8,18
409,063	7,05
409,572	7,64
410,08	7,82
410,589	7,11
411,097	6,78
411,606	6,35
412,114	6,04
412,622	6,85
413,13	5,85
413,638	5,63
414,145	6,57
414,653	5,76
415,16	4,97
415,668	5,53
416,175	5,65
416,682	5,32
417,189	5,49
417,696	5,08
418,203	5,34
418,71	5,16
419,216	4,76
419,723	4,88
420,229	4,76
420,735	4,59
421,242	4,88
421,748	4,46
422,254	4,59
422,759	4,47
423,265	4,38
423,771	4,28
424,276	4,27
424,781	4,43
425,287	4,32
425,792	3,95
426,297	4,15
426,802	4,24
427,306	4,51
427,811	4,5
428,316	4,52
428,82	3,79
429,324	4,12
429,829	4,37
430,333	3,92
430,837	3,82
431,34	4,22
431,844	3,89
432,348	4
432,851	3,51
433,355	3,88
433,858	3,89
434,361	4,26
434,864	3,87
435,367	4,25
435,87	4,04
436,373	3,85
436,876	4,26
437,378	3,92
437,88	3,85
438,383	4,16
438,885	4,1
439,387	3,76
439,889	4,27
440,391	3,99
440,892	4,07
441,394	4,09
441,896	3,98
442,397	3,62
442,898	3,9
443,399	3,94
443,9	3,82
444,401	4,15
444,902	4,09
445,403	4,38
445,903	4,11
446,404	4,15
446,904	4,26
447,405	3,98
447,905	4,06
448,405	4,11
448,905	4,15
449,404	4,3
449,904	3,96
450,404	4,22
450,903	3,92
451,403	4,45
451,902	4,54
452,401	4,27
452,9	3,88
453,399	4,07
453,898	3,98
454,396	4,39
454,895	4,26
455,393	4,31
455,892	4,32
456,39	4,31
456,888	4,36
457,386	4,06
457,884	4,09
458,382	4,28
458,879	4,13
459,377	4,37
459,874	4,13
460,372	4,1
460,869	4,1
461,366	4,24
461,863	4,12
462,36	4,15
462,857	4,25
463,353	4,28
463,85	4,15
464,346	4,14
464,843	4,46
465,339	4,3
465,835	3,94
466,331	3,98
466,827	4,27
467,323	4,38
467,818	4,39
468,314	4,16
468,809	4,69
469,305	4,33
469,8	4,53
470,295	4,27
470,79	4,79
471,285	4,03
471,78	4,3
472,274	4,42
472,769	4,26
473,263	4,67
473,758	4,29
474,252	4,41
474,746	4,29
475,24	4,41
475,734	4,13
476,228	4,3
476,721	4,51
477,215	4,51
477,708	4,44
478,202	4,5
478,695	4,45
479,188	4,31
479,681	4,42
480,174	4,46
480,667	4,55
481,159	4,04
481,652	4,45
482,144	4,34
482,637	4,61
483,129	4,57
483,621	4,46
484,113	4,35
484,605	4,56
485,097	4,63
485,588	4,3
486,08	4,21
486,571	4,67
487,063	4,66
487,554	4,61
488,045	4,66
488,536	4,54
489,027	4,46
489,518	4,65
490,008	4,71
490,499	4,73
490,989	4,72
491,48	4,75
491,97	4,75
492,46	4,7
492,95	4,84
493,44	4,82
493,93	4,89
494,419	4,77
494,909	4,93
495,398	4,75
495,888	4,81
496,377	4,8
496,866	4,99
497,355	4,92
497,844	5,31
498,333	5,24
498,821	5,09
499,31	5,22
499,798	5,37
500,287	5,74
500,775	5,43
501,263	5,43
501,751	5,6
502,239	5,63
502,727	5,69
503,215	5,81
503,702	6,18
504,19	6,08
504,677	6,19
505,164	6,05
505,651	6,33
506,139	6,35
506,625	6,54
507,112	6,72
507,599	6,67
508,086	6,7
508,572	6,94
509,058	7,06
509,545	7,4
510,031	7,12
510,517	7,15
511,003	7,37
511,489	7,68
511,974	7,67
512,46	7,99
512,946	7,88
513,431	8,29
513,916	8,14
514,401	8,54
514,887	8,44
515,371	8,67
515,856	9,27
516,341	9,08
516,826	9,36
517,31	9,37
517,795	9,46
518,279	9,36
518,763	10,02
519,247	9,73
519,731	10,22
520,215	10,12
520,699	10,35
521,182	10,8
521,666	11,07
522,149	10,82
522,633	11,17
523,116	11,06
523,599	11,41
524,082	11,38
524,565	11,74
525,048	11,89
525,53	12,05
526,013	12,14
526,495	12,02
526,978	12,25
527,46	12,5
527,942	12,61
528,424	12,7
528,906	12,81
529,388	12,97
529,87	12,96
530,351	13,15
530,833	13,28
531,314	13,41
531,795	13,2
532,277	13,31
532,758	13,62
533,238	13,71
533,719	13,68
534,2	14,05
534,681	13,92
535,161	13,94
535,642	13,6
536,122	13,91
536,602	13,98
537,082	13,87
537,562	14,31
538,042	13,99
538,522	14,04
539,001	14,26
539,481	14,67
539,96	14,4
540,44	13,98
540,919	14,06
541,398	14,21
541,877	14,17
542,356	14,32
542,835	14,42
543,313	14,37
543,792	14,03
544,27	14,41
544,749	14,13
545,227	14,28
545,705	14,67
546,183	14,75
546,661	14,17
547,139	14,69
547,616	14,5
548,094	14,31
548,571	14,54
549,049	14,63
549,526	14,81
550,003	14,89
550,48	14,74
550,957	14,36
551,434	14,52
551,911	14,72
552,387	14,68
552,864	14,57
553,34	14,63
553,817	14,7
554,293	14,93
554,769	14,52
555,245	14,65
555,721	14,54
556,197	14,54
556,672	14,64
557,148	14,58
557,623	14,51
558,099	14,38
558,574	14,56
559,049	14,36
559,524	14,53
559,999	14,4
560,474	14,68
560,948	14,39
561,423	14,15
561,897	14,27
562,372	14,49
562,846	14,2
563,32	14,14
563,794	14,37
564,268	14,01
564,742	13,97
565,216	14,07
565,69	14,04
566,163	13,89
566,636	13,95
567,11	13,71
567,583	13,79
568,056	13,76
568,529	13,35
569,002	13,68
569,475	13,53
569,947	13,19
570,42	13,11
570,892	13,14
571,365	13,36
571,837	13,17
572,309	13,03
572,781	12,73
573,253	12,74
573,725	12,73
574,197	12,7
574,668	12,1
575,14	12,33
575,611	12,4
576,082	12,33
576,554	12,2
577,025	12,08
577,496	12,03
577,967	11,71
578,437	11,97
578,908	11,74
579,379	11,58
579,849	11,57
580,319	11,33
580,79	11,43
581,26	11,33
581,73	11,33
582,2	11,33
582,669	11,15
583,139	11,41
583,609	11,1
584,078	11,13
584,548	11,12
585,017	10,74
585,486	10,84
585,955	10,94
586,424	10,91
586,893	10,74
587,362	10,7
587,83	10,63
588,299	10,8
588,767	10,67
589,236	10,71
589,704	10,49
590,172	10,52
590,64	10,35
591,108	10,46
591,576	10,31
592,043	10,43
592,511	10,39
592,978	10,26
593,446	10,19
593,913	10,23
594,38	10,12
594,847	10,03
595,314	10,04
595,781	10,23
596,248	10,14
596,715	9,96
597,181	10,22
597,647	10,14
598,114	9,93
598,58	10,05
599,046	9,97
599,512	10,11
599,978	9,94
600,444	9,94
600,91	9,96
601,375	10,14
601,841	9,93
602,306	10,04
602,771	9,75
603,236	10,01
603,702	9,72
604,167	9,76
604,631	9,63
605,096	9,92
605,561	9,68
606,025	9,49
606,49	9,78
606,954	9,92
607,418	9,49
607,882	9,47
608,347	9,35
608,81	9,46
609,274	9,12
609,738	9,24
610,202	9,09
610,665	9,12
611,128	9,26
611,592	8,98
612,055	8,94
612,518	8,96
612,981	8,88
613,444	8,84
613,907	8,88
614,369	8,8
614,832	8,66
615,294	8,7
615,757	8,59
616,219	8,6
616,681	8,47
617,143	8,42
617,605	8,37
618,067	8,34
618,529	8,38
618,99	8,27
619,452	8,26
619,913	8,27
620,375	8,12
620,836	8,39
621,297	8,17
621,758	8,11
622,219	8,07
622,68	8,19
623,14	7,98
623,601	8,02
624,061	8
624,522	8,1
624,982	8,03
625,442	7,89
625,902	7,9
626,362	7,95
626,822	7,91
627,282	7,92
627,742	7,94
628,201	7,83
628,661	7,73
629,12	7,79
629,579	7,77
630,038	7,78
630,497	7,95
630,956	7,88
631,415	7,68
631,874	7,75
632,332	7,65
632,791	7,59
633,249	7,6
633,708	7,73
634,166	7,58
634,624	7,55
635,082	7,54
635,54	7,39
635,998	7,52
636,455	7,58
636,913	7,34
637,37	7,47
637,828	7,29
638,285	7,24
638,742	7,11
639,199	7,1
639,656	6,99
640,113	7
640,57	6,95
641,027	6,83
641,483	6,89
641,94	6,93
642,396	6,73
642,852	6,66
643,309	6,66
643,765	6,61
644,221	6,39
644,676	6,51
645,132	6,33
645,588	6,26
646,043	6,17
646,499	6,06
646,954	6,12
647,409	6,01
647,864	5,98
648,319	5,81
648,774	5,79
649,229	5,82
649,684	5,85
650,139	5,75
650,593	5,75
651,047	5,63
651,502	5,63
651,956	5,55
652,41	5,52
652,864	5,49
653,318	5,5
653,772	5,5
654,225	5,5
654,679	5,41
655,133	5,43
655,586	5,51
656,039	5,34
656,492	5,22
656,946	5,23
657,399	5,15
657,851	5,15
658,304	5,27
658,757	5,12
659,209	4,98
659,662	5,06
660,114	5
660,567	4,82
661,019	4,91
661,471	4,8
661,923	4,76
662,375	4,72
662,826	4,65
663,278	4,57
663,73	4,68
664,181	4,6
664,632	4,54
665,084	4,5
665,535	4,46
665,986	4,43
666,437	4,42
666,888	4,46
667,338	4,39
667,789	4,4
668,24	4,45
668,69	4,34
669,14	4,38
669,591	4,45
670,041	4,42
670,491	4,38
670,941	4,42
671,391	4,45
671,84	4,51
672,29	4,48
672,74	4,46
673,189	4,52
673,638	4,52
674,088	4,54
674,537	4,65
674,986	4,67
675,435	4,74
675,883	4,75
676,332	4,72
676,781	4,8
677,229	4,83
677,678	4,91
678,126	4,96
678,574	4,91
679,022	5,07
679,47	5,2
679,918	5,26
680,366	5,24
680,814	5,34
681,261	5,47
681,709	5,54
682,156	5,51
682,604	5,51
683,051	5,78
683,498	5,77
683,945	5,85
684,392	5,88
684,839	5,92
685,286	6,1
685,732	6,1
686,179	6,2
686,625	6,39
687,071	6,58
687,518	6,55
687,964	6,63
688,41	6,87
688,856	6,87
689,301	7,07
689,747	7,23
690,193	7,48
690,638	7,57
691,084	7,83
691,529	8,02
691,974	8,19
692,419	8,4
692,864	8,58
693,309	8,9
693,754	9,12
694,199	9,36
694,643	9,59
695,088	9,85
695,532	10,22
695,977	10,53
696,421	10,68
696,865	10,75
697,309	11,23
697,753	11,5
698,197	11,78
698,64	12,01
699,084	12,23
699,527	12,49
699,971	12,73
700,414	12,82
700,857	13,24
701,3	13,53
701,743	13,72
702,186	14,01
702,629	14,2
703,072	14,54
703,515	14,69
703,957	14,76
704,399	14,93
704,842	15,22
705,284	15,28
705,726	15,42
706,168	15,77
706,61	15,8
707,052	16,16
707,494	16,34
707,935	16,39
708,377	16,38
708,818	16,77
709,26	17
709,701	16,97
710,142	17,26
710,583	17,42
711,024	17,39
711,465	17,52
711,905	17,96
712,346	17,87
712,787	18,22
713,227	18,26
713,667	18,3
714,108	18,51
714,548	18,64
714,988	18,56
715,428	18,98
715,868	18,83
716,307	19,03
716,747	19,15
717,186	19,26
717,626	19,41
718,065	19,36
718,504	19,66
718,944	19,72
719,383	19,79
719,822	19,68
720,261	19,84
720,699	20,1
721,138	20,07
721,576	20,33
722,015	20,18
722,453	20,31
722,892	20,53
723,33	20,39
723,768	20,61
724,206	20,61
724,644	20,67
725,081	20,66
725,519	20,92
725,957	21,01
726,394	20,91
726,832	21,1
727,269	21,06
727,706	21,26
728,143	21,2
728,58	21,24
729,017	21,42
729,454	21,39
729,89	21,5
730,327	21,36
730,764	21,43
731,2	21,64
731,636	21,58
732,072	21,71
732,509	21,47
732,945	21,52
733,38	21,5
733,816	21,62
734,252	21,62
734,688	21,75
735,123	21,81
735,559	21,86
735,994	21,85
736,429	21,95
736,864	22
737,299	21,74
737,734	21,76
738,169	21,86
738,604	21,86
739,038	21,8
739,473	21,93
739,907	21,96
740,342	21,97
740,776	21,86
741,21	21,79
741,644	21,79
742,078	21,82
742,512	21,72
742,946	21,86
743,379	21,83
743,813	21,75
744,246	21,93
744,68	21,79
745,113	21,68
745,546	21,81
745,979	21,6
746,412	21,75
746,845	21,71
747,278	21,68
747,711	21,76
748,143	21,74
748,576	21,5
749,008	21,63
749,441	21,5
749,873	21,5
750,305	21,8
750,737	21,67
751,169	21,64
751,601	21,3
752,032	21,59
752,464	21,54
752,896	21,63
753,327	21,55
753,758	21,34
754,19	21,34
754,621	21,56
755,052	21,49
755,483	21,39
755,914	21,44
756,344	21,28
756,775	21,22
757,206	21,35
757,636	21,3
758,066	21,31
758,497	21,2
758,927	21,35
759,357	21,36
759,787	21,38
760,217	21,18
760,647	21,18
761,076	21,29
761,506	21,07
761,935	21,12
762,365	20,99
762,794	21,19
763,223	21,29
763,653	21,19
764,082	21,29
764,51	20,79
764,939	21
765,368	21,05
765,797	20,99
766,225	21,12
766,654	20,83
767,082	20,95
767,51	20,99
767,938	21,05
768,367	21,12
768,795	21,22
769,222	20,92
769,65	20,72
770,078	20,93
770,505	20,84
770,933	20,84
771,36	20,9
771,788	21,03
772,215	20,9
772,642	20,89
773,069	20,77
773,496	20,94
773,923	20,83
774,349	20,82
774,776	20,79
775,203	20,75
775,629	20,84
776,055	20,79
776,482	20,59
776,908	20,71
777,334	20,72
777,76	20,62
778,186	20,7
778,611	20,79
779,037	20,69
779,463	20,51
779,888	20,66
780,314	20,76
780,739	20,79
781,164	20,7
781,589	20,7
782,014	20,59
782,439	20,61
782,864	20,75
783,289	20,62
783,713	20,68
784,138	20,64
784,562	20,66
784,987	20,64
785,411	20,73
785,835	20,69
786,259	20,6
786,683	20,54
787,107	20,48
787,531	20,61
787,954	20,51
788,378	20,49
788,802	20,36
789,225	20,61
789,648	20,68
790,071	20,34
790,495	20,5
790,918	20,59
791,34	20,56
791,763	20,49
792,186	20,72
792,609	20,47
793,031	20,56
793,454	20,51
793,876	20,57
794,298	20,43
794,721	20,4
795,143	20,44
795,565	20,47
795,986	20,15
796,408	20,63
796,83	20,45
797,252	20,42
797,673	20,49
798,094	20,29
798,516	20,45
798,937	20,35
799,358	20,39
799,779	20,37
800,2	20,49
800,621	20,47
801,042	20,48
801,462	20,29
801,883	20,44
802,303	20,3
802,724	20,41
803,144	20,52
803,564	20,38
803,984	20,52
804,404	20,41
804,824	20,52
805,244	20,4
805,664	20,3
806,084	20,37
806,503	20,43
806,923	20,36
807,342	20,42
807,761	20,24
808,18	20,35
808,599	20,53
809,018	20,24
809,437	20,37
809,856	20,25
810,275	20,54
810,693	20,38
811,112	20,14
811,53	20,33
811,949	20,48
812,367	20,3
812,785	20,41
813,203	20,26
813,621	20,2
814,039	20
814,457	20,29
814,874	20,57
815,292	20,32
815,709	20,36
816,127	20,37
816,544	20,27
816,961	20,39
817,378	20,32
817,795	20,33
818,212	20,25
818,629	20,35
819,046	20,14
819,462	20,31
819,879	20,3
820,295	20,3
820,712	20,26
821,128	20,09
821,544	19,99
821,96	20,25
822,376	20,19
822,792	20,35
823,208	20,13
823,624	20,27
824,039	20,4
824,455	20,21
824,87	20,1
825,286	20,27
825,701	20,09
826,116	20,3
826,531	20,13
826,946	20,39
827,361	20,15
827,776	20,3
828,19	20,13
828,605	20,25
829,02	20,35
829,434	20,26
829,848	20,28
830,263	20,23
830,677	20,14
831,091	20,16
831,505	20,29
831,919	20,34
832,332	20,12
832,746	20,17
833,16	19,99
833,573	20,27
833,987	20,17
834,4	20,02
834,813	20,15
835,226	20,02
835,639	20,3
836,052	20,19
836,465	20,36
836,878	20,25
837,29	20,36
837,703	19,97
838,116	20,26
838,528	20,14
838,94	20
839,352	20,13
839,765	20,01
840,177	20,13
840,589	19,87
841	20,11
841,412	20,17
841,824	20,05
842,235	20,03
842,647	20,1
843,058	20,27
843,47	20,06
843,881	20,13
844,292	19,9
844,703	20,11
845,114	20,35
845,525	20,1
845,935	20,06
846,346	20,09
846,757	20,03
847,167	20,09
847,577	20,14
847,988	19,98
848,398	20,22
848,808	20,07
849,218	20,02
849,628	19,93
850,038	20,17
850,448	20
850,857	20,11
851,267	19,82
851,676	20,17
852,086	20,18
852,495	20,02
852,904	20,02
853,313	19,9
853,722	20,27
854,131	20,06
854,54	20,12
854,949	19,88
855,357	20,16
855,766	19,88
856,174	20,1
856,583	20,01
856,991	20,06
857,399	20,2
857,807	19,93
858,215	20,09
858,623	19,99
859,031	20,05
859,439	20
859,846	20,11
860,254	20,06
860,661	19,73
861,069	19,99
861,476	19,96
861,883	20,03
862,29	19,92
862,697	19,94
863,104	19,98
863,511	20,05
863,918	20,05
864,325	19,97
864,731	20,03
865,138	19,92
865,544	19,74
865,95	19,67
866,357	19,93
866,763	19,73
867,169	20,01
867,575	19,74
867,98	20,07
868,386	20,01
868,792	20,01
869,197	19,85
869,603	19,9
870,008	19,78
870,414	20,15
870,819	19,95
871,224	20,02
871,629	19,96
872,034	19,86
872,439	19,92
872,844	19,93
873,248	19,8
873,653	19,87
874,057	20
874,462	19,66
874,866	19,89
875,27	19,94
875,674	19,82
876,078	19,86
876,482	19,8
876,886	19,65
877,29	19,96
877,694	19,74
878,097	19,92
878,501	20,16
878,904	19,92
879,308	19,94
879,711	19,92
880,114	19,99
880,517	19,98
880,92	19,87
881,323	19,69
881,726	19,95
882,128	19,86
882,531	19,75
882,934	19,64
883,336	19,85
883,738	19,95
884,141	19,7
884,543	19,87
884,945	20
885,347	19,87
885,749	19,46
886,151	19,76
886,552	19,49
886,954	20,03
887,355	19,88
887,757	19,85
888,158	19,84
888,56	20,02
888,961	19,6
889,362	19,86
889,763	19,59
890,164	19,79
890,565	19,63
890,965	19,98
891,366	19,86
891,767	19,79
892,167	20,08
892,567	19,74
892,968	19,85
893,368	19,97
893,768	19,89
894,168	19,92
894,568	19,76
894,968	19,85
895,368	19,88
895,767	19,96
896,167	19,74
896,566	19,71
896,966	19,93
897,365	19,66
897,764	19,97
898,164	19,74
898,563	20,02
898,962	19,79
899,361	19,75
899,759	19,79
900,158	19,69
900,557	19,87
900,955	20
901,354	19,62
901,752	19,81
902,15	19,78
902,548	19,82
902,947	19,7
903,345	19,95
903,742	19,78
904,14	19,69
904,538	19,68
904,936	19,67
905,333	19,83
905,731	19,69
906,128	19,67
906,525	19,77
906,923	19,76
907,32	19,88
907,717	19,63
908,114	19,73
908,511	19,93
908,907	19,94
909,304	19,76
909,701	19,85
910,097	20,14
910,494	19,73
910,89	20
911,286	19,64
911,682	19,7
912,078	19,79
912,474	19,64
912,87	19,91
913,266	19,81
913,662	19,8
914,058	19,92
914,453	20,03
914,849	19,78
915,244	19,98
915,639	19,77
916,034	19,93
916,43	19,7
916,825	20,11
917,22	19,48
917,614	19,68
918,009	19,77
918,404	19,49
918,798	19,89
919,193	19,74
919,587	19,62
919,982	19,75
920,376	19,51
920,77	19,56
921,164	19,66
921,558	19,63
921,952	19,79
922,346	19,78
922,74	19,65
923,133	19,74
923,527	19,67
923,92	19,99
924,314	19,7
924,707	19,69
925,1	19,65
925,493	19,56
925,886	20,01
926,279	19,69
926,672	20,07
927,065	19,76
927,457	19,58
927,85	19,78
928,243	19,47
928,635	19,59
929,027	19,67
929,42	19,66
929,812	19,59
930,204	19,6
930,596	19,96
930,988	19,63
931,379	19,67
931,771	19,57
932,163	19,84
932,554	19,55
932,946	19,56
933,337	19,37
933,729	19,54
934,12	19,63
934,511	19,75
934,902	19,46
935,293	19,16
935,684	19,23
936,075	19,36
936,465	19,5
936,856	19,24
937,246	19,64
937,637	19,61
938,027	19,62
938,417	19,61
938,808	19,2
939,198	19,92
939,588	19,33
939,978	19,55
940,368	19,89
940,757	19,83
941,147	18,76
941,537	19,19
941,926	19,48
942,315	19,56
942,705	19,15
943,094	19,67
943,483	19,89
943,872	19,42
944,261	19,38
944,65	19,57
945,039	19,58
945,428	19,35
945,816	19,62
946,205	19,87
946,593	19,47
946,982	18,94
947,37	19,38
947,758	19,22
948,146	19,25
948,534	19,59
948,922	19,62
949,31	19,25
949,698	19,46
950,086	19,62
950,473	19,65
950,861	18,96
951,248	19,07
951,636	19,1
952,023	19,4
952,41	19,12
952,797	19,65
953,184	19,44
953,571	19,24
953,958	19,01
954,345	19,16
954,731	19,32
955,118	19,18
955,505	19,3
955,891	19,43
956,277	19,06
956,664	19,35
957,05	19,04
957,436	18,95
957,822	19,05
958,208	19,14
958,594	18,95
958,979	19,51
959,365	19,03
959,751	19,29
960,136	18,99
960,522	19,37
960,907	19,03
961,292	18,87
961,677	18,98
962,062	19,4
962,447	19,15
962,832	18,94
963,217	19,18
963,602	19,21
963,986	19,1
964,371	19,25
964,756	19,12
965,14	18,9
965,524	19,07
965,908	19,29
966,293	19,08
966,677	19
967,061	18,97
967,445	18,94
967,828	18,88
968,212	19,21
968,596	18,88
968,979	19,17
969,363	19,13
969,746	19,19
970,129	19,13
970,513	18,74
970,896	19,15
971,279	19,18
971,662	18,75
972,045	18,83
972,428	19,06
972,81	19,03
973,193	18,93
973,575	18,78
973,958	18,97
974,34	19,22
974,723	18,79
975,105	19,14
975,487	19,02
975,869	19,27
976,251	18,87
976,633	19,03
977,015	19,04
977,396	19,07
977,778	19,06
978,16	19,35
978,541	19,1
978,922	19,13
979,304	19,28
979,685	19,38
980,066	19,07
980,447	19,12
980,828	19,15
981,209	18,94
981,59	19,03
981,97	18,83
982,351	19,11
982,732	19,23
983,112	19,19
983,493	19,04
983,873	19,01
984,253	19,09
984,633	19,16
985,013	19,06
985,393	18,85
985,773	19,05
986,153	19,08
986,533	19,05
986,912	18,79
987,292	19,01
987,671	19,45
988,051	19,14
988,43	19,25
988,809	19,12
989,188	18,94
989,567	19,14
989,946	19,2
990,325	19,43
990,704	18,98
991,083	19,41
991,461	19,06
991,84	19,24
992,218	18,69
992,597	19,32
992,975	18,72
993,353	19,1
993,732	18,97
994,11	19,06
994,488	19,05
994,866	19,16
995,243	19,27
995,621	18,94
995,999	19,43
996,376	19,24
996,754	19,13
997,131	18,67
997,509	18,74
997,886	19,29
998,263	18,96
998,64	19,12
999,017	19,18
999,394	19,21
999,771	18,95
1000,148	18,93
1000,524	19,03
1000,901	19,3
1001,277	19,06
1001,654	18,76
1002,03	18,88
1002,406	18,85
1002,783	18,96
1003,159	19,28
1003,535	19,14
1003,911	19,17
1004,286	18,91
1004,662	18,89
1005,038	19,29
1005,414	18,98
1005,789	19,28
1006,164	18,8
1006,54	19,2
1006,915	19,42
1007,29	18,79
1007,665	19,74
1008,04	19,25
1008,415	19,25
1008,79	19,22
1009,165	19,14
1009,54	19,1
1009,914	19,49
1010,289	19,1
1010,663	19,45
1011,038	19,45
1011,412	18,99
1011,786	19,14
1012,16	18,91
1012,535	19,33
1012,909	18,85
1013,282	19,26
1013,656	19,51
1014,03	19,1
1014,404	18,8
1014,777	19,09
1015,151	18,92
1015,524	19,19
1015,897	19,38
1016,271	19,53
1016,644	18,78
1017,017	19,5
1017,39	19,14
1017,763	19,58
1018,136	18,93
1018,508	19,29
1018,881	19,17
1019,254	19,16
1019,626	18,89
1019,999	18,92
1020,371	18,86
1020,743	19,7
1021,116	19,49
1021,488	19,09
1021,86	19,11
1022,232	18,88
1022,604	19,54
1022,975	19,16
1023,347	19,31
1023,719	18,98
1024,09	19,15
1024,462	19,16
1024,833	18,99
1025,204	19,09
1025,576	19,07
1025,947	18,76
1026,318	19,08
1026,689	19,07
1027,06	19,43
1027,431	19,61
1027,801	18,96
1028,172	19,31
1028,543	19,04
1028,913	19,2
1029,284	19,43
1029,654	18,67
1030,024	18,73
1030,394	19,26
1030,764	19,59
1031,135	18,97
1031,504	19,13
1031,874	19,5
1032,244	19,15
1032,614	19,3
1032,983	19,69
1033,353	18,88
1033,722	19,2
1034,092	19,4
1034,461	19,3
1034,83	19,72
1035,2	19,3
1035,569	19,57
1035,938	19,13
1036,307	19,42
1036,675	19,51
1037,044	19,42
1037,413	18,87
1037,781	19,18
1038,15	19,49
1038,518	18,97
1038,887	19,16
1039,255	19,18
1039,623	19,28
1039,991	19,34
1040,359	18,89
1040,727	19,5
1041,095	18,49
1041,463	19,32
1041,831	19,44
1042,198	19,6
1042,566	19,25
1042,933	18,92
1043,301	19,42
1043,668	19,03
1044,035	19,21
1044,402	19,21
1044,77	18,75
1045,137	18,46
1045,503	20,14
1045,87	19,01
1046,237	19,27
1046,604	19,28
1046,97	19,41
1047,337	19
1047,703	19,36
1048,07	19,35
1048,436	19,41
1048,802	19,13
1049,168	19,31
1049,534	18,97
1049,9	19,5
1050,266	19,18
1050,632	18,99
1050,998	19,16
1051,364	19,66
1051,729	19,47
1052,095	19,4
1052,46	18,23
1052,825	18,71
1053,191	19,22
1053,556	19,12
1053,921	18,69
1054,286	19
1054,651	20,05
1055,016	19,21
1055,381	18,81
1055,745	18,78
1056,11	19,01
1056,475	19,96
1056,839	19,01
1057,203	18,89
1057,568	19,04
1057,932	19,61
1058,296	19,53
1058,66	19,52
1059,024	19,24
1059,388	19,4
1059,752	19,36
1060,116	19,68
1060,48	19,28
1060,843	18,31
1061,207	18,37
1061,57	18,45
1061,934	18,95
1062,297	19,44
1062,66	19,8
1063,023	19,49
1063,386	18,17
1063,749	18,17
1064,112	18,86
1064,475	18,85
1064,838	18,87
1065,201	18,85
1065,563	19,72
1065,926	18,61
1066,288	19,47
1066,651	18,73
1067,013	19,08
1067,375	19,17
1067,737	18,55
1068,099	19,36
1068,461	18,7
1068,823	19,15
1069,185	19,31
1069,547	19,19
1069,909	18,72
1070,27	19,16
1070,632	19,62
1070,993	19,47
1071,355	19,12
1071,716	19,39
1072,077	19,71
1072,438	19,09
1072,799	20,06
1073,16	19,86
1073,521	18,54
1073,882	18,37
1074,243	17,98
1074,603	19,14
1074,964	19,42
1075,325	19,77
1075,685	19,07
1076,045	20,67
1076,406	18,43
1076,766	19,5
1077,126	19,38
1077,486	19,43
1077,846	19,09
1078,206	18,43
1078,566	19,19
1078,925	19,89
1079,285	20,53
1079,645	18,7
1080,004	20,04
1080,364	18,81
1080,723	18,56
1081,082	18,78
1081,442	19,35
1081,801	18,33
1082,16	19,46
1082,519	19,02
1082,878	19,48
1083,237	18,06
1083,595	18,22
1083,954	19,04
1084,313	19,35
1084,671	19,7
1085,03	19,5
1085,388	19,19
1085,746	20,7
1086,104	19,38
1086,463	18,48
1086,821	19,23
1087,179	19,04
1087,537	20,26
1087,894	19,75
1088,252	19,29
1088,61	20,29
1088,967	19,64
1089,325	18,87
1089,682	19,42
1090,04	18,64
1090,397	18
1090,754	18,46
1091,111	18,32
1091,469	19,27
1091,826	19,57
1092,182	19,32
1092,539	18,45
1092,896	19,11
1093,253	19,66
1093,609	19,51
1093,966	18,85
1094,322	19,09
1094,679	19,83
1095,035	18,29
1095,391	18,46
1095,748	19,31
1096,104	19,39
1096,46	18,39
1096,816	19,42
1097,171	20,99
1097,527	19,08
1097,883	20,81
1098,239	19,96
1098,594	19,39
1098,95	18,54
1099,305	17,65
1099,66	18,38
1100,016	19,75
1100,371	19,43
1100,726	18,56
1101,081	19,18
1101,436	19,8
1101,791	19,92
1102,146	18,45
1102,5	20,42
1102,855	20,2
1103,21	18,34
1103,564	19,41
1103,918	19,68
1104,273	19,41
1104,627	19,32
1104,981	19,13
1105,335	19,06
1105,69	19,48
1106,043	18,84
1106,397	19,18
1106,751	19,92
1107,105	19,06
1107,459	20,01
1107,812	19,83
1108,166	18,73
1108,519	16,3
1108,873	18,62
1109,226	19,79
1109,579	18,11
1109,932	17,6
1110,285	19,73
1110,638	18,42
1110,991	17,79
1111,344	20,41
1111,697	17,7
1112,05	20,25
1112,402	18,58
1112,755	22,77
1113,107	20,1
1113,46	20,67
1113,812	22
1114,164	17,87
1114,517	17,36
1114,869	26,97
1115,221	22,4
1115,573	17,01
1115,924	19,72
