Data from I_4_0_Relative__6__00189.txt Node

Date: Mon Jan 29 13:09:28 CET 2024
User: diatiterra
Spectrometer: HDX00911
Trigger mode: 0
Integration Time (sec): 6,000000E-3
Scans to average: 2
Nonlinearity correction enabled: false
Boxcar width: 0
Storing dark spectrum: false
XAxis mode: Wavelengths
Number of Pixels in Spectrum: 2068
>>>>>Begin Spectral Data<<<<<
194,468	8,54
195,025	29,15
195,581	14,53
196,138	29,82
196,694	26,52
197,251	21,75
197,807	27,55
198,363	21,38
198,919	22,48
199,474	28
200,03	18,32
200,586	19,54
201,141	21,37
201,696	23,23
202,251	20,37
202,806	15,61
203,361	19,83
203,916	23,67
204,471	21,54
205,025	21,72
205,58	23,04
206,134	18,28
206,688	25,81
207,242	18,9
207,796	22,04
208,35	20,05
208,904	24,49
209,457	26,02
210,011	24,31
210,564	20,58
211,117	16,05
211,67	25,15
212,223	24,41
212,776	25,6
213,329	25,45
213,881	18,48
214,434	19,08
214,986	21,32
215,538	23,67
216,09	14,9
216,642	26,98
217,194	24,58
217,746	19,7
218,297	15,45
218,849	19,31
219,4	21,71
219,951	14,22
220,502	18,42
221,053	17,02
221,604	16,04
222,155	14,25
222,705	18,16
223,256	14,53
223,806	22,01
224,356	19,02
224,906	26
225,456	22,11
226,006	18,41
226,556	20,04
227,106	20,98
227,655	16,84
228,204	14,38
228,754	24,02
229,303	17,36
229,852	28,51
230,401	22,97
230,949	24,4
231,498	16,67
232,047	19,91
232,595	16,53
233,143	15,42
233,691	20,49
234,239	20,98
234,787	20,23
235,335	19,57
235,883	22,62
236,43	19,42
236,978	17,36
237,525	18,97
238,072	20,48
238,619	21,03
239,166	27,15
239,713	25,47
240,26	21,78
240,806	24,46
241,353	20,92
241,899	21,59
242,445	27,01
242,991	18,44
243,537	18,03
244,083	26,97
244,629	21,82
245,174	19,21
245,72	20
246,265	22,14
246,81	25,51
247,355	26,82
247,9	21,01
248,445	12,58
248,99	22,59
249,534	9,98
250,079	16
250,623	21,26
251,168	25,73
251,712	22,8
252,256	20
252,8	16,12
253,343	15,4
253,887	25,53
254,43	21,24
254,974	16,24
255,517	18,34
256,06	19,65
256,603	15,91
257,146	16,24
257,689	22,29
258,232	19,5
258,774	9,16
259,317	24,83
259,859	17,77
260,401	18,61
260,943	20,67
261,485	20,44
262,027	18,82
262,569	16
263,11	24,57
263,652	20,24
264,193	18,22
264,734	13,3
265,275	27,46
265,816	19,12
266,357	17,69
266,898	8,45
267,438	16,06
267,979	23,89
268,519	28,23
269,059	11,68
269,6	17,83
270,14	21,62
270,68	20,76
271,219	21,52
271,759	24,94
272,298	12,92
272,838	20,18
273,377	25,31
273,916	15,88
274,455	12,25
274,994	16,74
275,533	21,25
276,072	16,95
276,61	22,03
277,149	18,45
277,687	16,48
278,225	13,8
278,763	20,36
279,301	14,89
279,839	20,43
280,377	14,45
280,914	30,63
281,452	15,37
281,989	18,02
282,526	11,37
283,064	26,01
283,601	19,03
284,137	23,33
284,674	14,32
285,211	26,14
285,747	16,71
286,284	19,86
286,82	19,36
287,356	28,04
287,892	20,86
288,428	15,02
288,964	29,65
289,5	21,12
290,035	25,17
290,571	21,71
291,106	11,14
291,641	27,27
292,176	24,94
292,711	23,03
293,246	30,73
293,781	18,51
294,315	13,72
294,85	25,88
295,384	16,18
295,918	16,89
296,453	20,28
296,987	17,3
297,52	25,66
298,054	19,91
298,588	21,52
299,121	20,84
299,655	20,59
300,188	18,68
300,721	27,67
301,254	16,67
301,787	25,42
302,32	23,5
302,853	14,76
303,385	20,26
303,918	24,05
304,45	20,61
304,982	23,78
305,514	20,6
306,046	17,94
306,578	25,17
307,11	25,87
307,641	26,34
308,173	17,73
308,704	24,11
309,236	19,95
309,767	23,29
310,298	24,83
310,829	25,82
311,359	20,79
311,89	23,25
312,421	20,4
312,951	30,7
313,481	16,59
314,012	19,24
314,542	12,71
315,072	23,87
315,601	15,32
316,131	20,59
316,661	22,46
317,19	19,68
317,72	22,86
318,249	27,09
318,778	13,24
319,307	20,24
319,836	17,78
320,365	17,97
320,893	25,84
321,422	17,74
321,95	19,78
322,479	20,32
323,007	21,74
323,535	16,98
324,063	25,53
324,591	18,91
325,118	25,93
325,646	9,91
326,173	23,52
326,701	25,48
327,228	25,91
327,755	18,42
328,282	16,58
328,809	24,5
329,336	15,47
329,862	18,86
330,389	26,9
330,915	17,73
331,441	20,98
331,968	18,07
332,494	18,5
333,02	17,42
333,545	26,76
334,071	14,51
334,597	16,83
335,122	24,05
335,648	12,11
336,173	12,8
336,698	16,51
337,223	16,49
337,748	16,39
338,272	18,62
338,797	15,18
339,322	17,42
339,846	19,79
340,37	16,2
340,894	19,82
341,419	22,06
341,942	17,85
342,466	18,37
342,99	21,58
343,514	16,77
344,037	14,8
344,56	11,54
345,084	21,21
345,607	16,25
346,13	13,74
346,653	16,86
347,175	13,09
347,698	12,38
348,221	22,16
348,743	14,13
349,265	19,3
349,787	13,52
350,309	17,95
350,831	13,62
351,353	20,14
351,875	13,42
352,397	15,33
352,918	18,43
353,439	13,11
353,961	20
354,482	7,07
355,003	8,84
355,524	12,65
356,044	10,19
356,565	15,2
357,086	13,94
357,606	10,02
358,126	18,55
358,646	11,17
359,167	17,32
359,687	9,75
360,206	12,41
360,726	11,59
361,246	17,79
361,765	10,76
362,285	15,46
362,804	13,26
363,323	12,5
363,842	12,82
364,361	8,29
364,88	9,61
365,398	13,82
365,917	14,86
366,435	9,64
366,954	10,72
367,472	11,94
367,99	12,32
368,508	10,99
369,026	13,46
369,544	10
370,061	10,97
370,579	9,74
371,096	13,64
371,613	11,83
372,131	13,52
372,648	10,66
373,165	10,29
373,681	7,76
374,198	12,31
374,715	10,31
375,231	10,58
375,747	7,85
376,264	8,59
376,78	9,36
377,296	8,34
377,812	12,38
378,327	9,45
378,843	9,92
379,359	9,22
379,874	5,98
380,389	8,69
380,905	12,8
381,42	8,49
381,935	9,61
382,449	10,6
382,964	7,76
383,479	7,77
383,993	9,71
384,508	8,64
385,022	7,49
385,536	7,13
386,05	7,95
386,564	8
387,078	7,29
387,592	8,78
388,105	8,17
388,619	6,78
389,132	7,12
389,645	6,92
390,158	8,55
390,671	9,69
391,184	5,56
391,697	8,98
392,21	7,23
392,722	5,98
393,235	6,29
393,747	4,55
394,259	5,76
394,771	5,91
395,283	5,55
395,795	6,88
396,307	7,58
396,818	6,53
397,33	7,87
397,841	6,22
398,353	6,26
398,864	5,74
399,375	5,16
399,886	6,93
400,397	5,42
400,907	6,05
401,418	5,75
401,928	6,51
402,439	4,57
402,949	4,98
403,459	3,91
403,969	5,4
404,479	5,28
404,989	3,98
405,498	3,72
406,008	3,69
406,517	4,19
407,027	3,94
407,536	3,79
408,045	3,27
408,554	4,24
409,063	3,45
409,572	3,65
410,08	3,29
410,589	2,83
411,097	2,93
411,606	2,74
412,114	3,15
412,622	3,2
413,13	2,42
413,638	2,97
414,145	2,69
414,653	3,66
415,16	2,55
415,668	2,87
416,175	2,47
416,682	2,77
417,189	2,18
417,696	2,3
418,203	1,81
418,71	1,9
419,216	2,33
419,723	2,11
420,229	2,34
420,735	2,13
421,242	1,53
421,748	1,77
422,254	2,22
422,759	1,77
423,265	1,49
423,771	1,34
424,276	1,92
424,781	1,97
425,287	1,86
425,792	1,8
426,297	2,01
426,802	1,55
427,306	2,27
427,811	1,62
428,316	1,98
428,82	1,86
429,324	2,16
429,829	2,06
430,333	2
430,837	1,86
431,34	1,87
431,844	1,38
432,348	1,96
432,851	1,78
433,355	1,47
433,858	2,11
434,361	1,75
434,864	1,37
435,367	1,51
435,87	1,6
436,373	1,71
436,876	1,96
437,378	1,5
437,88	1,61
438,383	1,63
438,885	1,92
439,387	1,45
439,889	1,82
440,391	1,85
440,892	1,82
441,394	1,63
441,896	1,88
442,397	1,88
442,898	1,57
443,399	1,72
443,9	1,99
444,401	1,74
444,902	1,62
445,403	1,57
445,903	1,79
446,404	1,62
446,904	1,5
447,405	1,47
447,905	1,87
448,405	1,81
448,905	1,63
449,404	1,88
449,904	1,66
450,404	1,64
450,903	1,46
451,403	1,43
451,902	1,73
452,401	1,69
452,9	1,53
453,399	1,53
453,898	1,71
454,396	1,76
454,895	1,93
455,393	1,94
455,892	1,73
456,39	1,48
456,888	1,57
457,386	1,71
457,884	1,74
458,382	1,73
458,879	1,44
459,377	1,75
459,874	1,76
460,372	1,71
460,869	1,78
461,366	1,71
461,863	1,76
462,36	1,5
462,857	1,85
463,353	1,63
463,85	1,47
464,346	1,76
464,843	1,63
465,339	1,73
465,835	1,74
466,331	1,61
466,827	1,61
467,323	1,75
467,818	1,46
468,314	1,62
468,809	1,68
469,305	1,57
469,8	1,78
470,295	1,58
470,79	1,67
471,285	1,51
471,78	1,56
472,274	1,55
472,769	1,63
473,263	1,76
473,758	1,79
474,252	1,74
474,746	1,64
475,24	1,72
475,734	1,65
476,228	1,62
476,721	1,72
477,215	1,75
477,708	1,72
478,202	1,54
478,695	1,58
479,188	1,7
479,681	1,6
480,174	1,73
480,667	1,7
481,159	1,42
481,652	1,72
482,144	1,62
482,637	1,74
483,129	1,62
483,621	1,66
484,113	1,67
484,605	1,81
485,097	1,77
485,588	1,7
486,08	1,58
486,571	1,77
487,063	1,81
487,554	1,71
488,045	1,69
488,536	1,8
489,027	1,75
489,518	1,91
490,008	1,61
490,499	1,75
490,989	1,72
491,48	1,85
491,97	1,87
492,46	1,79
492,95	1,91
493,44	1,95
493,93	1,74
494,419	1,86
494,909	1,89
495,398	2,04
495,888	1,88
496,377	1,82
496,866	1,91
497,355	1,87
497,844	2,13
498,333	2,03
498,821	2,08
499,31	2,19
499,798	2,17
500,287	2,33
500,775	2,27
501,263	2,29
501,751	2,24
502,239	2,38
502,727	2,54
503,215	2,54
503,702	2,52
504,19	2,73
504,677	2,61
505,164	2,63
505,651	2,79
506,139	2,56
506,625	2,93
507,112	3,12
507,599	3,05
508,086	3,09
508,572	3,1
509,058	3,37
509,545	3,38
510,031	3,6
510,517	3,62
511,003	3,66
511,489	3,95
511,974	3,81
512,46	3,97
512,946	4,15
513,431	4,2
513,916	4,29
514,401	4,32
514,887	4,73
515,371	4,63
515,856	4,99
516,341	4,97
516,826	5,21
517,31	5,47
517,795	5,57
518,279	5,48
518,763	5,82
519,247	6
519,731	6,06
520,215	6,19
520,699	6,54
521,182	6,46
521,666	6,68
522,149	6,77
522,633	7,17
523,116	6,99
523,599	7,39
524,082	7,48
524,565	7,54
525,048	7,92
525,53	8,08
526,013	8,14
526,495	8,48
526,978	8,48
527,46	8,59
527,942	8,68
528,424	8,7
528,906	9,06
529,388	9,24
529,87	9
530,351	9,36
530,833	9,42
531,314	9,36
531,795	9,6
532,277	9,66
532,758	9,68
533,238	9,73
533,719	10,02
534,2	9,91
534,681	9,87
535,161	10,07
535,642	9,95
536,122	10,28
536,602	10,29
537,082	10,34
537,562	10,33
538,042	10,42
538,522	10,38
539,001	10,42
539,481	10,56
539,96	10,61
540,44	10,51
540,919	10,5
541,398	10,76
541,877	10,66
542,356	10,43
542,835	10,57
543,313	10,53
543,792	10,65
544,27	10,61
544,749	10,64
545,227	10,82
545,705	11,02
546,183	10,71
546,661	10,83
547,139	10,86
547,616	10,93
548,094	10,97
548,571	10,94
549,049	11,03
549,526	11,12
550,003	10,9
550,48	11,02
550,957	11,09
551,434	11,27
551,911	11,04
552,387	11,14
552,864	11,16
553,34	11,34
553,817	10,97
554,293	10,93
554,769	10,97
555,245	11,16
555,721	10,88
556,197	11,2
556,672	11,05
557,148	11,08
557,623	11,02
558,099	10,87
558,574	11,1
559,049	10,8
559,524	10,78
559,999	10,91
560,474	10,83
560,948	10,59
561,423	10,68
561,897	10,72
562,372	10,81
562,846	10,5
563,32	10,38
563,794	10,46
564,268	10,42
564,742	10,13
565,216	10,25
565,69	10,16
566,163	9,97
566,636	9,85
567,11	10,03
567,583	9,96
568,056	9,65
568,529	9,84
569,002	9,72
569,475	9,52
569,947	9,44
570,42	9,16
570,892	9,22
571,365	9,03
571,837	8,91
572,309	8,79
572,781	8,67
573,253	8,57
573,725	8,46
574,197	8,44
574,668	8,41
575,14	8,23
575,611	8,15
576,082	8,3
576,554	8,06
577,025	8,13
577,496	7,86
577,967	7,82
578,437	7,89
578,908	7,62
579,379	7,73
579,849	7,55
580,319	7,43
580,79	7,49
581,26	7,23
581,73	7,3
582,2	7,33
582,669	7,11
583,139	7,22
583,609	6,99
584,078	7,09
584,548	7
585,017	6,99
585,486	6,74
585,955	6,88
586,424	6,82
586,893	6,66
587,362	6,51
587,83	6,6
588,299	6,53
588,767	6,49
589,236	6,61
589,704	6,53
590,172	6,53
590,64	6,41
591,108	6,42
591,576	6,41
592,043	6,29
592,511	6,26
592,978	6,45
593,446	6,21
593,913	6,27
594,38	6,29
594,847	6,22
595,314	6,2
595,781	6,13
596,248	6,14
596,715	6,17
597,181	6,2
597,647	6,19
598,114	6,18
598,58	5,97
599,046	5,91
599,512	6,08
599,978	5,86
600,444	6,02
600,91	5,79
601,375	6,04
601,841	5,94
602,306	5,9
602,771	5,71
603,236	5,76
603,702	5,81
604,167	5,82
604,631	5,66
605,096	5,74
605,561	5,73
606,025	5,63
606,49	5,54
606,954	5,58
607,418	5,57
607,882	5,47
608,347	5,4
608,81	5,28
609,274	5,39
609,738	5,29
610,202	5,37
610,665	5,24
611,128	5,13
611,592	5,21
612,055	4,9
612,518	5,16
612,981	5,01
613,444	4,95
613,907	4,76
614,369	4,81
614,832	4,79
615,294	4,75
615,757	4,72
616,219	4,64
616,681	4,64
617,143	4,59
617,605	4,55
618,067	4,47
618,529	4,39
618,99	4,51
619,452	4,33
619,913	4,31
620,375	4,4
620,836	4,3
621,297	4,33
621,758	4,24
622,219	4,36
622,68	4,22
623,14	4,23
623,601	4,16
624,061	4,18
624,522	4,11
624,982	4,16
625,442	4,14
625,902	4,11
626,362	4,07
626,822	4,15
627,282	4,17
627,742	3,93
628,201	4,13
628,661	4,19
629,12	3,99
629,579	4,09
630,038	4,07
630,497	4,04
630,956	4,01
631,415	4,05
631,874	3,98
632,332	3,99
632,791	3,99
633,249	4,08
633,708	3,95
634,166	3,92
634,624	3,87
635,082	3,88
635,54	3,8
635,998	3,79
636,455	3,81
636,913	3,67
637,37	3,81
637,828	3,71
638,285	3,72
638,742	3,59
639,199	3,54
639,656	3,58
640,113	3,52
640,57	3,49
641,027	3,43
641,483	3,35
641,94	3,28
642,396	3,26
642,852	3,31
643,309	3,09
643,765	3,12
644,221	3,12
644,676	3,03
645,132	2,96
645,588	2,93
646,043	2,85
646,499	2,88
646,954	2,75
647,409	2,77
647,864	2,69
648,319	2,7
648,774	2,69
649,229	2,61
649,684	2,57
650,139	2,63
650,593	2,58
651,047	2,61
651,502	2,56
651,956	2,52
652,41	2,43
652,864	2,4
653,318	2,41
653,772	2,42
654,225	2,35
654,679	2,37
655,133	2,44
655,586	2,35
656,039	2,31
656,492	2,31
656,946	2,27
657,399	2,27
657,851	2,19
658,304	2,2
658,757	2,17
659,209	2,17
659,662	2,16
660,114	2,13
660,567	2,13
661,019	2,11
661,471	1,95
661,923	2,04
662,375	2,02
662,826	2,04
663,278	1,98
663,73	1,89
664,181	1,95
664,632	1,98
665,084	1,95
665,535	1,88
665,986	1,93
666,437	1,94
666,888	1,93
667,338	1,97
667,789	1,96
668,24	2
668,69	2,02
669,14	2,02
669,591	2,09
670,041	2,02
670,491	2,03
670,941	2,1
671,391	2,11
671,84	2,22
672,29	2,22
672,74	2,22
673,189	2,27
673,638	2,31
674,088	2,38
674,537	2,4
674,986	2,51
675,435	2,53
675,883	2,52
676,332	2,62
676,781	2,67
677,229	2,73
677,678	2,78
678,126	2,85
678,574	2,87
679,022	3,04
679,47	3,04
679,918	3,06
680,366	3,23
680,814	3,23
681,261	3,33
681,709	3,37
682,156	3,4
682,604	3,47
683,051	3,56
683,498	3,59
683,945	3,78
684,392	3,66
684,839	3,84
685,286	3,82
685,732	3,85
686,179	3,87
686,625	3,9
687,071	3,99
687,518	4,03
687,964	4,04
688,41	4,25
688,856	4,24
689,301	4,3
689,747	4,42
690,193	4,64
690,638	4,61
691,084	4,69
691,529	4,96
691,974	5,07
692,419	5,31
692,864	5,5
693,309	5,72
693,754	5,85
694,199	6,18
694,643	6,31
695,088	6,67
695,532	6,95
695,977	7,24
696,421	7,44
696,865	7,66
697,309	8,1
697,753	8,39
698,197	8,62
698,64	8,86
699,084	9,26
699,527	9,56
699,971	9,8
700,414	10,18
700,857	10,33
701,3	10,6
701,743	11,04
702,186	11,3
702,629	11,54
703,072	11,92
703,515	12,09
703,957	12,32
704,399	12,59
704,842	12,96
705,284	13
705,726	13,49
706,168	13,51
706,61	14,05
707,052	14,24
707,494	14,66
707,935	14,84
708,377	14,74
708,818	15,28
709,26	15,41
709,701	15,67
710,142	15,85
710,583	15,97
711,024	16,3
711,465	16,56
711,905	16,68
712,346	17,15
712,787	17,15
713,227	17,6
713,667	17,58
714,108	17,91
714,548	18,2
714,988	18,37
715,428	18,52
715,868	18,74
716,307	18,93
716,747	19,14
717,186	19,11
717,626	19,29
718,065	19,64
718,504	19,79
718,944	19,94
719,383	20,17
719,822	20,3
720,261	20,5
720,699	20,59
721,138	20,77
721,576	20,97
722,015	21,17
722,453	21,38
722,892	21,42
723,33	21,47
723,768	21,76
724,206	21,88
724,644	21,71
725,081	21,89
725,519	22,07
725,957	22,31
726,394	22,41
726,832	22,44
727,269	22,57
727,706	22,71
728,143	22,69
728,58	23,16
729,017	22,91
729,454	23,17
729,89	22,98
730,327	23,23
730,764	23,2
731,2	23,56
731,636	23,47
732,072	23,6
732,509	23,68
732,945	23,61
733,38	23,81
733,816	23,94
734,252	23,89
734,688	23,71
735,123	23,9
735,559	23,86
735,994	24,05
736,429	24,24
736,864	24,24
737,299	24,02
737,734	24,11
738,169	24,2
738,604	24,33
739,038	24,28
739,473	24,34
739,907	24,3
740,342	24,43
740,776	24,28
741,21	24,06
741,644	24,16
742,078	24,37
742,512	24,43
742,946	24,2
743,379	24,1
743,813	24,26
744,246	24,16
744,68	24,42
745,113	24,32
745,546	24,28
745,979	24,29
746,412	24,43
746,845	24,29
747,278	24,24
747,711	24,24
748,143	24,39
748,576	24,28
749,008	24,45
749,441	24,46
749,873	24,18
750,305	24,45
750,737	24,27
751,169	24,22
751,601	24,2
752,032	24,3
752,464	24,33
752,896	24,03
753,327	24,04
753,758	24,07
754,19	24,18
754,621	24,16
755,052	24,04
755,483	23,99
755,914	23,92
756,344	24,21
756,775	24,02
757,206	23,78
757,636	23,98
758,066	24,19
758,497	23,99
758,927	23,98
759,357	23,94
759,787	23,86
760,217	23,94
760,647	24,01
761,076	23,74
761,506	23,73
761,935	23,71
762,365	23,75
762,794	23,86
763,223	23,58
763,653	23,72
764,082	23,67
764,51	23,74
764,939	23,59
765,368	23,4
765,797	23,51
766,225	23,74
766,654	23,63
767,082	23,58
767,51	23,67
767,938	23,41
768,367	23,7
768,795	23,75
769,222	23,6
769,65	23,68
770,078	23,65
770,505	23,51
770,933	23,55
771,36	23,34
771,788	23,54
772,215	23,46
772,642	23,35
773,069	23,24
773,496	23,53
773,923	23,27
774,349	23,45
774,776	23,37
775,203	23,37
775,629	23,25
776,055	23,4
776,482	23,39
776,908	23,29
777,334	23,37
777,76	23,39
778,186	23,26
778,611	23,12
779,037	23,43
779,463	23,36
779,888	23,09
780,314	23,34
780,739	23,3
781,164	23,29
781,589	23,14
782,014	23,07
782,439	23,18
782,864	23,31
783,289	23,04
783,713	23,13
784,138	23,25
784,562	23,16
784,987	23,29
785,411	23,22
785,835	23,29
786,259	23,12
786,683	23,15
787,107	23,06
787,531	23,39
787,954	23,32
788,378	23,11
788,802	22,98
789,225	23,14
789,648	23,14
790,071	23,18
790,495	23,03
790,918	23,12
791,34	23,18
791,763	22,96
792,186	23,07
792,609	23,08
793,031	23,09
793,454	22,98
793,876	23,05
794,298	22,95
794,721	23,03
795,143	22,84
795,565	23,18
795,986	22,99
796,408	22,99
796,83	23,07
797,252	23,13
797,673	22,89
798,094	23,29
798,516	22,87
798,937	22,94
799,358	22,88
799,779	23,1
800,2	23,14
800,621	23,05
801,042	22,95
801,462	23,08
801,883	23,02
802,303	23,07
802,724	23,06
803,144	23,08
803,564	22,99
803,984	23,15
804,404	23,07
804,824	22,97
805,244	22,96
805,664	22,93
806,084	23
806,503	23,12
806,923	23,08
807,342	23,11
807,761	22,86
808,18	22,89
808,599	22,9
809,018	22,96
809,437	22,89
809,856	22,88
810,275	23,01
810,693	22,92
811,112	22,92
811,53	22,88
811,949	22,81
812,367	22,74
812,785	22,79
813,203	22,91
813,621	23,02
814,039	22,69
814,457	22,98
814,874	22,94
815,292	22,9
815,709	22,73
816,127	22,89
816,544	22,93
816,961	22,86
817,378	22,86
817,795	22,96
818,212	22,89
818,629	22,85
819,046	22,87
819,462	22,75
819,879	22,65
820,295	22,66
820,712	22,71
821,128	22,86
821,544	22,82
821,96	22,96
822,376	22,86
822,792	22,96
823,208	22,79
823,624	22,77
824,039	22,63
824,455	22,84
824,87	22,78
825,286	22,9
825,701	23,01
826,116	22,93
826,531	22,94
826,946	22,76
827,361	22,93
827,776	22,83
828,19	22,73
828,605	22,99
829,02	22,71
829,434	22,68
829,848	22,79
830,263	22,67
830,677	22,85
831,091	22,98
831,505	22,65
831,919	22,87
832,332	22,59
832,746	22,67
833,16	22,7
833,573	22,84
833,987	22,7
834,4	22,79
834,813	22,81
835,226	22,62
835,639	22,68
836,052	22,76
836,465	22,64
836,878	22,68
837,29	22,76
837,703	22,66
838,116	23,03
838,528	22,74
838,94	22,74
839,352	22,55
839,765	22,5
840,177	22,85
840,589	22,82
841	22,9
841,412	22,64
841,824	22,61
842,235	22,62
842,647	22,57
843,058	22,72
843,47	22,55
843,881	22,77
844,292	22,66
844,703	22,59
845,114	22,84
845,525	22,46
845,935	22,55
846,346	22,78
846,757	22,6
847,167	22,61
847,577	22,59
847,988	22,76
848,398	22,6
848,808	22,68
849,218	22,95
849,628	22,87
850,038	22,67
850,448	22,73
850,857	22,7
851,267	22,61
851,676	22,81
852,086	22,55
852,495	22,75
852,904	22,67
853,313	22,78
853,722	22,71
854,131	22,68
854,54	22,77
854,949	22,52
855,357	22,74
855,766	22,65
856,174	22,63
856,583	22,66
856,991	22,79
857,399	22,59
857,807	22,72
858,215	22,48
858,623	22,5
859,031	22,67
859,439	22,78
859,846	22,53
860,254	22,73
860,661	22,54
861,069	22,83
861,476	22,9
861,883	22,39
862,29	22,58
862,697	22,61
863,104	22,57
863,511	22,59
863,918	22,54
864,325	22,68
864,731	22,56
865,138	22,73
865,544	22,75
865,95	22,42
866,357	22,65
866,763	22,67
867,169	22,59
867,575	22,45
867,98	22,4
868,386	22,69
868,792	22,67
869,197	22,38
869,603	22,59
870,008	22,5
870,414	22,41
870,819	22,24
871,224	22,6
871,629	22,51
872,034	22,5
872,439	22,44
872,844	22,56
873,248	22,44
873,653	22,53
874,057	22,57
874,462	22,37
874,866	22,44
875,27	22,75
875,674	22,49
876,078	22,68
876,482	22,6
876,886	22,38
877,29	22,6
877,694	22,29
878,097	22,54
878,501	22,69
878,904	22,21
879,308	22,36
879,711	22,51
880,114	22,62
880,517	22,47
880,92	22,62
881,323	22,77
881,726	22,38
882,128	22,61
882,531	22,22
882,934	22,45
883,336	22,47
883,738	22,65
884,141	22,5
884,543	22,49
884,945	22,22
885,347	22,33
885,749	22,47
886,151	22,41
886,552	22,67
886,954	22,63
887,355	22,4
887,757	22,53
888,158	22,45
888,56	22,28
888,961	22,52
889,362	22,52
889,763	22,25
890,164	22,66
890,565	22,26
890,965	22,49
891,366	22,35
891,767	22,38
892,167	22,46
892,567	22,45
892,968	22,36
893,368	22,47
893,768	22,53
894,168	22,22
894,568	22,47
894,968	22,17
895,368	22,44
895,767	22,34
896,167	22,34
896,566	22,39
896,966	22,49
897,365	22,43
897,764	22,46
898,164	22,47
898,563	22,45
898,962	22,23
899,361	22,21
899,759	22,39
900,158	22,22
900,557	22,3
900,955	22,4
901,354	22,31
901,752	22,4
902,15	22,33
902,548	22,28
902,947	22,34
903,345	22,09
903,742	22,46
904,14	22,56
904,538	22,4
904,936	22,09
905,333	22,39
905,731	22,27
906,128	22,14
906,525	22,29
906,923	22,16
907,32	22,51
907,717	22,16
908,114	22,31
908,511	22,63
908,907	22,4
909,304	22,36
909,701	22,31
910,097	22,74
910,494	22,63
910,89	22,32
911,286	22,5
911,682	22,27
912,078	22,59
912,474	22,39
912,87	22,27
913,266	22,26
913,662	22,28
914,058	22,34
914,453	22,54
914,849	22,36
915,244	22,1
915,639	22,06
916,034	22,32
916,43	22,32
916,825	22,08
917,22	22,37
917,614	22,26
918,009	22,31
918,404	22,38
918,798	22,21
919,193	22,59
919,587	22,36
919,982	22,45
920,376	22,2
920,77	22,42
921,164	22,3
921,558	22,28
921,952	22,28
922,346	22,43
922,74	22,2
923,133	22,26
923,527	22,21
923,92	22,28
924,314	22,17
924,707	22,13
925,1	22,29
925,493	22,21
925,886	22,31
926,279	21,94
926,672	22,39
927,065	22,12
927,457	22,19
927,85	22,15
928,243	22,05
928,635	22,03
929,027	22,37
929,42	22,13
929,812	22,2
930,204	22,25
930,596	22,52
930,988	22,36
931,379	22,16
931,771	22,19
932,163	22,18
932,554	22,34
932,946	21,89
933,337	22,29
933,729	22,09
934,12	22,1
934,511	22,18
934,902	22,26
935,293	22,05
935,684	22,44
936,075	22,04
936,465	22,13
936,856	22,02
937,246	21,93
937,637	21,76
938,027	21,86
938,417	22,08
938,808	22,46
939,198	22,19
939,588	21,97
939,978	21,8
940,368	22,09
940,757	22,46
941,147	22,24
941,537	22,17
941,926	21,92
942,315	21,98
942,705	22,82
943,094	21,66
943,483	21,87
943,872	22,55
944,261	22,03
944,65	22,32
945,039	21,59
945,428	21,43
945,816	22,26
946,205	21,48
946,593	22,13
946,982	21,59
947,37	21,9
947,758	22,13
948,146	21,96
948,534	22,19
948,922	22,4
949,31	21,97
949,698	22,13
950,086	22,03
950,473	21,95
950,861	21,31
951,248	21,48
951,636	21,88
952,023	21,65
952,41	21,79
952,797	21,1
953,184	22,32
953,571	21,95
953,958	21,82
954,345	21,72
954,731	21,88
955,118	21,97
955,505	21,48
955,891	21,35
956,277	21,63
956,664	22,16
957,05	21,56
957,436	21,38
957,822	21,5
958,208	21,63
958,594	21,71
958,979	21,78
959,365	21,43
959,751	21,6
960,136	21,06
960,522	21,38
960,907	21,66
961,292	21,38
961,677	21,59
962,062	21,61
962,447	21,61
962,832	21,75
963,217	21,63
963,602	21,42
963,986	21,33
964,371	21,71
964,756	21,53
965,14	21,1
965,524	21,46
965,908	21,4
966,293	21,55
966,677	21,26
967,061	21,52
967,445	21,53
967,828	21,61
968,212	21,31
968,596	21,59
968,979	21,74
969,363	21,42
969,746	21,61
970,129	21,5
970,513	21,55
970,896	21,48
971,279	21,48
971,662	21,34
972,045	21,57
972,428	21,6
972,81	21,66
973,193	21,31
973,575	21,15
973,958	21,67
974,34	21,75
974,723	21,44
975,105	21,32
975,487	21,79
975,869	21,56
976,251	21,51
976,633	21,47
977,015	21,95
977,396	21,46
977,778	21,64
978,16	21,52
978,541	21,25
978,922	21,68
979,304	21,56
979,685	21,54
980,066	21,13
980,447	21,25
980,828	21,79
981,209	21,72
981,59	21,71
981,97	21,36
982,351	21,33
982,732	21,42
983,112	21,64
983,493	21,33
983,873	21,6
984,253	21,42
984,633	21,32
985,013	21,61
985,393	21,38
985,773	21,48
986,153	21,6
986,533	21,28
986,912	21,23
987,292	21,58
987,671	21,52
988,051	21,73
988,43	21,23
988,809	21,43
989,188	21,33
989,567	21,44
989,946	21,65
990,325	21,88
990,704	21,44
991,083	21,48
991,461	21,84
991,84	21,92
992,218	21,42
992,597	21,7
992,975	21,66
993,353	21,23
993,732	21,42
994,11	21,49
994,488	21,7
994,866	21,27
995,243	21,42
995,621	21,24
995,999	21,33
996,376	21,82
996,754	21,43
997,131	21,42
997,509	21,39
997,886	21,93
998,263	21,62
998,64	21,82
999,017	21,53
999,394	21,43
999,771	21,8
1000,148	21,73
1000,524	21,51
1000,901	21,18
1001,277	21,56
1001,654	21,69
1002,03	21,56
1002,406	21,5
1002,783	21,73
1003,159	21,68
1003,535	21,38
1003,911	21,28
1004,286	21,58
1004,662	21,73
1005,038	21,58
1005,414	21,89
1005,789	21,59
1006,164	21,37
1006,54	21,4
1006,915	21,79
1007,29	21,23
1007,665	21,51
1008,04	21,62
1008,415	21,62
1008,79	21,78
1009,165	21,36
1009,54	21,77
1009,914	21,8
1010,289	21,53
1010,663	21,92
1011,038	21,21
1011,412	21,76
1011,786	21,78
1012,16	21,59
1012,535	21,69
1012,909	21,52
1013,282	21,18
1013,656	21,64
1014,03	22,05
1014,404	21,7
1014,777	21,84
1015,151	21,99
1015,524	21,98
1015,897	21,54
1016,271	21,83
1016,644	21,69
1017,017	22,04
1017,39	21,56
1017,763	21,34
1018,136	21,5
1018,508	21,39
1018,881	22,16
1019,254	21,22
1019,626	21,82
1019,999	21,42
1020,371	21,77
1020,743	22,25
1021,116	21,82
1021,488	21,9
1021,86	21,69
1022,232	22,09
1022,604	21,84
1022,975	21,82
1023,347	22,03
1023,719	21,51
1024,09	21,74
1024,462	21,54
1024,833	21,63
1025,204	21,32
1025,576	22,12
1025,947	21,79
1026,318	21,65
1026,689	21,95
1027,06	21,67
1027,431	22,04
1027,801	21,22
1028,172	22,11
1028,543	21,98
1028,913	21,42
1029,284	21,72
1029,654	21,83
1030,024	22,28
1030,394	21,65
1030,764	21,94
1031,135	21,61
1031,504	21,42
1031,874	21,63
1032,244	22,26
1032,614	21,55
1032,983	21,98
1033,353	21,61
1033,722	21,6
1034,092	21,34
1034,461	22,28
1034,83	21,66
1035,2	22,37
1035,569	22,5
1035,938	21,85
1036,307	21,66
1036,675	22
1037,044	21,7
1037,413	22,17
1037,781	21,98
1038,15	22,03
1038,518	21,83
1038,887	21,98
1039,255	21,69
1039,623	22,17
1039,991	21,91
1040,359	21,78
1040,727	21,82
1041,095	21,51
1041,463	22,03
1041,831	21,95
1042,198	21,42
1042,566	22,28
1042,933	21,41
1043,301	21,89
1043,668	21,58
1044,035	21,83
1044,402	22,03
1044,77	21,44
1045,137	21,79
1045,503	21,81
1045,87	21,94
1046,237	22,37
1046,604	20,97
1046,97	21,73
1047,337	21,89
1047,703	21,64
1048,07	21,71
1048,436	21,83
1048,802	21,27
1049,168	21,17
1049,534	21,88
1049,9	22,23
1050,266	22
1050,632	21,41
1050,998	21,21
1051,364	22
1051,729	21,51
1052,095	22,64
1052,46	21,14
1052,825	21,72
1053,191	21,36
1053,556	22,25
1053,921	21,55
1054,286	21,48
1054,651	22,37
1055,016	22,05
1055,381	21,96
1055,745	21,76
1056,11	21,62
1056,475	22,23
1056,839	21,91
1057,203	21,83
1057,568	21,9
1057,932	21,54
1058,296	22,04
1058,66	22,35
1059,024	21,74
1059,388	22,29
1059,752	22,9
1060,116	22,37
1060,48	21,19
1060,843	21,93
1061,207	20,9
1061,57	22,14
1061,934	21,79
1062,297	22,08
1062,66	21,88
1063,023	21,73
1063,386	21,81
1063,749	21,27
1064,112	21,44
1064,475	21,91
1064,838	22,63
1065,201	21,86
1065,563	21,52
1065,926	22,14
1066,288	22,08
1066,651	21,59
1067,013	22,03
1067,375	21,54
1067,737	21,11
1068,099	22,24
1068,461	21,79
1068,823	21,97
1069,185	21,77
1069,547	22,07
1069,909	21,2
1070,27	21,79
1070,632	21,6
1070,993	20,57
1071,355	21,47
1071,716	22,31
1072,077	22,04
1072,438	21,15
1072,799	21,63
1073,16	21,45
1073,521	21,72
1073,882	21,48
1074,243	21,86
1074,603	22,61
1074,964	20,9
1075,325	21,52
1075,685	21,97
1076,045	21,28
1076,406	21,63
1076,766	21,95
1077,126	22,65
1077,486	21,29
1077,846	21,56
1078,206	21,99
1078,566	22,71
1078,925	22,19
1079,285	21,54
1079,645	21,96
1080,004	22,6
1080,364	21,45
1080,723	22,48
1081,082	21,01
1081,442	21,01
1081,801	21,26
1082,16	22,69
1082,519	21,29
1082,878	22,33
1083,237	21,53
1083,595	21,01
1083,954	22,29
1084,313	22,07
1084,671	22,18
1085,03	22,67
1085,388	21,76
1085,746	22,97
1086,104	20,8
1086,463	21,91
1086,821	22,02
1087,179	21,76
1087,537	21,71
1087,894	21,57
1088,252	22,43
1088,61	21,57
1088,967	21,66
1089,325	21,06
1089,682	22,09
1090,04	21,5
1090,397	21,43
1090,754	21,66
1091,111	21,53
1091,469	22,36
1091,826	22,78
1092,182	22,82
1092,539	21,8
1092,896	20,83
1093,253	21,17
1093,609	21,94
1093,966	21,27
1094,322	21,57
1094,679	21,93
1095,035	21,58
1095,391	22,29
1095,748	21,55
1096,104	22,55
1096,46	21,36
1096,816	21,77
1097,171	23,3
1097,527	23,88
1097,883	21,12
1098,239	21,42
1098,594	23,72
1098,95	21,94
1099,305	21,93
1099,66	23,43
1100,016	21,63
1100,371	20,87
1100,726	21,74
1101,081	22,41
1101,436	20,72
1101,791	20,33
1102,146	22,51
1102,5	22,28
1102,855	20,63
1103,21	22,76
1103,564	21,61
1103,918	21,57
1104,273	22,6
1104,627	19,84
1104,981	22,58
1105,335	22,98
1105,69	21,27
1106,043	22,11
1106,397	21,9
1106,751	21,1
1107,105	23,16
1107,459	22,28
1107,812	22,39
1108,166	21,23
1108,519	22,03
1108,873	20,54
1109,226	22,13
1109,579	19,55
1109,932	21,96
1110,285	20,3
1110,638	21,41
1110,991	20,95
1111,344	22,04
1111,697	21,21
1112,05	22,08
1112,402	19,69
1112,755	22,96
1113,107	21,35
1113,46	23,58
1113,812	22
1114,164	24,43
1114,517	23,37
1114,869	34,83
1115,221	17,19
1115,573	26,29
1115,924	21,6
