Data from L_5_0_Relative__3__00193.txt Node

Date: Mon Jan 29 13:10:05 CET 2024
User: diatiterra
Spectrometer: HDX00911
Trigger mode: 0
Integration Time (sec): 6,000000E-3
Scans to average: 2
Nonlinearity correction enabled: false
Boxcar width: 0
Storing dark spectrum: false
XAxis mode: Wavelengths
Number of Pixels in Spectrum: 2068
>>>>>Begin Spectral Data<<<<<
194,468	31,71
195,025	31,16
195,581	27,33
196,138	32,16
196,694	32,01
197,251	29,18
197,807	30,88
198,363	27
198,919	29,34
199,474	36,44
200,03	30,68
200,586	31,19
201,141	21,37
201,696	34,84
202,251	26,07
202,806	31,62
203,361	32,07
203,916	25,37
204,471	29,25
205,025	27,74
205,58	23,04
206,134	27,72
206,688	20,17
207,242	24,84
207,796	24,49
208,35	39,64
208,904	32,24
209,457	27,74
210,011	19,24
210,564	29,73
211,117	29,21
211,67	28,77
212,223	35,97
212,776	27,22
213,329	33,94
213,881	28,75
214,434	24,47
214,986	27,66
215,538	26,33
216,09	27,54
216,642	31,69
217,194	28,33
217,746	30,3
218,297	29,61
218,849	30,04
219,4	34,24
219,951	29,33
220,502	26,12
221,053	28,36
221,604	24,79
222,155	25,29
222,705	28,6
223,256	31,45
223,806	26,62
224,356	30,98
224,906	28,09
225,456	32,21
226,006	27,05
226,556	30,9
227,106	33,93
227,655	30,92
228,204	30,31
228,754	30,18
229,303	30,99
229,852	31,53
230,401	31,98
230,949	28,79
231,498	36,22
232,047	29,34
232,595	30,33
233,143	32,16
233,691	32,79
234,239	29,46
234,787	25,23
235,335	30,75
235,883	25,58
236,43	25,62
236,978	27,08
237,525	19,42
238,072	33,55
238,619	34,11
239,166	29,8
239,713	32,92
240,26	31,33
240,806	32,25
241,353	23,22
241,899	26,43
242,445	26,6
242,991	20,17
243,537	30,21
244,083	31,12
244,629	31,14
245,174	21,4
245,72	28
246,265	30,07
246,81	24,15
247,355	37,65
247,9	31,95
248,445	25,8
248,99	29,16
249,534	32,2
250,079	28,89
250,623	31,88
251,168	27,96
251,712	24,95
252,256	27,31
252,8	27,02
253,343	26,78
253,887	30,21
254,43	25,97
254,974	13,41
255,517	24,31
256,06	22,3
256,603	25,91
257,146	26,91
257,689	21,43
258,232	20,86
258,774	22,03
259,317	33,41
259,859	20,5
260,401	32,9
260,943	21,56
261,485	24,89
262,027	28,88
262,569	25,5
263,11	36,11
263,652	24,47
264,193	25,6
264,734	18,35
265,275	20,89
265,816	23,96
266,357	33,11
266,898	26,26
267,438	30,28
267,979	27,43
268,519	32,17
269,059	25,23
269,6	35,89
270,14	32,88
270,68	28,81
271,219	27
271,759	28,99
272,298	27,17
272,838	31,19
273,377	35,6
273,916	23,94
274,455	30,51
274,994	28,19
275,533	31,41
276,072	32,83
276,61	24,23
277,149	22,82
277,687	28,83
278,225	19,23
278,763	25,79
279,301	22
279,839	28,17
280,377	29,15
280,914	27,84
281,452	22,71
281,989	30,33
282,526	15,67
283,064	21,57
283,601	26,91
284,137	27,14
284,674	20,63
285,211	27,02
285,747	28,64
286,284	25,8
286,82	32,57
287,356	22,74
287,892	30,39
288,428	28,33
288,964	32
289,5	31,91
290,035	28,7
290,571	30,49
291,106	26,49
291,641	35,91
292,176	25,43
292,711	30,04
293,246	28,44
293,781	27,09
294,315	25,19
294,85	25,44
295,384	35,51
295,918	28
296,453	20,75
296,987	25,36
297,52	29,17
298,054	28,86
298,588	26,3
299,121	25,28
299,655	21,04
300,188	29,61
300,721	35,58
301,254	23,97
301,787	27,85
302,32	23,5
302,853	29,74
303,385	30,4
303,918	29,4
304,45	19,74
304,982	33,11
305,514	24,31
306,046	29,32
306,578	33,41
307,11	31,47
307,641	35,71
308,173	38,64
308,704	25,45
309,236	34,06
309,767	27,53
310,298	32,37
310,829	29,11
311,359	38,08
311,89	27,31
312,421	21,75
312,951	36,74
313,481	24,88
314,012	24,16
314,542	24,47
315,072	24,37
315,601	34,68
316,131	24,26
316,661	26,81
317,19	27,83
317,72	23,81
318,249	26,64
318,778	24,51
319,307	29,18
319,836	21,48
320,365	21,66
320,893	31,52
321,422	30,65
321,95	28,67
322,479	27,54
323,007	23,19
323,535	30,93
324,063	30,26
324,591	26,48
325,118	21,54
325,646	27,83
326,173	27,63
326,701	29,76
327,228	20,91
327,755	28,47
328,282	22,46
328,809	35,1
329,336	24,25
329,862	29,32
330,389	25,98
330,915	19,55
331,441	26,57
331,968	25,3
332,494	27
333,02	28,17
333,545	23,14
334,071	21,65
334,597	24,04
335,122	32,52
335,648	23,97
336,173	27,98
336,698	28,44
337,223	20,39
337,748	29,41
338,272	22,8
338,797	29,07
339,322	22,85
339,846	22,34
340,37	28,86
340,894	26,5
341,419	27,52
341,942	23,12
342,466	27,14
342,99	26,14
343,514	31,03
344,037	19,6
344,56	22,87
345,084	22,73
345,607	21,3
346,13	13,36
346,653	22,54
347,175	20,77
347,698	21,02
348,221	22,91
348,743	26,77
349,265	26,96
349,787	20,28
350,309	20,68
350,831	21,21
351,353	28,06
351,875	22,48
352,397	17
352,918	19,11
353,439	18,71
353,961	21,68
354,482	17,17
355,003	22,26
355,524	16,92
356,044	24,52
356,565	22,49
357,086	16,34
357,606	26,49
358,126	23,29
358,646	20,03
359,167	22,51
359,687	17,61
360,206	16,54
360,726	20,58
361,246	21,62
361,765	16,5
362,285	21,94
362,804	22,19
363,323	20,65
363,842	17,89
364,361	21,12
364,88	15,92
365,398	21,97
365,917	17,99
366,435	16,84
366,954	20,95
367,472	17,59
367,99	16,47
368,508	16,03
369,026	19,34
369,544	17,56
370,061	15,17
370,579	21,06
371,096	21,97
371,613	21,16
372,131	15,8
372,648	17,12
373,165	17,15
373,681	16,19
374,198	14,95
374,715	11,8
375,231	18,32
375,747	16,29
376,264	19,21
376,78	15,2
377,296	15,36
377,812	17,79
378,327	14,64
378,843	17,3
379,359	19,35
379,874	15,68
380,389	15,06
380,905	17,13
381,42	16,31
381,935	13,65
382,449	15,73
382,964	13,35
383,479	14,3
383,993	15,88
384,508	14,01
385,022	14,4
385,536	8,84
386,05	12,74
386,564	13,69
387,078	13,25
387,592	12,31
388,105	15,22
388,619	12,58
389,132	10,89
389,645	13,17
390,158	12,52
390,671	13,1
391,184	11,95
391,697	12,23
392,21	12,23
392,722	11,51
393,235	8,29
393,747	8,78
394,259	10,91
394,771	11,36
395,283	9,05
395,795	11,12
396,307	10,16
396,818	13,49
397,33	11,06
397,841	9,14
398,353	11,14
398,864	10,71
399,375	8,69
399,886	9,21
400,397	9,04
400,907	9,59
401,418	8,51
401,928	8,38
402,439	7,68
402,949	8,88
403,459	7,86
403,969	8,38
404,479	7,02
404,989	6,24
405,498	6,91
406,008	7,36
406,517	6,98
407,027	6,03
407,536	6,25
408,045	5,92
408,554	7,02
409,063	5,2
409,572	5,53
410,08	5,81
410,589	5,35
411,097	5,99
411,606	4,84
412,114	4,55
412,622	5,01
413,13	4,21
413,638	4,48
414,145	5,1
414,653	4,49
415,16	4,33
415,668	4,34
416,175	4,14
416,682	4,01
417,189	3,58
417,696	4,01
418,203	3,78
418,71	3,17
419,216	3,11
419,723	3,89
420,229	3,97
420,735	3,41
421,242	3,4
421,748	3,2
422,254	3,23
422,759	3,21
423,265	3,05
423,771	3,18
424,276	3,67
424,781	3,59
425,287	3,14
425,792	2,86
426,297	2,95
426,802	3,17
427,306	3,11
427,811	3,26
428,316	2,88
428,82	3,1
429,324	2,76
429,829	2,93
430,333	3,25
430,837	3,24
431,34	2,86
431,844	2,92
432,348	2,55
432,851	2,55
433,355	2,93
433,858	3,07
434,361	2,79
434,864	2,88
435,367	2,53
435,87	2,36
436,373	2,74
436,876	3,03
437,378	2,55
437,88	2,69
438,383	2,92
438,885	3,22
439,387	2,6
439,889	2,94
440,391	2,85
440,892	2,63
441,394	3,03
441,896	2,46
442,397	2,79
442,898	2,67
443,399	3,1
443,9	2,91
444,401	2,68
444,902	2,77
445,403	2,82
445,903	2,51
446,404	2,6
446,904	2,87
447,405	2,62
447,905	2,55
448,405	2,83
448,905	2,69
449,404	2,7
449,904	2,75
450,404	2,85
450,903	2,48
451,403	2,58
451,902	3,17
452,401	2,98
452,9	2,88
453,399	3,11
453,898	3,05
454,396	2,95
454,895	2,94
455,393	3,14
455,892	3,24
456,39	2,85
456,888	3,23
457,386	3,01
457,884	2,92
458,382	2,97
458,879	2,76
459,377	3
459,874	2,76
460,372	3,38
460,869	2,96
461,366	2,67
461,863	3,03
462,36	2,88
462,857	3,1
463,353	3,06
463,85	2,85
464,346	2,97
464,843	2,89
465,339	2,8
465,835	2,9
466,331	3,04
466,827	3
467,323	2,93
467,818	3,11
468,314	2,82
468,809	2,71
469,305	2,97
469,8	2,98
470,295	2,95
470,79	3
471,285	2,86
471,78	3,04
472,274	2,86
472,769	3,03
473,263	2,93
473,758	3,16
474,252	2,98
474,746	3,18
475,24	3,1
475,734	3,07
476,228	2,87
476,721	3,25
477,215	2,93
477,708	2,76
478,202	3,13
478,695	2,92
479,188	2,88
479,681	2,79
480,174	3,09
480,667	3,04
481,159	3
481,652	2,86
482,144	3,1
482,637	2,94
483,129	2,98
483,621	3,21
484,113	3,2
484,605	3,29
485,097	3,29
485,588	3,14
486,08	2,92
486,571	3,15
487,063	3,34
487,554	3,14
488,045	3,13
488,536	3,44
489,027	3,12
489,518	3,45
490,008	3,23
490,499	3,29
490,989	3,51
491,48	3,49
491,97	3,54
492,46	3,6
492,95	3,53
493,44	3,49
493,93	3,39
494,419	3,71
494,909	3,59
495,398	3,53
495,888	3,53
496,377	3,59
496,866	3,82
497,355	3,9
497,844	4,05
498,333	4,13
498,821	3,95
499,31	4,21
499,798	4,03
500,287	4,41
500,775	4,49
501,263	4,42
501,751	4,49
502,239	4,62
502,727	4,75
503,215	4,85
503,702	4,98
504,19	5,04
504,677	5,21
505,164	5,14
505,651	5,34
506,139	5,32
506,625	5,58
507,112	5,71
507,599	5,89
508,086	6,16
508,572	5,89
509,058	6,37
509,545	6,85
510,031	6,65
510,517	6,81
511,003	7,05
511,489	7,18
511,974	7,34
512,46	7,85
512,946	7,76
513,431	7,91
513,916	7,89
514,401	8,34
514,887	8,73
515,371	8,85
515,856	9,13
516,341	9,2
516,826	9,4
517,31	9,87
517,795	10,05
518,279	10,31
518,763	10,78
519,247	11,01
519,731	10,92
520,215	10,91
520,699	11,79
521,182	11,83
521,666	11,96
522,149	12,05
522,633	12,7
523,116	12,39
523,599	12,77
524,082	13,17
524,565	13,17
525,048	13,81
525,53	13,82
526,013	14,2
526,495	13,99
526,978	14,37
527,46	14,81
527,942	14,74
528,424	14,87
528,906	15,34
529,388	15,07
529,87	15,73
530,351	15,56
530,833	16,02
531,314	15,66
531,795	16,13
532,277	15,92
532,758	16,32
533,238	16,44
533,719	16,49
534,2	16,59
534,681	16,34
535,161	16,9
535,642	16,59
536,122	16,86
536,602	16,69
537,082	17,18
537,562	17,25
538,042	17,24
538,522	17,02
539,001	17,28
539,481	17,57
539,96	17,67
540,44	17,78
540,919	17,24
541,398	17,59
541,877	17,45
542,356	17,48
542,835	17,56
543,313	17,77
543,792	17,48
544,27	17,46
544,749	17,99
545,227	17,91
545,705	17,98
546,183	17,64
546,661	17,91
547,139	17,79
547,616	17,78
548,094	17,83
548,571	18,21
549,049	18,05
549,526	17,95
550,003	18,31
550,48	18,01
550,957	18,02
551,434	17,9
551,911	18,44
552,387	18,13
552,864	18,21
553,34	18,04
553,817	18,11
554,293	18,12
554,769	18,04
555,245	18,42
555,721	17,62
556,197	18,26
556,672	18,17
557,148	18,04
557,623	18,21
558,099	18,35
558,574	17,94
559,049	17,86
559,524	17,87
559,999	17,7
560,474	17,79
560,948	17,76
561,423	17,64
561,897	17,95
562,372	17,55
562,846	17,53
563,32	17,45
563,794	17,35
564,268	17,13
564,742	17,27
565,216	17,08
565,69	17,09
566,163	16,77
566,636	16,7
567,11	16,6
567,583	16,63
568,056	16,57
568,529	16,42
569,002	16,25
569,475	16,16
569,947	16,07
570,42	15,96
570,892	15,72
571,365	15,47
571,837	15,49
572,309	15,38
572,781	14,98
573,253	15,06
573,725	14,86
574,197	14,68
574,668	14,56
575,14	14,58
575,611	14,61
576,082	14,41
576,554	14,22
577,025	13,96
577,496	13,9
577,967	13,78
578,437	13,77
578,908	13,5
579,379	13,58
579,849	13,38
580,319	13,31
580,79	13,31
581,26	13,07
581,73	12,81
582,2	12,97
582,669	13,03
583,139	12,57
583,609	12,7
584,078	12,6
584,548	12,55
585,017	12,56
585,486	12,1
585,955	12,26
586,424	12,18
586,893	12,29
587,362	11,88
587,83	11,99
588,299	12
588,767	11,8
589,236	11,86
589,704	11,95
590,172	11,73
590,64	11,65
591,108	11,72
591,576	11,61
592,043	11,44
592,511	11,49
592,978	11,51
593,446	11,21
593,913	11,44
594,38	11,32
594,847	11,21
595,314	11,33
595,781	11,39
596,248	11,15
596,715	11,34
597,181	11,2
597,647	11,18
598,114	10,93
598,58	11,04
599,046	11,07
599,512	11,14
599,978	11,01
600,444	11,04
600,91	10,9
601,375	10,92
601,841	10,85
602,306	10,84
602,771	10,93
603,236	10,62
603,702	10,73
604,167	10,64
604,631	10,77
605,096	10,65
605,561	10,81
606,025	10,69
606,49	10,39
606,954	10,45
607,418	10,19
607,882	10,4
608,347	10,31
608,81	10,06
609,274	9,97
609,738	10,11
610,202	10,03
610,665	9,88
611,128	9,83
611,592	9,77
612,055	9,52
612,518	9,61
612,981	9,45
613,444	9,35
613,907	9,38
614,369	9,25
614,832	9,12
615,294	8,99
615,757	9,03
616,219	9,23
616,681	8,85
617,143	8,85
617,605	8,84
618,067	8,92
618,529	8,63
618,99	8,62
619,452	8,7
619,913	8,53
620,375	8,39
620,836	8,38
621,297	8,36
621,758	8,26
622,219	8,3
622,68	8,37
623,14	8,16
623,601	8,15
624,061	8,12
624,522	8,24
624,982	7,97
625,442	8
625,902	8,07
626,362	8,05
626,822	7,86
627,282	7,87
627,742	8,01
628,201	8,08
628,661	7,82
629,12	7,88
629,579	7,9
630,038	7,84
630,497	7,94
630,956	7,91
631,415	7,87
631,874	7,76
632,332	7,69
632,791	7,86
633,249	7,56
633,708	7,8
634,166	7,73
634,624	7,78
635,082	7,6
635,54	7,64
635,998	7,46
636,455	7,53
636,913	7,41
637,37	7,44
637,828	7,36
638,285	7,1
638,742	7,03
639,199	7,03
639,656	6,87
640,113	6,91
640,57	6,8
641,027	6,68
641,483	6,66
641,94	6,53
642,396	6,49
642,852	6,32
643,309	6,23
643,765	6,19
644,221	6,15
644,676	5,94
645,132	6,03
645,588	5,89
646,043	5,84
646,499	5,62
646,954	5,55
647,409	5,46
647,864	5,48
648,319	5,33
648,774	5,22
649,229	5,25
649,684	5,13
650,139	5,09
650,593	5,07
651,047	5,04
651,502	4,91
651,956	5
652,41	4,86
652,864	4,88
653,318	4,78
653,772	4,81
654,225	4,79
654,679	4,83
655,133	4,67
655,586	4,66
656,039	4,62
656,492	4,52
656,946	4,55
657,399	4,5
657,851	4,42
658,304	4,55
658,757	4,33
659,209	4,3
659,662	4,21
660,114	4,13
660,567	4,16
661,019	4,2
661,471	3,99
661,923	3,98
662,375	3,85
662,826	3,87
663,278	3,84
663,73	3,72
664,181	3,74
664,632	3,63
665,084	3,58
665,535	3,67
665,986	3,58
666,437	3,59
666,888	3,63
667,338	3,6
667,789	3,61
668,24	3,56
668,69	3,6
669,14	3,57
669,591	3,64
670,041	3,68
670,491	3,71
670,941	3,62
671,391	3,76
671,84	3,82
672,29	3,7
672,74	3,86
673,189	3,9
673,638	3,84
674,088	3,96
674,537	3,97
674,986	4,16
675,435	4,14
675,883	4,24
676,332	4,3
676,781	4,33
677,229	4,42
677,678	4,56
678,126	4,65
678,574	4,75
679,022	4,87
679,47	4,94
679,918	5,07
680,366	5,11
680,814	5,26
681,261	5,33
681,709	5,32
682,156	5,43
682,604	5,61
683,051	5,76
683,498	5,76
683,945	5,94
684,392	5,98
684,839	6,08
685,286	6,22
685,732	6,36
686,179	6,41
686,625	6,64
687,071	6,6
687,518	6,74
687,964	6,87
688,41	7,13
688,856	7,37
689,301	7,39
689,747	7,65
690,193	7,96
690,638	8,08
691,084	8,41
691,529	8,65
691,974	9,13
692,419	9,37
692,864	9,8
693,309	10,16
693,754	10,42
694,199	10,9
694,643	11,2
695,088	11,59
695,532	12,03
695,977	12,48
696,421	12,91
696,865	13,29
697,309	13,78
697,753	14,08
698,197	14,55
698,64	14,94
699,084	15,39
699,527	15,68
699,971	16,2
700,414	16,66
700,857	17,05
701,3	17,36
701,743	17,49
702,186	18,1
702,629	18,49
703,072	18,77
703,515	19,32
703,957	19,46
704,399	19,81
704,842	20,21
705,284	20,47
705,726	20,89
706,168	21,03
706,61	21,24
707,052	21,77
707,494	22,07
707,935	22,49
708,377	22,55
708,818	22,94
709,26	23,19
709,701	23,31
710,142	23,62
710,583	23,96
711,024	24,1
711,465	24,47
711,905	24,9
712,346	24,97
712,787	25,17
713,227	25,48
713,667	25,55
714,108	25,89
714,548	26,21
714,988	26,49
715,428	26,63
715,868	26,75
716,307	26,98
716,747	27,13
717,186	27,27
717,626	27,56
718,065	27,83
718,504	27,72
718,944	28,09
719,383	28,26
719,822	28,36
720,261	28,53
720,699	28,77
721,138	28,89
721,576	28,89
722,015	29,17
722,453	29,42
722,892	29,55
723,33	29,53
723,768	29,94
724,206	29,98
724,644	29,9
725,081	29,99
725,519	30,31
725,957	30,54
726,394	30,7
726,832	30,38
727,269	30,75
727,706	30,6
728,143	30,76
728,58	30,96
729,017	30,94
729,454	31,21
729,89	31,3
730,327	31,29
730,764	31,35
731,2	31,5
731,636	31,24
732,072	31,5
732,509	31,66
732,945	31,65
733,38	31,97
733,816	31,6
734,252	31,79
734,688	31,88
735,123	31,98
735,559	31,67
735,994	31,9
736,429	32,02
736,864	32,19
737,299	31,95
737,734	32,05
738,169	31,98
738,604	32,08
739,038	32,1
739,473	32,2
739,907	32,28
740,342	32,01
740,776	32,18
741,21	32,13
741,644	32,3
742,078	32,3
742,512	32,05
742,946	32
743,379	32,21
743,813	31,97
744,246	32,23
744,68	32,26
745,113	32,13
745,546	32,09
745,979	32,26
746,412	32,35
746,845	32,14
747,278	32,15
747,711	32,16
748,143	32,24
748,576	32,12
749,008	32,08
749,441	32,03
749,873	31,67
750,305	31,72
750,737	31,92
751,169	31,79
751,601	31,82
752,032	31,76
752,464	31,86
752,896	31,69
753,327	31,97
753,758	31,59
754,19	31,81
754,621	31,58
755,052	31,61
755,483	31,48
755,914	31,29
756,344	31,66
756,775	31,51
757,206	31,52
757,636	31,65
758,066	31,57
758,497	31,51
758,927	31,38
759,357	31,55
759,787	31,18
760,217	31,37
760,647	31,51
761,076	31,18
761,506	31,03
761,935	31,32
762,365	31,15
762,794	31,37
763,223	31,14
763,653	31,13
764,082	31,25
764,51	30,81
764,939	31,01
765,368	30,84
765,797	31,09
766,225	30,66
766,654	30,95
767,082	30,99
767,51	30,99
767,938	30,71
768,367	31,32
768,795	30,99
769,222	30,89
769,65	30,88
770,078	30,78
770,505	30,91
770,933	30,94
771,36	31,02
771,788	30,72
772,215	30,62
772,642	30,99
773,069	30,62
773,496	30,91
773,923	30,6
774,349	30,74
774,776	30,83
775,203	30,58
775,629	30,52
776,055	30,64
776,482	30,57
776,908	30,64
777,334	30,6
777,76	30,58
778,186	30,55
778,611	30,4
779,037	30,46
779,463	30,65
779,888	30,44
780,314	30,43
780,739	30,45
781,164	30,68
781,589	30,29
782,014	30,37
782,439	30,35
782,864	30,36
783,289	30,45
783,713	30,56
784,138	30,3
784,562	30,37
784,987	30,68
785,411	30,33
785,835	30,25
786,259	30,32
786,683	30,42
787,107	30,28
787,531	30,49
787,954	30,43
788,378	30,29
788,802	30,32
789,225	30,31
789,648	30,4
790,071	30,08
790,495	30,17
790,918	30,19
791,34	30,49
791,763	30,21
792,186	30,2
792,609	30,24
793,031	30,01
793,454	30,23
793,876	30,25
794,298	29,93
794,721	30,18
795,143	30,25
795,565	30,3
795,986	30,1
796,408	30,12
796,83	30,14
797,252	29,95
797,673	30,05
798,094	29,99
798,516	30,03
798,937	30,2
799,358	29,81
799,779	29,98
800,2	29,92
800,621	30,11
801,042	30,1
801,462	30,03
801,883	30,06
802,303	30,08
802,724	30
803,144	29,94
803,564	30,21
803,984	30,03
804,404	30,18
804,824	30,02
805,244	30,16
805,664	30,01
806,084	30,15
806,503	30,23
806,923	29,91
807,342	29,97
807,761	30,26
808,18	29,96
808,599	29,96
809,018	29,97
809,437	29,96
809,856	29,99
810,275	30,12
810,693	30,37
811,112	30
811,53	30,05
811,949	30,03
812,367	30,25
812,785	29,96
813,203	30,02
813,621	30,02
814,039	30,01
814,457	29,84
814,874	30,03
815,292	30,02
815,709	30,24
816,127	29,96
816,544	30
816,961	29,87
817,378	29,96
817,795	30,07
818,212	30,19
818,629	29,86
819,046	29,84
819,462	30,09
819,879	29,99
820,295	29,98
820,712	30,12
821,128	30,16
821,544	29,86
821,96	29,87
822,376	30,01
822,792	30
823,208	29,81
823,624	29,85
824,039	29,85
824,455	29,82
824,87	29,87
825,286	30,13
825,701	29,72
826,116	30,16
826,531	29,9
826,946	30,05
827,361	29,84
827,776	29,84
828,19	29,7
828,605	29,99
829,02	29,8
829,434	29,74
829,848	29,89
830,263	29,73
830,677	29,81
831,091	29,89
831,505	29,74
831,919	30,11
832,332	29,92
832,746	29,69
833,16	29,78
833,573	29,92
833,987	29,72
834,4	29,6
834,813	29,72
835,226	29,79
835,639	29,67
836,052	29,69
836,465	29,89
836,878	29,86
837,29	29,83
837,703	29,7
838,116	29,74
838,528	29,6
838,94	29,79
839,352	29,64
839,765	29,97
840,177	29,55
840,589	29,73
841	29,68
841,412	29,93
841,824	29,71
842,235	29,65
842,647	29,6
843,058	30,03
843,47	29,6
843,881	29,66
844,292	29,74
844,703	29,76
845,114	29,55
845,525	29,71
845,935	29,71
846,346	29,71
846,757	29,67
847,167	29,68
847,577	29,61
847,988	29,61
848,398	29,59
848,808	29,65
849,218	29,83
849,628	29,55
850,038	29,58
850,448	29,46
850,857	29,8
851,267	29,66
851,676	29,7
852,086	29,63
852,495	29,55
852,904	29,71
853,313	29,57
853,722	29,54
854,131	29,47
854,54	29,69
854,949	29,48
855,357	29,59
855,766	29,84
856,174	29,49
856,583	29,83
856,991	29,74
857,399	29,64
857,807	29,62
858,215	29,7
858,623	29,55
859,031	29,48
859,439	29,57
859,846	29,64
860,254	29,75
860,661	29,57
861,069	29,47
861,476	29,46
861,883	29,59
862,29	29,69
862,697	29,5
863,104	29,85
863,511	29,45
863,918	29,73
864,325	29,48
864,731	29,37
865,138	29,78
865,544	29,42
865,95	29,47
866,357	29,52
866,763	29,67
867,169	29,55
867,575	29,5
867,98	29,67
868,386	29,66
868,792	29,72
869,197	29,5
869,603	29,61
870,008	29,3
870,414	29,7
870,819	29,34
871,224	29,55
871,629	29,57
872,034	29,54
872,439	29,35
872,844	29,3
873,248	29,52
873,653	29,25
874,057	29,61
874,462	29,57
874,866	29,64
875,27	29,79
875,674	29,47
876,078	29,69
876,482	29,49
876,886	29,53
877,29	29,51
877,694	29,19
878,097	29,5
878,501	29,61
878,904	29,57
879,308	29,75
879,711	29,66
880,114	29,55
880,517	29,47
880,92	29,49
881,323	29,74
881,726	29,36
882,128	29,53
882,531	29,41
882,934	29,37
883,336	29,52
883,738	29,84
884,141	29,61
884,543	29,45
884,945	29,67
885,347	29,37
885,749	29,53
886,151	29,35
886,552	29,31
886,954	29,28
887,355	29,29
887,757	29,68
888,158	29,51
888,56	29,51
888,961	29,49
889,362	29,38
889,763	29,44
890,164	29,36
890,565	29,4
890,965	29,24
891,366	29,26
891,767	29,51
892,167	29,17
892,567	29,42
892,968	29,53
893,368	29,53
893,768	29,39
894,168	29,37
894,568	29,43
894,968	29,21
895,368	29,65
895,767	29,5
896,167	29,12
896,566	29,39
896,966	29,35
897,365	29,26
897,764	29,27
898,164	29,36
898,563	29,22
898,962	29,39
899,361	29,18
899,759	29,34
900,158	29,5
900,557	29,06
900,955	29,41
901,354	29,45
901,752	29,38
902,15	29,16
902,548	29,29
902,947	29,24
903,345	29,02
903,742	29,34
904,14	29,41
904,538	29,19
904,936	29,53
905,333	29,41
905,731	29,33
906,128	29,29
906,525	29,22
906,923	29,39
907,32	29,3
907,717	29,81
908,114	29,38
908,511	29,25
908,907	29,21
909,304	29,08
909,701	29,09
910,097	29,43
910,494	29,32
910,89	29,36
911,286	29,48
911,682	29,66
912,078	29,4
912,474	29,37
912,87	29,09
913,266	29,34
913,662	29,38
914,058	29,24
914,453	29,59
914,849	29,43
915,244	29,24
915,639	29,59
916,034	29,08
916,43	29,65
916,825	29,62
917,22	29,75
917,614	29,32
918,009	29,18
918,404	29,48
918,798	29,58
919,193	29,36
919,587	29,32
919,982	29,48
920,376	29,1
920,77	29,31
921,164	29,18
921,558	29,42
921,952	29,53
922,346	29,14
922,74	29,22
923,133	29,51
923,527	29,15
923,92	29,39
924,314	29,22
924,707	29,04
925,1	28,93
925,493	29,15
925,886	29,08
926,279	29,04
926,672	29,39
927,065	29,28
927,457	29,09
927,85	29,01
928,243	28,98
928,635	29,46
929,027	29,09
929,42	29,1
929,812	29,11
930,204	29,21
930,596	29,29
930,988	29,32
931,379	29,26
931,771	28,91
932,163	28,9
932,554	28,96
932,946	29,18
933,337	29,28
933,729	29,36
934,12	29,35
934,511	29,08
934,902	29,06
935,293	28,73
935,684	29,29
936,075	29,05
936,465	29,07
936,856	29,12
937,246	28,76
937,637	28,81
938,027	28,84
938,417	29,3
938,808	28,95
939,198	28,83
939,588	28,97
939,978	29,47
940,368	28,7
940,757	28,71
941,147	28,79
941,537	28,82
941,926	29,03
942,315	29,27
942,705	29,07
943,094	29,23
943,483	29,21
943,872	28,7
944,261	28,55
944,65	29,28
945,039	28,81
945,428	28,68
945,816	28,61
946,205	29,24
946,593	28,71
946,982	28,61
947,37	29,44
947,758	29,11
948,146	29,25
948,534	28,89
948,922	28,99
949,31	28,56
949,698	28,58
950,086	29,02
950,473	28,74
950,861	28,61
951,248	28,67
951,636	28,15
952,023	28,99
952,41	28,42
952,797	28,64
953,184	28,46
953,571	28,14
953,958	28,83
954,345	28,03
954,731	28,6
955,118	28,69
955,505	28,81
955,891	28,32
956,277	28,66
956,664	28,78
957,05	28,63
957,436	28,65
957,822	28,54
958,208	28,54
958,594	27,99
958,979	28,11
959,365	28,72
959,751	28,19
960,136	28,35
960,522	28,24
960,907	28,58
961,292	28,28
961,677	28,18
962,062	28,14
962,447	28,53
962,832	28,34
963,217	28,6
963,602	28,45
963,986	28,61
964,371	28,2
964,756	28,6
965,14	28,45
965,524	28,36
965,908	28,37
966,293	28,24
966,677	28,55
967,061	28,39
967,445	28,47
967,828	28,38
968,212	28,32
968,596	28,37
968,979	28,41
969,363	28,55
969,746	28,32
970,129	28,25
970,513	28,37
970,896	28,74
971,279	27,92
971,662	28,22
972,045	28,18
972,428	28,46
972,81	28,13
973,193	28,2
973,575	28,66
973,958	28,44
974,34	28,44
974,723	28,45
975,105	28,25
975,487	28,23
975,869	28,24
976,251	28,5
976,633	28,47
977,015	28,41
977,396	28,63
977,778	28,52
978,16	28,57
978,541	28,66
978,922	28,15
979,304	28,45
979,685	28,54
980,066	28,68
980,447	28,47
980,828	28,36
981,209	28,37
981,59	28,73
981,97	28,46
982,351	28,23
982,732	28,65
983,112	28,61
983,493	28,55
983,873	28,24
984,253	28,57
984,633	28,36
985,013	28,42
985,393	28,38
985,773	28,12
986,153	27,88
986,533	28,64
986,912	28,43
987,292	28,47
987,671	28,43
988,051	28,48
988,43	28,68
988,809	28,36
989,188	28,58
989,567	28,31
989,946	28,85
990,325	28,69
990,704	28,55
991,083	28,32
991,461	28,1
991,84	28,3
992,218	28,14
992,597	28,56
992,975	28,41
993,353	28,65
993,732	28,51
994,11	28,8
994,488	28,38
994,866	28,68
995,243	28,75
995,621	27,93
995,999	28,13
996,376	28,92
996,754	28,53
997,131	28,41
997,509	28,32
997,886	28,93
998,263	28,89
998,64	28,6
999,017	28,69
999,394	28,4
999,771	28,56
1000,148	28,29
1000,524	28,33
1000,901	27,99
1001,277	28,69
1001,654	28,73
1002,03	28,29
1002,406	28,76
1002,783	28,03
1003,159	28,05
1003,535	28,62
1003,911	28,3
1004,286	28,92
1004,662	28,24
1005,038	28,82
1005,414	28,76
1005,789	28,19
1006,164	28,52
1006,54	28,2
1006,915	28,37
1007,29	28,55
1007,665	28,75
1008,04	28,49
1008,415	28,67
1008,79	28,74
1009,165	28,86
1009,54	28,28
1009,914	28,64
1010,289	28,9
1010,663	28,59
1011,038	28,28
1011,412	29,11
1011,786	28,74
1012,16	28,38
1012,535	28,69
1012,909	28,84
1013,282	28,59
1013,656	28,58
1014,03	28,36
1014,404	28,46
1014,777	28,58
1015,151	28,44
1015,524	29,09
1015,897	28,46
1016,271	28,62
1016,644	28,72
1017,017	28,85
1017,39	28,33
1017,763	28,67
1018,136	28,93
1018,508	28,33
1018,881	28,9
1019,254	28,27
1019,626	28,33
1019,999	28,64
1020,371	28,02
1020,743	28,4
1021,116	28,62
1021,488	29,09
1021,86	28,46
1022,232	28,68
1022,604	28,7
1022,975	28,98
1023,347	28,4
1023,719	28,79
1024,09	28,14
1024,462	29,05
1024,833	28,2
1025,204	28,46
1025,576	28,68
1025,947	28,43
1026,318	28,56
1026,689	29,38
1027,06	28,6
1027,431	28,76
1027,801	28,21
1028,172	28,47
1028,543	28,86
1028,913	29
1029,284	27,98
1029,654	28,41
1030,024	28,75
1030,394	28,82
1030,764	28,43
1031,135	28,84
1031,504	28,58
1031,874	28,82
1032,244	28,29
1032,614	28,7
1032,983	29,15
1033,353	28,51
1033,722	28,58
1034,092	29,13
1034,461	28,65
1034,83	29,22
1035,2	28,37
1035,569	28,46
1035,938	28,38
1036,307	29,08
1036,675	29,4
1037,044	28,98
1037,413	28,49
1037,781	28,67
1038,15	28,82
1038,518	28,43
1038,887	29,14
1039,255	29,07
1039,623	28,4
1039,991	28,36
1040,359	28,9
1040,727	29,46
1041,095	28,32
1041,463	29,14
1041,831	28,5
1042,198	28,72
1042,566	29,05
1042,933	28,46
1043,301	29,13
1043,668	28,46
1044,035	28,78
1044,402	28,82
1044,77	28,67
1045,137	28,69
1045,503	28,18
1045,87	28,58
1046,237	28,83
1046,604	27,24
1046,97	28,82
1047,337	29,22
1047,703	29,09
1048,07	28,72
1048,436	28,91
1048,802	28,44
1049,168	28,81
1049,534	28,84
1049,9	28,23
1050,266	29,05
1050,632	28,96
1050,998	28,14
1051,364	28,66
1051,729	28,89
1052,095	29,04
1052,46	29,32
1052,825	28,66
1053,191	28,33
1053,556	28,65
1053,921	27,75
1054,286	28,06
1054,651	29,98
1055,016	28,19
1055,381	28,36
1055,745	28,93
1056,11	29,18
1056,475	28,94
1056,839	29,05
1057,203	28,67
1057,568	28,48
1057,932	28,55
1058,296	28,71
1058,66	28,82
1059,024	29,53
1059,388	28,61
1059,752	28,37
1060,116	27,79
1060,48	28,95
1060,843	28,65
1061,207	28,68
1061,57	28,83
1061,934	28,31
1062,297	28,6
1062,66	29,24
1063,023	28,75
1063,386	28,81
1063,749	28,97
1064,112	28,24
1064,475	29,28
1064,838	28,98
1065,201	28,53
1065,563	28,97
1065,926	27,69
1066,288	29,82
1066,651	28,48
1067,013	29,23
1067,375	28,5
1067,737	28,68
1068,099	29,27
1068,461	27,59
1068,823	28,96
1069,185	28,49
1069,547	28,67
1069,909	28,8
1070,27	28,3
1070,632	28,83
1070,993	28,9
1071,355	28,45
1071,716	28,04
1072,077	27,79
1072,438	28,87
1072,799	28,27
1073,16	29,51
1073,521	28,71
1073,882	28,66
1074,243	28,23
1074,603	28,7
1074,964	27,59
1075,325	28,81
1075,685	29,09
1076,045	28,53
1076,406	27,94
1076,766	28,63
1077,126	28,85
1077,486	28,74
1077,846	30,54
1078,206	29,38
1078,566	28,24
1078,925	29,55
1079,285	31,16
1079,645	29,55
1080,004	28,34
1080,364	28,25
1080,723	28,79
1081,082	29,3
1081,442	28
1081,801	28,68
1082,16	29,92
1082,519	29,42
1082,878	28,96
1083,237	29,5
1083,595	27,45
1083,954	29,42
1084,313	28,75
1084,671	28,89
1085,03	28,36
1085,388	29,55
1085,746	29,2
1086,104	27,92
1086,463	29,37
1086,821	29,66
1087,179	29,35
1087,537	29,41
1087,894	30,37
1088,252	28,3
1088,61	29,02
1088,967	28,33
1089,325	27,73
1089,682	28,8
1090,04	29,08
1090,397	29,33
1090,754	29,59
1091,111	29,07
1091,469	28,68
1091,826	29,9
1092,182	28,75
1092,539	29,74
1092,896	28,54
1093,253	30,52
1093,609	28,56
1093,966	29,19
1094,322	29,42
1094,679	28,67
1095,035	29,63
1095,391	29,81
1095,748	31,78
1096,104	29,92
1096,46	29,54
1096,816	29,42
1097,171	30,28
1097,527	29,4
1097,883	29,51
1098,239	28,2
1098,594	30,34
1098,95	29,28
1099,305	30,32
1099,66	29,36
1100,016	29,34
1100,371	28,78
1100,726	27,53
1101,081	29,33
1101,436	27,61
1101,791	27,78
1102,146	30,03
1102,5	29,69
1102,855	28,32
1103,21	30,02
1103,564	27,77
1103,918	29,94
1104,273	29,74
1104,627	28,59
1104,981	29,53
1105,335	28,83
1105,69	26,91
1106,043	31,11
1106,397	31,11
1106,751	30,47
1107,105	29,85
1107,459	27,31
1107,812	30,65
1108,166	31,07
1108,519	29,29
1108,873	28,68
1109,226	27,75
1109,579	28,35
1109,932	29,17
1110,285	28,18
1110,638	27,05
1110,991	30,5
1111,344	29,91
1111,697	28,57
1112,05	30,17
1112,402	28,52
1112,755	28,81
1113,107	29,47
1113,46	30,66
1113,812	31,45
1114,164	30,54
1114,517	29,16
1114,869	43,82
1115,221	32,81
1115,573	40,72
1115,924	27,23
