Data from B_5_Relative__2__00028.txt Node

Date: Tue Jan 30 09:51:02 CET 2024
User: diatiterra
Spectrometer: HDX00911
Trigger mode: 0
Integration Time (sec): 6,000000E-3
Scans to average: 2
Nonlinearity correction enabled: false
Boxcar width: 0
Storing dark spectrum: false
XAxis mode: Wavelengths
Number of Pixels in Spectrum: 2068
>>>>>Begin Spectral Data<<<<<
194,468	110,87
195,025	105,62
195,581	118,31
196,138	107,87
196,694	77,03
197,251	91,79
197,807	75,57
198,363	71,34
198,919	87,5
199,474	82,91
200,03	68,72
200,586	63,92
201,141	81,25
201,696	83,97
202,251	77,34
202,806	96,4
203,361	92,64
203,916	89,81
204,471	88,03
205,025	87,67
205,58	79,17
206,134	83,23
206,688	87,67
207,242	78,98
207,796	67,07
208,35	81,25
208,904	87,8
209,457	87,21
210,011	76,83
210,564	87,67
211,117	93,37
211,67	86,84
212,223	104,61
212,776	82,46
213,329	69,46
213,881	87,16
214,434	76,22
214,986	80,89
215,538	104,71
216,09	73,05
216,642	87,58
217,194	91,45
217,746	89,87
218,297	82,69
218,849	87,27
219,4	74,69
219,951	91,67
220,502	83,71
221,053	86,39
221,604	81,18
222,155	87,59
222,705	80,79
223,256	86,86
223,806	79,88
224,356	93,8
224,906	80,25
225,456	81,1
226,006	78,44
226,556	89,26
227,106	108,09
227,655	96,4
228,204	82,05
228,754	77,65
229,303	87,92
229,852	86,71
230,401	73,58
230,949	98,68
231,498	91,3
232,047	89,6
232,595	77,65
233,143	78,95
233,691	78,06
234,239	67,03
234,787	79,33
235,335	89,78
235,883	92,41
236,43	87,82
236,978	91,19
237,525	82,72
238,072	72,99
238,619	66,41
239,166	87,5
239,713	85,81
240,26	90,3
240,806	82,31
241,353	79,41
241,899	75,93
242,445	86
242,991	75,15
243,537	83,33
244,083	90,13
244,629	69,86
245,174	80,49
245,72	72,34
246,265	80,75
246,81	74,52
247,355	98,25
247,9	82,14
248,445	100
248,99	83,94
249,534	93,33
250,079	89,47
250,623	81,94
251,168	76,92
251,712	72,59
252,256	89,31
252,8	77,12
253,343	80,35
253,887	69,02
254,43	67,2
254,974	94,89
255,517	77,21
256,06	84,43
256,603	80,49
257,146	82,55
257,689	84,21
258,232	89,31
258,774	90,98
259,317	83,69
259,859	72,41
260,401	87,7
260,943	89,4
261,485	91,38
262,027	77,48
262,569	66,44
263,11	87,32
263,652	71,03
264,193	80,99
264,734	78,62
265,275	70,75
265,816	81,16
266,357	83,69
266,898	78,98
267,438	73,55
267,979	76,92
268,519	73,29
269,059	79,37
269,6	73,55
270,14	81,29
270,68	89,58
271,219	85,23
271,759	83,59
272,298	75,31
272,838	76,43
273,377	97,28
273,916	80
274,455	93,75
274,994	74,26
275,533	71,43
276,072	84,77
276,61	73,25
277,149	78,17
277,687	76,36
278,225	84,3
278,763	94,66
279,301	70,81
279,839	78,06
280,377	75,74
280,914	68,75
281,452	72,22
281,989	81,93
282,526	67,3
283,064	84,72
283,601	71,51
284,137	65,69
284,674	66,88
285,211	81,1
285,747	77,84
286,284	83,33
286,82	79,17
287,356	61,48
287,892	64,24
288,428	62,24
288,964	70,44
289,5	73,68
290,035	88,1
290,571	73,29
291,106	88,78
291,641	82,5
292,176	71,72
292,711	77,4
293,246	66,42
293,781	57,46
294,315	80,65
294,85	66,89
295,384	84,3
295,918	67,6
296,453	73,42
296,987	91,07
297,52	75,18
298,054	70,47
298,588	86,15
299,121	87,4
299,655	61,38
300,188	64,49
300,721	76,87
301,254	59,86
301,787	99,15
302,32	82,71
302,853	76,16
303,385	81,29
303,918	101,71
304,45	78,23
304,982	76,32
305,514	67,72
306,046	73,24
306,578	91,97
307,11	73,96
307,641	76,13
308,173	71,88
308,704	72,93
309,236	72,08
309,767	69,66
310,298	72,57
310,829	74
311,359	75,78
311,89	82,43
312,421	72,34
312,951	69,68
313,481	67,14
314,012	73,33
314,542	88,62
315,072	76,76
315,601	87,14
316,131	76,87
316,661	77,44
317,19	72,66
317,72	77,55
318,249	75,19
318,778	76,33
319,307	73,42
319,836	85,81
320,365	83,67
320,893	84,48
321,422	77,04
321,95	77,3
322,479	84,17
323,007	76,82
323,535	74,32
324,063	79,08
324,591	82,39
325,118	72,22
325,646	79,41
326,173	93,02
326,701	75,33
327,228	62,57
327,755	53,33
328,282	83,92
328,809	81,68
329,336	73,12
329,862	79,78
330,389	74,39
330,915	79,74
331,441	67,74
331,968	75,18
332,494	72,85
333,02	75
333,545	70,99
334,071	66,88
334,597	70,13
335,122	78,72
335,648	69,36
336,173	73,89
336,698	66
337,223	62,59
337,748	81,29
338,272	65,22
338,797	76
339,322	69,38
339,846	70,41
340,37	69,23
340,894	64,56
341,419	84,25
341,942	73,8
342,466	65,31
342,99	72,15
343,514	63,93
344,037	68,75
344,56	62,15
345,084	62,5
345,607	60,77
346,13	56,98
346,653	68,87
347,175	68,39
347,698	66,3
348,221	85,62
348,743	73,23
349,265	69,54
349,787	67,1
350,309	66,15
350,831	60,11
351,353	69,51
351,875	67,57
352,397	55,45
352,918	64,82
353,439	67,08
353,961	68,81
354,482	66,67
355,003	72,04
355,524	63,05
356,044	65,46
356,565	66,35
357,086	61,64
357,606	58,12
358,126	67,16
358,646	59,9
359,167	53,21
359,687	57,78
360,206	71,06
360,726	66,98
361,246	56,28
361,765	57,28
362,285	60,29
362,804	72,06
363,323	62,5
363,842	56,62
364,361	59,74
364,88	59,35
365,398	61,5
365,917	58,82
366,435	65,59
366,954	54,03
367,472	56,35
367,99	53,23
368,508	56,06
369,026	52,4
369,544	57,34
370,061	44,91
370,579	60,82
371,096	53,26
371,613	54,58
372,131	53,24
372,648	59,47
373,165	51,76
373,681	60,15
374,198	45,6
374,715	52,04
375,231	49,83
375,747	49,67
376,264	46,06
376,78	53,25
377,296	42,38
377,812	43,35
378,327	53,24
378,843	43,54
379,359	45,92
379,874	48,33
380,389	42,41
380,905	45,17
381,42	47,43
381,935	46,32
382,449	43,87
382,964	41,21
383,479	41,03
383,993	41,53
384,508	38,18
385,022	38,86
385,536	38,82
386,05	40,71
386,564	38,46
387,078	43,19
387,592	39,27
388,105	37,88
388,619	40,7
389,132	35,86
389,645	33,94
390,158	40,04
390,671	38,36
391,184	31,84
391,697	37,16
392,21	32,16
392,722	32,83
393,235	37
393,747	33,66
394,259	33,05
394,771	35,06
395,283	32,29
395,795	32,03
396,307	33,75
396,818	32,33
397,33	30,39
397,841	32,52
398,353	27,6
398,864	31,08
399,375	31,83
399,886	27,56
400,397	28,19
400,907	23,88
401,418	27,51
401,928	27,26
402,439	26,05
402,949	25,6
403,459	24,91
403,969	25,26
404,479	25,69
404,989	24
405,498	24,39
406,008	23,92
406,517	22,6
407,027	21,52
407,536	19,51
408,045	22,37
408,554	18,51
409,063	19,62
409,572	18,91
410,08	17,69
410,589	16,2
411,097	16,52
411,606	15,1
412,114	13,74
412,622	15,22
413,13	14,66
413,638	14,18
414,145	15,53
414,653	12,3
415,16	12,64
415,668	14,61
416,175	12,05
416,682	11,19
417,189	11,93
417,696	11,23
418,203	11,54
418,71	9,95
419,216	11,19
419,723	10,07
420,229	11,03
420,735	9,92
421,242	10,85
421,748	9,68
422,254	11,09
422,759	9,72
423,265	8,69
423,771	9,6
424,276	10,44
424,781	9,61
425,287	9,78
425,792	9,15
426,297	9,86
426,802	9,33
427,306	9,73
427,811	8,62
428,316	9,94
428,82	8,77
429,324	8,91
429,829	9,23
430,333	8,92
430,837	8,6
431,34	8,7
431,844	8,79
432,348	8,41
432,851	8,62
433,355	7,5
433,858	8,87
434,361	9,02
434,864	8,02
435,367	8,76
435,87	7,7
436,373	8,07
436,876	9,18
437,378	8,45
437,88	7,99
438,383	8,6
438,885	8
439,387	8,1
439,889	8,46
440,391	8,02
440,892	7,42
441,394	8,88
441,896	8,68
442,397	8,09
442,898	7,62
443,399	7,69
443,9	7,66
444,401	8,05
444,902	8,65
445,403	8,25
445,903	7,93
446,404	8,46
446,904	8,1
447,405	7,87
447,905	7,85
448,405	8,22
448,905	8,35
449,404	8,26
449,904	8,02
450,404	8,19
450,903	8,27
451,403	7,93
451,902	7,99
452,401	8,64
452,9	8,47
453,399	8,5
453,898	8,38
454,396	8,31
454,895	8,69
455,393	8,51
455,892	8,72
456,39	8,17
456,888	8,7
457,386	8,83
457,884	8,24
458,382	8,4
458,879	9,19
459,377	9,05
459,874	8,98
460,372	8,89
460,869	8,93
461,366	8,11
461,863	8,46
462,36	8,26
462,857	8,01
463,353	8,54
463,85	8,6
464,346	8,61
464,843	8,27
465,339	8,57
465,835	8,08
466,331	8,57
466,827	8,17
467,323	8,23
467,818	8,67
468,314	8,51
468,809	8,11
469,305	8,18
469,8	8,45
470,295	8,09
470,79	8,38
471,285	8,32
471,78	8,49
472,274	7,93
472,769	8,56
473,263	8,29
473,758	8,5
474,252	8,44
474,746	8,11
475,24	8,6
475,734	8,37
476,228	8,15
476,721	8,27
477,215	8,03
477,708	8,21
478,202	8,84
478,695	8,28
479,188	8,33
479,681	8,57
480,174	8,51
480,667	8,57
481,159	8,33
481,652	8,96
482,144	8,62
482,637	8,52
483,129	8,4
483,621	8,63
484,113	8,35
484,605	8,53
485,097	8,56
485,588	8,43
486,08	8,43
486,571	8,51
487,063	8,79
487,554	8,31
488,045	9,02
488,536	8,84
489,027	8,89
489,518	9,04
490,008	9,04
490,499	9,41
490,989	9,2
491,48	8,9
491,97	9,25
492,46	8,83
492,95	9,09
493,44	9,32
493,93	9,44
494,419	9,51
494,909	9,53
495,398	9,84
495,888	9,34
496,377	9,47
496,866	9,79
497,355	9,73
497,844	10,04
498,333	10,15
498,821	10,25
499,31	10,66
499,798	11
500,287	11,06
500,775	10,95
501,263	10,86
501,751	11,28
502,239	11,56
502,727	11,44
503,215	11,77
503,702	11,58
504,19	12,01
504,677	12,89
505,164	12,65
505,651	13,23
506,139	13,16
506,625	13,16
507,112	13,53
507,599	13,7
508,086	13,54
508,572	14,46
509,058	14,68
509,545	15
510,031	14,84
510,517	15,88
511,003	15,74
511,489	16,59
511,974	17,05
512,46	17,12
512,946	16,94
513,431	17,5
513,916	18,18
514,401	18,52
514,887	18,21
515,371	19,21
515,856	19,56
516,341	20,34
516,826	20,47
517,31	21,17
517,795	21,09
518,279	21,42
518,763	22,02
519,247	22,8
519,731	22,72
520,215	22,99
520,699	23,74
521,182	24,42
521,666	24,8
522,149	25,05
522,633	25,86
523,116	25,55
523,599	26,12
524,082	27,26
524,565	26,9
525,048	27,55
525,53	28,62
526,013	28,66
526,495	29,22
526,978	29,03
527,46	29,34
527,942	29,62
528,424	30,09
528,906	30,39
529,388	31,2
529,87	30,8
530,351	31,7
530,833	31,73
531,314	31,7
531,795	32,29
532,277	32,1
532,758	32,49
533,238	32,89
533,719	33,37
534,2	33,6
534,681	33,7
535,161	33,48
535,642	32,69
536,122	34
536,602	33,84
537,082	34,09
537,562	33,92
538,042	33,41
538,522	34,2
539,001	33,94
539,481	34,15
539,96	34,06
540,44	34,47
540,919	34,99
541,398	35,01
541,877	34,66
542,356	35,55
542,835	35,07
543,313	34,48
543,792	34,67
544,27	35,04
544,749	34,92
545,227	34,48
545,705	35,41
546,183	35,54
546,661	35,14
547,139	35,66
547,616	34,74
548,094	36,39
548,571	35,54
549,049	35,8
549,526	36,12
550,003	35,57
550,48	35,32
550,957	35,59
551,434	35,7
551,911	35,48
552,387	35,75
552,864	35,57
553,34	35,3
553,817	36,08
554,293	35,5
554,769	35,5
555,245	36,3
555,721	35,64
556,197	35,81
556,672	35,32
557,148	36,07
557,623	35,65
558,099	35,64
558,574	35,57
559,049	35,19
559,524	35,1
559,999	35,61
560,474	35,45
560,948	34,88
561,423	35,34
561,897	35,01
562,372	34,38
562,846	34,58
563,32	34,6
563,794	33,62
564,268	33,97
564,742	33,93
565,216	33,82
565,69	33,27
566,163	33,31
566,636	33,19
567,11	33,19
567,583	32,1
568,056	32,34
568,529	32,38
569,002	32,46
569,475	31,87
569,947	31,83
570,42	31,44
570,892	31
571,365	30,56
571,837	30,64
572,309	30,13
572,781	29,97
573,253	29,81
573,725	29,83
574,197	29,8
574,668	28,95
575,14	28,82
575,611	28,67
576,082	28,85
576,554	28,47
577,025	28,63
577,496	27,99
577,967	27,93
578,437	27,57
578,908	27,31
579,379	27,01
579,849	27,38
580,319	26,9
580,79	27,06
581,26	26,01
581,73	26,17
582,2	26,29
582,669	25,88
583,139	26
583,609	26,11
584,078	25,82
584,548	25,66
585,017	25,64
585,486	25,38
585,955	25,27
586,424	24,83
586,893	24,59
587,362	24,98
587,83	24,59
588,299	24,73
588,767	24,81
589,236	24,3
589,704	24,29
590,172	23,86
590,64	24,47
591,108	23,6
591,576	23,4
592,043	23,77
592,511	23,69
592,978	23,97
593,446	23,29
593,913	23,52
594,38	23,52
594,847	23,27
595,314	23,1
595,781	23,44
596,248	23,31
596,715	22,64
597,181	23,3
597,647	23,34
598,114	23,29
598,58	23,43
599,046	22,63
599,512	22,81
599,978	22,6
600,444	22,45
600,91	22,34
601,375	22,63
601,841	22,32
602,306	22,3
602,771	22,63
603,236	22,27
603,702	22,03
604,167	22,39
604,631	22,35
605,096	21,83
605,561	22,06
606,025	21,8
606,49	21,76
606,954	21,69
607,418	21,4
607,882	21,43
608,347	21,29
608,81	21,19
609,274	20,78
609,738	20,91
610,202	20,51
610,665	20,65
611,128	20,52
611,592	20,35
612,055	20,02
612,518	20,1
612,981	20,28
613,444	19,98
613,907	19,56
614,369	19,55
614,832	19,52
615,294	19,3
615,757	18,71
616,219	19,35
616,681	18,76
617,143	18,8
617,605	19,04
618,067	18,38
618,529	18,33
618,99	18,31
619,452	18,34
619,913	18,55
620,375	18,28
620,836	18,45
621,297	18,27
621,758	17,68
622,219	17,71
622,68	17,86
623,14	17,65
623,601	17,8
624,061	17,22
624,522	17,73
624,982	17,17
625,442	17,26
625,902	17,57
626,362	17,28
626,822	17,45
627,282	17,47
627,742	17,34
628,201	17,28
628,661	17,27
629,12	17,01
629,579	17,23
630,038	17,13
630,497	16,97
630,956	16,57
631,415	17,21
631,874	16,63
632,332	16,84
632,791	17,03
633,249	16,54
633,708	16,8
634,166	16,83
634,624	16,49
635,082	16,72
635,54	16,44
635,998	16,37
636,455	16,24
636,913	16,17
637,37	15,74
637,828	15,6
638,285	15,76
638,742	15,7
639,199	15,43
639,656	15,24
640,113	15,18
640,57	15,02
641,027	14,89
641,483	14,79
641,94	14,43
642,396	14,29
642,852	14,32
643,309	14,06
643,765	14,01
644,221	13,84
644,676	13,47
645,132	13,37
645,588	12,9
646,043	13,02
646,499	12,73
646,954	12,6
647,409	12,44
647,864	12,13
648,319	12,1
648,774	11,89
649,229	11,96
649,684	11,8
650,139	11,69
650,593	11,63
651,047	11,4
651,502	11,44
651,956	11,34
652,41	11,25
652,864	11,26
653,318	11,27
653,772	11,07
654,225	11,21
654,679	10,72
655,133	10,95
655,586	10,82
656,039	10,64
656,492	10,46
656,946	10,42
657,399	10,59
657,851	10,35
658,304	10,29
658,757	10,06
659,209	10,18
659,662	9,91
660,114	9,66
660,567	9,65
661,019	9,52
661,471	9,36
661,923	9,26
662,375	9,13
662,826	9,13
663,278	8,94
663,73	9,02
664,181	8,83
664,632	8,53
665,084	8,54
665,535	8,68
665,986	8,62
666,437	8,51
666,888	8,31
667,338	8,46
667,789	8,26
668,24	8,27
668,69	8,37
669,14	8,28
669,591	8,33
670,041	8,23
670,491	8,29
670,941	8,24
671,391	8,36
671,84	8,33
672,29	8,28
672,74	8,34
673,189	8,47
673,638	8,63
674,088	8,64
674,537	8,47
674,986	8,53
675,435	8,84
675,883	8,74
676,332	8,88
676,781	8,88
677,229	9,26
677,678	9,21
678,126	9,22
678,574	9,49
679,022	9,43
679,47	9,58
679,918	9,5
680,366	9,86
680,814	9,93
681,261	10,27
681,709	10,31
682,156	10,31
682,604	10,35
683,051	10,82
683,498	10,63
683,945	11,13
684,392	11,19
684,839	11,44
685,286	11,53
685,732	11,7
686,179	11,9
686,625	12,15
687,071	12,61
687,518	12,66
687,964	13,25
688,41	13,33
688,856	13,61
689,301	14,37
689,747	14,52
690,193	15,34
690,638	15,68
691,084	16,26
691,529	16,96
691,974	17,59
692,419	18,15
692,864	18,87
693,309	19,53
693,754	20,12
694,199	21,14
694,643	21,84
695,088	22,73
695,532	23,44
695,977	24,01
696,421	24,88
696,865	25,95
697,309	26,47
697,753	27,51
698,197	28,13
698,64	28,89
699,084	29,91
699,527	30,63
699,971	31,06
700,414	32,1
700,857	33,04
701,3	33,52
701,743	34,44
702,186	34,91
702,629	35,94
703,072	36,82
703,515	36,67
703,957	37,81
704,399	38,59
704,842	39,5
705,284	39,86
705,726	40,63
706,168	41,22
706,61	41,81
707,052	42,43
707,494	43,53
707,935	43,37
708,377	44,05
708,818	44,71
709,26	45,41
709,701	45,97
710,142	46,38
710,583	47,08
711,024	47,48
711,465	48,1
711,905	48,22
712,346	48,81
712,787	49,38
713,227	49,56
713,667	50,58
714,108	51,3
714,548	50,98
714,988	52,08
715,428	52,05
715,868	52,79
716,307	53,53
716,747	53,2
717,186	54,28
717,626	54
718,065	54,34
718,504	55,33
718,944	55,84
719,383	55,63
719,822	56,09
720,261	57,04
720,699	56,97
721,138	57,41
721,576	57,73
722,015	58,54
722,453	58,58
722,892	58,36
723,33	58,69
723,768	59,29
724,206	59,5
724,644	60,01
725,081	60,23
725,519	60,18
725,957	60,39
726,394	60,91
726,832	60,62
727,269	61,07
727,706	61,35
728,143	61,63
728,58	61,94
729,017	62,01
729,454	62,24
729,89	62,36
730,327	62,42
730,764	62,98
731,2	62,8
731,636	63,08
732,072	62,94
732,509	62,75
732,945	63,04
733,38	63,62
733,816	63,96
734,252	63,35
734,688	63,53
735,123	64,22
735,559	63,56
735,994	63,81
736,429	63,87
736,864	64,18
737,299	63,74
737,734	64,21
738,169	64,93
738,604	64,09
739,038	64,44
739,473	64,48
739,907	65,33
740,342	65,12
740,776	65,07
741,21	64,53
741,644	64,72
742,078	64,94
742,512	64,99
742,946	65,58
743,379	64,99
743,813	65,1
744,246	64,55
744,68	64,86
745,113	65,02
745,546	65,27
745,979	64,88
746,412	65,21
746,845	65,57
747,278	65,04
747,711	65,26
748,143	64,95
748,576	64,97
749,008	65,56
749,441	64,75
749,873	65,14
750,305	64,85
750,737	64,69
751,169	65,22
751,601	64,91
752,032	64,52
752,464	64,57
752,896	64,74
753,327	64,61
753,758	64,93
754,19	64,79
754,621	64,92
755,052	64,68
755,483	64,81
755,914	64,53
756,344	64,16
756,775	64,48
757,206	64,12
757,636	64,49
758,066	64,1
758,497	64,25
758,927	64,42
759,357	64,86
759,787	64,31
760,217	64,16
760,647	64,7
761,076	64,31
761,506	64,43
761,935	64,03
762,365	64,41
762,794	64,26
763,223	64,56
763,653	63,6
764,082	64,38
764,51	63,77
764,939	63,51
765,368	64,1
765,797	64,04
766,225	63,74
766,654	63,83
767,082	63,37
767,51	63,65
767,938	63,47
768,367	63,8
768,795	63,67
769,222	64,36
769,65	63,73
770,078	63,14
770,505	63,52
770,933	63,56
771,36	63,37
771,788	63,21
772,215	63,37
772,642	63,41
773,069	63,53
773,496	63,43
773,923	63,23
774,349	63,17
774,776	63,89
775,203	63,76
775,629	63,14
776,055	63,4
776,482	63,09
776,908	63,65
777,334	63,66
777,76	63,02
778,186	62,91
778,611	62,62
779,037	62,77
779,463	62,58
779,888	63,05
780,314	62,99
780,739	63,72
781,164	63,45
781,589	63,33
782,014	63,23
782,439	63
782,864	62,45
783,289	63,37
783,713	62,56
784,138	62,99
784,562	62,84
784,987	63,87
785,411	62,99
785,835	62,83
786,259	63,11
786,683	63,51
787,107	62,73
787,531	62,91
787,954	62,61
788,378	62,89
788,802	63,47
789,225	62,25
789,648	62,68
790,071	62,45
790,495	62,34
790,918	63,05
791,34	62,73
791,763	62,9
792,186	62,57
792,609	62,33
793,031	62,54
793,454	62,78
793,876	63,08
794,298	62,8
794,721	62,17
795,143	62,91
795,565	62,7
795,986	62,9
796,408	62,94
796,83	62,61
797,252	62,5
797,673	62,15
798,094	62,44
798,516	62,22
798,937	62,41
799,358	63,11
799,779	62,46
800,2	62,58
800,621	62,44
801,042	62,47
801,462	62,24
801,883	62,87
802,303	62,43
802,724	61,97
803,144	63,17
803,564	62,21
803,984	62,37
804,404	62,27
804,824	62,42
805,244	62,19
805,664	62,52
806,084	62,41
806,503	62,54
806,923	62,71
807,342	61,6
807,761	62,5
808,18	62,15
808,599	62,44
809,018	62,68
809,437	62,19
809,856	62,28
810,275	62,51
810,693	62,41
811,112	62,75
811,53	61,45
811,949	62,3
812,367	62,46
812,785	62,55
813,203	61,95
813,621	62,63
814,039	62,58
814,457	62,33
814,874	61,99
815,292	61,82
815,709	61,8
816,127	62,39
816,544	61,84
816,961	62,1
817,378	62,08
817,795	62,87
818,212	62,18
818,629	62,13
819,046	62,56
819,462	62,46
819,879	63,06
820,295	62,71
820,712	62,2
821,128	62,21
821,544	62,66
821,96	62,35
822,376	61,9
822,792	62,11
823,208	62,1
823,624	62,22
824,039	62,54
824,455	62,69
824,87	62,45
825,286	61,95
825,701	62,05
826,116	62,23
826,531	62,41
826,946	62,2
827,361	62,33
827,776	61,9
828,19	61,85
828,605	62,46
829,02	62,45
829,434	61,94
829,848	62,04
830,263	61,93
830,677	62,32
831,091	61,97
831,505	61,73
831,919	62,04
832,332	61,67
832,746	62,3
833,16	61,99
833,573	61,82
833,987	62,37
834,4	62,03
834,813	61,96
835,226	61,56
835,639	61,95
836,052	61,86
836,465	62,02
836,878	62,27
837,29	62,24
837,703	61,88
838,116	61,88
838,528	62
838,94	62,33
839,352	62,04
839,765	62,11
840,177	62,04
840,589	62,13
841	61,98
841,412	61,64
841,824	61,81
842,235	61,94
842,647	61,67
843,058	62,3
843,47	61,77
843,881	61,66
844,292	62,04
844,703	62,2
845,114	61,92
845,525	61,8
845,935	61,95
846,346	62,44
846,757	61,92
847,167	61,85
847,577	61,66
847,988	62,25
848,398	62,14
848,808	62,11
849,218	61,67
849,628	62,25
850,038	62,34
850,448	61,73
850,857	61,33
851,267	61,49
851,676	62,02
852,086	62,37
852,495	62,24
852,904	61,88
853,313	61,9
853,722	61,74
854,131	62,62
854,54	62,11
854,949	61,93
855,357	62,05
855,766	62,27
856,174	61,62
856,583	61,82
856,991	61,73
857,399	61,75
857,807	62,08
858,215	62,01
858,623	62,03
859,031	61,94
859,439	62,05
859,846	61,1
860,254	61,89
860,661	61,97
861,069	62,05
861,476	61,48
861,883	61,94
862,29	61,47
862,697	61,48
863,104	62,28
863,511	61,41
863,918	61,38
864,325	62,39
864,731	61,88
865,138	61,65
865,544	62,09
865,95	61,41
866,357	62,25
866,763	61,8
867,169	61,9
867,575	62,11
867,98	61,27
868,386	61,82
868,792	62,48
869,197	62,09
869,603	61,45
870,008	61,48
870,414	62,06
870,819	61,71
871,224	62,14
871,629	62,02
872,034	62,06
872,439	61,36
872,844	61,89
873,248	62,56
873,653	61,52
874,057	62,1
874,462	61,32
874,866	62,14
875,27	61,99
875,674	61,45
876,078	61,5
876,482	61,82
876,886	61,97
877,29	61,79
877,694	61,64
878,097	61,39
878,501	61,63
878,904	61,9
879,308	61,69
879,711	62,34
880,114	61,62
880,517	61,3
880,92	61,6
881,323	61,45
881,726	61,71
882,128	61,6
882,531	62,33
882,934	61,4
883,336	61,79
883,738	61,39
884,141	61,84
884,543	61,83
884,945	61,36
885,347	61,61
885,749	61,43
886,151	61,53
886,552	61,8
886,954	61,62
887,355	61,29
887,757	61,58
888,158	61,76
888,56	61,52
888,961	61,71
889,362	61,42
889,763	62
890,164	61,96
890,565	62,33
890,965	62,17
891,366	61,59
891,767	61,66
892,167	61,69
892,567	62,03
892,968	61,47
893,368	61,48
893,768	61,67
894,168	61,86
894,568	61,67
894,968	62,1
895,368	61,5
895,767	61,74
896,167	61,52
896,566	62
896,966	61,66
897,365	61,68
897,764	61,88
898,164	61,82
898,563	61,86
898,962	61,7
899,361	61,97
899,759	61,46
900,158	61,16
900,557	62,03
900,955	62,16
901,354	61,52
901,752	62,31
902,15	62,19
902,548	61,8
902,947	61,65
903,345	61,54
903,742	62,27
904,14	61,59
904,538	61,7
904,936	61,34
905,333	62,63
905,731	61,89
906,128	61,81
906,525	61,98
906,923	62,41
907,32	61,72
907,717	61,8
908,114	62,11
908,511	62,35
908,907	61,5
909,304	62,02
909,701	61,75
910,097	62,1
910,494	61,88
910,89	62,33
911,286	62,13
911,682	62,2
912,078	61,62
912,474	61,08
912,87	61,73
913,266	61,7
913,662	61,72
914,058	61,69
914,453	62,15
914,849	61,5
915,244	61,75
915,639	61,34
916,034	62,41
916,43	62,27
916,825	62,03
917,22	61,37
917,614	61,7
918,009	61,52
918,404	62,01
918,798	62,57
919,193	62,16
919,587	62,25
919,982	61,69
920,376	62,28
920,77	61,82
921,164	61,73
921,558	62,4
921,952	61,79
922,346	61,11
922,74	61,73
923,133	61,47
923,527	61,6
923,92	61,85
924,314	61,66
924,707	62,16
925,1	61,3
925,493	61,67
925,886	61,68
926,279	62,03
926,672	60,78
927,065	61,47
927,457	61,98
927,85	61,19
928,243	61,82
928,635	61,36
929,027	61,29
929,42	61,9
929,812	61,42
930,204	61,6
930,596	61,71
930,988	61,21
931,379	61,32
931,771	61,67
932,163	61,71
932,554	61,05
932,946	61,29
933,337	61,19
933,729	61,22
934,12	61,71
934,511	61,49
934,902	60,58
935,293	61,01
935,684	61,89
936,075	60,7
936,465	61,24
936,856	60,89
937,246	62,05
937,637	60,95
938,027	60,66
938,417	61,19
938,808	62
939,198	60,48
939,588	61,85
939,978	60,28
940,368	61,86
940,757	62,47
941,147	61,14
941,537	60,85
941,926	60,88
942,315	61,73
942,705	61,92
943,094	62,71
943,483	60,01
943,872	61,12
944,261	61,42
944,65	60
945,039	62,47
945,428	61,76
945,816	62,07
946,205	61,94
946,593	61,17
946,982	61,52
947,37	60,78
947,758	60,98
948,146	60,45
948,534	60,5
948,922	61,89
949,31	60,81
949,698	60,89
950,086	61,31
950,473	61,61
950,861	62,1
951,248	60,4
951,636	60,22
952,023	60,93
952,41	60,88
952,797	60,41
953,184	60,68
953,571	61,12
953,958	60,24
954,345	61,04
954,731	60,73
955,118	61,2
955,505	59,83
955,891	60,44
956,277	59,25
956,664	60,73
957,05	60,53
957,436	59,9
957,822	59,67
958,208	60,01
958,594	59,91
958,979	59,78
959,365	60,05
959,751	60,06
960,136	60,01
960,522	60,1
960,907	59,99
961,292	59,87
961,677	59,79
962,062	60,04
962,447	60,53
962,832	59,21
963,217	59,48
963,602	59,83
963,986	59,25
964,371	58,86
964,756	59,35
965,14	59,82
965,524	59,56
965,908	59,85
966,293	59,63
966,677	60,19
967,061	60,33
967,445	59,66
967,828	59,84
968,212	59,62
968,596	59,69
968,979	60,06
969,363	59,1
969,746	59,68
970,129	60,67
970,513	59,8
970,896	59,81
971,279	59,31
971,662	60,01
972,045	60,12
972,428	59,2
972,81	60,54
973,193	59,72
973,575	60,16
973,958	59,37
974,34	59,73
974,723	59,36
975,105	60,04
975,487	60,48
975,869	60,52
976,251	59,85
976,633	60,31
977,015	59,86
977,396	59,75
977,778	60,01
978,16	60,11
978,541	60,16
978,922	59,77
979,304	60,24
979,685	59,3
980,066	60,4
980,447	60,24
980,828	59,74
981,209	60,44
981,59	59,17
981,97	59,98
982,351	60,25
982,732	59,63
983,112	60,24
983,493	58,81
983,873	59,47
984,253	60,02
984,633	59,48
985,013	60,15
985,393	60,1
985,773	60,25
986,153	59,41
986,533	59,96
986,912	60,29
987,292	59,13
987,671	59,73
988,051	60,29
988,43	60,66
988,809	59,56
989,188	59,74
989,567	59,85
989,946	59,67
990,325	59,18
990,704	59,63
991,083	59,9
991,461	60,27
991,84	59,75
992,218	60,42
992,597	61,38
992,975	60,12
993,353	60,84
993,732	60,34
994,11	60,51
994,488	59,74
994,866	60,07
995,243	60,14
995,621	61,1
995,999	59,81
996,376	60,46
996,754	60,6
997,131	61,51
997,509	60,8
997,886	60,94
998,263	60,8
998,64	60,93
999,017	60,32
999,394	60,38
999,771	60,34
1000,148	60,23
1000,524	59,82
1000,901	60,62
1001,277	60,2
1001,654	60,6
1002,03	60
1002,406	60,17
1002,783	60,39
1003,159	60,89
1003,535	60,59
1003,911	60,12
1004,286	60,2
1004,662	60,24
1005,038	61,1
1005,414	59,45
1005,789	60,54
1006,164	60,64
1006,54	59,69
1006,915	60,72
1007,29	59,79
1007,665	61,1
1008,04	61,51
1008,415	61,37
1008,79	60,5
1009,165	60,96
1009,54	60,51
1009,914	59,61
1010,289	61,35
1010,663	60,73
1011,038	62,22
1011,412	61,91
1011,786	62,21
1012,16	59,99
1012,535	61,53
1012,909	61,12
1013,282	61,13
1013,656	60,92
1014,03	60,15
1014,404	60,75
1014,777	60,77
1015,151	60,82
1015,524	60,06
1015,897	61,11
1016,271	60,81
1016,644	59,81
1017,017	61,73
1017,39	61,27
1017,763	60,32
1018,136	61,85
1018,508	60,71
1018,881	61,33
1019,254	60,44
1019,626	61,7
1019,999	60,42
1020,371	61,88
1020,743	60,43
1021,116	59,56
1021,488	60,85
1021,86	61,15
1022,232	61,89
1022,604	60,29
1022,975	61
1023,347	61,21
1023,719	60,4
1024,09	61,16
1024,462	61,05
1024,833	61,13
1025,204	61,86
1025,576	60,77
1025,947	61,09
1026,318	61,31
1026,689	63,05
1027,06	61,49
1027,431	62,37
1027,801	60,63
1028,172	61,29
1028,543	60,31
1028,913	60,76
1029,284	60,03
1029,654	61,84
1030,024	62,13
1030,394	62,46
1030,764	61,99
1031,135	60,4
1031,504	62,44
1031,874	61,27
1032,244	61,15
1032,614	60,3
1032,983	62,06
1033,353	61,22
1033,722	61,54
1034,092	62,2
1034,461	62,22
1034,83	61,56
1035,2	61,14
1035,569	60,16
1035,938	62,13
1036,307	62,11
1036,675	61,95
1037,044	61,3
1037,413	61,95
1037,781	62,93
1038,15	61,75
1038,518	60,83
1038,887	62,05
1039,255	60,79
1039,623	60,83
1039,991	59,83
1040,359	61,67
1040,727	63,03
1041,095	61,18
1041,463	62,24
1041,831	60,99
1042,198	63,6
1042,566	61,62
1042,933	61,96
1043,301	63,34
1043,668	61,64
1044,035	60,78
1044,402	62,07
1044,77	62,26
1045,137	61,58
1045,503	62,4
1045,87	62
1046,237	62,07
1046,604	62,03
1046,97	61,87
1047,337	61,77
1047,703	62,46
1048,07	60,81
1048,436	61,8
1048,802	61,38
1049,168	61,98
1049,534	64,92
1049,9	63,7
1050,266	61,36
1050,632	63,7
1050,998	64,16
1051,364	62,73
1051,729	62,48
1052,095	63,24
1052,46	62,46
1052,825	63,27
1053,191	61,42
1053,556	61,98
1053,921	63,29
1054,286	62,6
1054,651	64,03
1055,016	63,44
1055,381	62,57
1055,745	63,17
1056,11	60,75
1056,475	64,38
1056,839	61,5
1057,203	60,52
1057,568	62,53
1057,932	61,92
1058,296	62,71
1058,66	62,46
1059,024	63,18
1059,388	64,58
1059,752	62,45
1060,116	60,88
1060,48	62,57
1060,843	63,08
1061,207	65,31
1061,57	62,3
1061,934	61,53
1062,297	62,68
1062,66	62,05
1063,023	64,37
1063,386	62,41
1063,749	63,42
1064,112	63,62
1064,475	64,16
1064,838	63,57
1065,201	64,69
1065,563	62,28
1065,926	65,55
1066,288	61,92
1066,651	60,83
1067,013	62,8
1067,375	63,28
1067,737	63,19
1068,099	61,06
1068,461	63,78
1068,823	63,53
1069,185	62,56
1069,547	62,34
1069,909	63,17
1070,27	64,63
1070,632	62,71
1070,993	64,11
1071,355	63,05
1071,716	62,9
1072,077	63,81
1072,438	63,19
1072,799	62,42
1073,16	61,7
1073,521	62,76
1073,882	62,54
1074,243	64,91
1074,603	64,67
1074,964	63,21
1075,325	65,66
1075,685	63,11
1076,045	61,83
1076,406	64,02
1076,766	65,09
1077,126	63,01
1077,486	62,89
1077,846	63,94
1078,206	62,83
1078,566	65,51
1078,925	65,03
1079,285	63,01
1079,645	63,87
1080,004	63,67
1080,364	65,37
1080,723	62,45
1081,082	64,24
1081,442	62
1081,801	66,21
1082,16	65,48
1082,519	66,9
1082,878	65,04
1083,237	64,55
1083,595	63,97
1083,954	68,09
1084,313	67,14
1084,671	67,65
1085,03	62,4
1085,388	65,05
1085,746	63,53
1086,104	65,82
1086,463	66,03
1086,821	63,58
1087,179	66,6
1087,537	66,02
1087,894	63,03
1088,252	62,06
1088,61	63,19
1088,967	63,13
1089,325	62,91
1089,682	66,5
1090,04	66,16
1090,397	64,21
1090,754	62,53
1091,111	64,43
1091,469	64,82
1091,826	65,32
1092,182	64,05
1092,539	65,84
1092,896	63,66
1093,253	65,44
1093,609	63,2
1093,966	68,19
1094,322	66,85
1094,679	66,82
1095,035	65,81
1095,391	63,22
1095,748	67,79
1096,104	64,49
1096,46	63,7
1096,816	64,34
1097,171	64,01
1097,527	61,91
1097,883	64,91
1098,239	64,36
1098,594	63,74
1098,95	64,18
1099,305	66,64
1099,66	62,69
1100,016	62,5
1100,371	69,25
1100,726	61,61
1101,081	66,2
1101,436	65,62
1101,791	66,44
1102,146	67,44
1102,5	67,02
1102,855	66,9
1103,21	71,12
1103,564	64,41
1103,918	70,46
1104,273	66,67
1104,627	65,62
1104,981	69,87
1105,335	63,46
1105,69	64,64
1106,043	63,28
1106,397	64,29
1106,751	66,13
1107,105	64,76
1107,459	69,61
1107,812	65,62
1108,166	60,81
1108,519	66,83
1108,873	69,13
1109,226	70,8
1109,579	67,75
1109,932	65,18
1110,285	71,18
1110,638	69,81
1110,991	66,71
1111,344	63,25
1111,697	64,48
1112,05	73,93
1112,402	69,08
1112,755	66,46
1113,107	70,56
1113,46	68,52
1113,812	70,3
1114,164	69,52
1114,517	69,98
1114,869	152,11
1115,221	118,67
1115,573	94,44
1115,924	115,66
