Data from C_4_Relative__6__00049.txt Node

Date: Tue Jan 30 09:53:45 CET 2024
User: diatiterra
Spectrometer: HDX00911
Trigger mode: 0
Integration Time (sec): 6,000000E-3
Scans to average: 2
Nonlinearity correction enabled: false
Boxcar width: 0
Storing dark spectrum: false
XAxis mode: Wavelengths
Number of Pixels in Spectrum: 2068
>>>>>Begin Spectral Data<<<<<
194,468	108,7
195,025	104,49
195,581	100
196,138	107,87
196,694	85,81
197,251	104,48
197,807	77,27
198,363	85,98
198,919	87,5
199,474	98,1
200,03	77,09
200,586	84,18
201,141	76,88
201,696	80,77
202,251	94,53
202,806	89,93
203,361	79,14
203,916	89,81
204,471	97,44
205,025	91,78
205,58	82,64
206,134	80,75
206,688	88,36
207,242	76,43
207,796	82,63
208,35	79,38
208,904	87,2
209,457	86,05
210,011	79,27
210,564	82,19
211,117	86,75
211,67	88,16
212,223	88,16
212,776	87,13
213,329	91,62
213,881	90,54
214,434	88,41
214,986	81,53
215,538	94,12
216,09	91,02
216,642	101,96
217,194	91,45
217,746	87,34
218,297	92,95
218,849	90,3
219,4	84,57
219,951	92,26
220,502	93,82
221,053	86,98
221,604	95,29
222,155	95,17
222,705	95,36
223,256	89,71
223,806	90,85
224,356	96,9
224,906	91,36
225,456	69,51
226,006	75,45
226,556	90,6
227,106	101,47
227,655	85,61
228,204	87,18
228,754	75,29
229,303	91,28
229,852	90,51
230,401	85,53
230,949	94,08
231,498	85,51
232,047	89,02
232,595	79,89
233,143	80,7
233,691	87,76
234,239	90,11
234,787	72,67
235,335	83,94
235,883	95,86
236,43	94,87
236,978	83,65
237,525	90,12
238,072	93,43
238,619	80,15
239,166	73,68
239,713	83,23
240,26	84,24
240,806	89,8
241,353	78,24
241,899	84,57
242,445	83,33
242,991	85,21
243,537	82
244,083	81,58
244,629	76,03
245,174	92,07
245,72	76,06
246,265	75,16
246,81	90,45
247,355	95,32
247,9	83,93
248,445	106,2
248,99	94,89
249,534	76,36
250,079	94,74
250,623	86,45
251,168	87,57
251,712	79,26
252,256	87,79
252,8	94,12
253,343	85,55
253,887	76,63
254,43	86,02
254,974	111,68
255,517	85,29
256,06	95,9
256,603	86,59
257,146	106,04
257,689	80,26
258,232	97,71
258,774	97,54
259,317	103,55
259,859	79,31
260,401	84,43
260,943	79,47
261,485	97,41
262,027	92,72
262,569	79,19
263,11	83,1
263,652	78,62
264,193	71,83
264,734	86,21
265,275	96,6
265,816	81,16
266,357	91,49
266,898	95,54
267,438	88,39
267,979	93,08
268,519	73,97
269,059	97,62
269,6	86,45
270,14	92,81
270,68	95,14
271,219	93,29
271,759	94,53
272,298	79,63
272,838	94,9
273,377	89,12
273,916	91,88
274,455	87,5
274,994	89,71
275,533	79,76
276,072	90,07
276,61	77,71
277,149	89,44
277,687	83,03
278,225	93,39
278,763	111,45
279,301	85,09
279,839	96,13
280,377	79,41
280,914	98,44
281,452	74,69
281,989	84,94
282,526	86,79
283,064	97,92
283,601	83,72
284,137	89,05
284,674	88,96
285,211	86,61
285,747	84,43
286,284	90,12
286,82	95,83
287,356	91,11
287,892	79,47
288,428	94,41
288,964	92,45
289,5	90,98
290,035	109,52
290,571	101,86
291,106	135,71
291,641	99,17
292,176	93,1
292,711	80,82
293,246	100,73
293,781	97,01
294,315	85,48
294,85	91,89
295,384	99,17
295,918	71,51
296,453	84,18
296,987	119,64
297,52	86,13
298,054	82,55
298,588	107,69
299,121	93,7
299,655	84,83
300,188	89,86
300,721	90,48
301,254	88,73
301,787	117,09
302,32	94,74
302,853	85,47
303,385	96,77
303,918	95,73
304,45	76,87
304,982	88,16
305,514	80,38
306,046	93,66
306,578	103,65
307,11	90,53
307,641	82,58
308,173	92,5
308,704	89,5
309,236	87,01
309,767	86,9
310,298	83,43
310,829	96,67
311,359	86,96
311,89	92,57
312,421	81,56
312,951	74,84
313,481	92,14
314,012	90,3
314,542	94,31
315,072	82,39
315,601	94,29
316,131	104,48
316,661	85,98
317,19	87,5
317,72	82,31
318,249	87,97
318,778	91,12
319,307	89,87
319,836	80
320,365	101,36
320,893	94,83
321,422	95,56
321,95	82,21
322,479	99,28
323,007	93,38
323,535	83,61
324,063	106,54
324,591	98,74
325,118	84,92
325,646	95,59
326,173	103,88
326,701	89,33
327,228	78,95
327,755	80,74
328,282	90,91
328,809	89,31
329,336	91,25
329,862	100,56
330,389	76,83
330,915	81,05
331,441	86,56
331,968	84,67
332,494	77,48
333,02	75
333,545	68,52
334,071	67,53
334,597	88,31
335,122	81,56
335,648	78,61
336,173	91,72
336,698	86
337,223	79,14
337,748	81,29
338,272	84,47
338,797	84
339,322	91,88
339,846	75,74
340,37	78,85
340,894	81,65
341,419	87,67
341,942	75,94
342,466	78,23
342,99	83,54
343,514	78,14
344,037	74,43
344,56	76,27
345,084	76,88
345,607	71,27
346,13	73,74
346,653	74,83
347,175	60,34
347,698	84,24
348,221	85
348,743	81,31
349,265	82,18
349,787	65,37
350,309	71,28
350,831	72,68
351,353	75,61
351,875	81,08
352,397	71,56
352,918	69,85
353,439	87,58
353,961	60,4
354,482	77,94
355,003	71,56
355,524	65,02
356,044	73,2
356,565	69,67
357,086	63,47
357,606	67,54
358,126	75
358,646	61,84
359,167	80,28
359,687	56,89
360,206	73,62
360,726	68,4
361,246	71,66
361,765	73,71
362,285	72,73
362,804	69,12
363,323	64,66
363,842	67,12
364,361	67,97
364,88	69,11
365,398	77
365,917	71,95
366,435	66,4
366,954	62,5
367,472	63,89
367,99	61,22
368,508	60,61
369,026	58,9
369,544	58,04
370,061	60,35
370,579	62,31
371,096	63,57
371,613	59,34
372,131	63,48
372,648	69,1
373,165	64,44
373,681	62,07
374,198	61,95
374,715	66,91
375,231	68,01
375,747	66
376,264	59,31
376,78	61,61
377,296	64,9
377,812	53,47
378,327	62,06
378,843	56,76
379,359	54,93
379,874	57,07
380,389	57,88
380,905	68,47
381,42	56
381,935	61,58
382,449	57,31
382,964	60,3
383,479	54,55
383,993	55,61
384,508	49,51
385,022	52,5
385,536	55,53
386,05	52,21
386,564	49,77
387,078	53,25
387,592	53,24
388,105	48,86
388,619	49,28
389,132	47,21
389,645	44,16
390,158	55,22
390,671	50,09
391,184	47,76
391,697	48,12
392,21	45,18
392,722	45,23
393,235	49,67
393,747	48,13
394,259	44,23
394,771	45,62
395,283	47,22
395,795	44,27
396,307	45,2
396,818	46
397,33	45,5
397,841	41,42
398,353	45,12
398,864	43,17
399,375	42,49
399,886	35,18
400,397	41,97
400,907	36,55
401,418	39,41
401,928	34,74
402,439	39,62
402,949	33,85
403,459	36,7
403,969	32,95
404,479	36
404,989	32,48
405,498	30,67
406,008	31,37
406,517	32,88
407,027	30,77
407,536	29,99
408,045	29,79
408,554	27,98
409,063	27,46
409,572	23,51
410,08	26,24
410,589	24,12
411,097	22,32
411,606	24,48
412,114	20,25
412,622	20,57
413,13	21,21
413,638	21,33
414,145	20,22
414,653	18,57
415,16	19,14
415,668	19,57
416,175	17,3
416,682	17
417,189	17,72
417,696	17,13
418,203	17,42
418,71	17,34
419,216	16,26
419,723	15,7
420,229	16,16
420,735	15,4
421,242	16,58
421,748	16,08
422,254	17,25
422,759	15,21
423,265	14,83
423,771	15,19
424,276	14,42
424,781	14,49
425,287	14,43
425,792	14,91
426,297	14
426,802	15,62
427,306	14,54
427,811	13,92
428,316	13,99
428,82	12,79
429,324	13,19
429,829	13,61
430,333	14,87
430,837	13,67
431,34	13,44
431,844	13,17
432,348	14,19
432,851	14,05
433,355	12,68
433,858	13,5
434,361	14,01
434,864	12,93
435,367	14
435,87	12,97
436,373	13,64
436,876	13,99
437,378	12,64
437,88	12,36
438,383	13,25
438,885	12,59
439,387	12,91
439,889	12,72
440,391	12,73
440,892	12,93
441,394	13,94
441,896	12,89
442,397	13,02
442,898	12,82
443,399	14,07
443,9	12,84
444,401	12,83
444,902	13,74
445,403	12,83
445,903	13,36
446,404	14,03
446,904	13,87
447,405	13,59
447,905	13,34
448,405	13,91
448,905	13,68
449,404	13,5
449,904	14,22
450,404	14,54
450,903	13,27
451,403	13,62
451,902	13,85
452,401	13,86
452,9	14,52
453,399	14,11
453,898	14,1
454,396	14,45
454,895	14,64
455,393	14,89
455,892	14,97
456,39	13,81
456,888	14,61
457,386	15,1
457,884	14,71
458,382	14,42
458,879	15,27
459,377	14,39
459,874	14,69
460,372	15,27
460,869	14,62
461,366	14,37
461,863	14,85
462,36	14,04
462,857	14,46
463,353	15,07
463,85	14,49
464,346	14,84
464,843	14,91
465,339	14,42
465,835	14,6
466,331	14,55
466,827	13,99
467,323	14,86
467,818	15,14
468,314	14,34
468,809	14,58
469,305	14,7
469,8	14,37
470,295	14,69
470,79	14,61
471,285	14,79
471,78	14,55
472,274	14,26
472,769	14,66
473,263	14,1
473,758	14,87
474,252	14,25
474,746	15,01
475,24	14,39
475,734	14,87
476,228	14,71
476,721	14,72
477,215	15,08
477,708	14,38
478,202	15,11
478,695	14,78
479,188	14,89
479,681	14,4
480,174	14,73
480,667	15,06
481,159	14,84
481,652	15,15
482,144	14,7
482,637	14,79
483,129	14,72
483,621	15,14
484,113	14,67
484,605	14,81
485,097	14,91
485,588	14,53
486,08	15,1
486,571	14,51
487,063	15,84
487,554	15,01
488,045	15,58
488,536	15,46
489,027	15,52
489,518	15,77
490,008	15,42
490,499	16,07
490,989	16,32
491,48	15,42
491,97	16,11
492,46	16,15
492,95	16,23
493,44	16,93
493,93	16,38
494,419	16,89
494,909	16,33
495,398	16,77
495,888	17,04
496,377	16,84
496,866	17,57
497,355	17,56
497,844	17,79
498,333	17,9
498,821	18,29
499,31	19,27
499,798	18,86
500,287	18,38
500,775	18,98
501,263	19,91
501,751	19,7
502,239	20,44
502,727	20,14
503,215	20,21
503,702	20,4
504,19	21,27
504,677	21,81
505,164	22,1
505,651	21,95
506,139	22,17
506,625	22,6
507,112	22,8
507,599	23,07
508,086	23,99
508,572	24,18
509,058	24,39
509,545	24,86
510,031	25,13
510,517	26,04
511,003	25,97
511,489	26,01
511,974	26,35
512,46	27,14
512,946	27,37
513,431	27,1
513,916	28,58
514,401	28,26
514,887	29,18
515,371	29,6
515,856	29,69
516,341	30,82
516,826	31,94
517,31	30,68
517,795	31,58
518,279	32,08
518,763	33,84
519,247	33,51
519,731	34,07
520,215	33,61
520,699	34,87
521,182	35,07
521,666	35,54
522,149	36,77
522,633	36,88
523,116	37,07
523,599	37,2
524,082	37,75
524,565	38,31
525,048	38,89
525,53	38,92
526,013	39,51
526,495	39,84
526,978	40,99
527,46	40,63
527,942	40,48
528,424	41,46
528,906	41,3
529,388	41,63
529,87	41,92
530,351	42,34
530,833	43,01
531,314	43,1
531,795	43,73
532,277	42,41
532,758	42,76
533,238	44,11
533,719	44,1
534,2	44,03
534,681	44,04
535,161	44,31
535,642	44,11
536,122	44,14
536,602	44,59
537,082	44,27
537,562	44,58
538,042	44,5
538,522	44,49
539,001	44,64
539,481	44,94
539,96	45
540,44	45,24
540,919	45,76
541,398	45,62
541,877	45,97
542,356	45,79
542,835	45,42
543,313	45,36
543,792	46,69
544,27	45,42
544,749	46,34
545,227	45,19
545,705	45,79
546,183	46
546,661	46,2
547,139	45,52
547,616	45,93
548,094	46,4
548,571	46,15
549,049	46,32
549,526	46,48
550,003	46,33
550,48	46,38
550,957	46,13
551,434	46,65
551,911	46,51
552,387	46,02
552,864	45,97
553,34	46,44
553,817	46,51
554,293	45,52
554,769	47,65
555,245	46,64
555,721	45,83
556,197	46,7
556,672	46,73
557,148	46,68
557,623	46,67
558,099	46,05
558,574	46,54
559,049	46,23
559,524	45,83
559,999	45,93
560,474	46,08
560,948	45,48
561,423	46,71
561,897	45,89
562,372	45,71
562,846	45,64
563,32	45,59
563,794	44,91
564,268	45,28
564,742	45,05
565,216	44,56
565,69	44,81
566,163	44,01
566,636	44,79
567,11	44,5
567,583	43,51
568,056	43,71
568,529	43,49
569,002	43,3
569,475	43,34
569,947	43
570,42	42,92
570,892	41,81
571,365	41,92
571,837	42,04
572,309	41,29
572,781	42,17
573,253	40,84
573,725	40,83
574,197	40,58
574,668	40,73
575,14	41,01
575,611	40,64
576,082	40,45
576,554	39,99
577,025	40,04
577,496	39,44
577,967	39,48
578,437	38,75
578,908	39
579,379	38,94
579,849	37,96
580,319	38,85
580,79	38,29
581,26	38
581,73	37,77
582,2	37,32
582,669	37,54
583,139	36,83
583,609	37,17
584,078	37,1
584,548	36,69
585,017	37,09
585,486	36,35
585,955	36,61
586,424	36,13
586,893	35,88
587,362	35,81
587,83	35,92
588,299	35,56
588,767	35,59
589,236	35,26
589,704	35,68
590,172	35,12
590,64	35,51
591,108	34,88
591,576	35,36
592,043	34,87
592,511	35,26
592,978	34,66
593,446	34,52
593,913	34,28
594,38	34,94
594,847	34,24
595,314	34,69
595,781	34,88
596,248	34,59
596,715	34,17
597,181	33,75
597,647	34,16
598,114	34,27
598,58	34,22
599,046	34,13
599,512	34,22
599,978	34,2
600,444	34,04
600,91	33,17
601,375	33,72
601,841	33,31
602,306	33,66
602,771	33,46
603,236	33,07
603,702	33,42
604,167	32,96
604,631	33,4
605,096	32,74
605,561	32,61
606,025	32,89
606,49	32,44
606,954	32,79
607,418	32,24
607,882	32,65
608,347	32,03
608,81	32,14
609,274	31,9
609,738	32,05
610,202	31,25
610,665	31,27
611,128	31,76
611,592	31,03
612,055	30,97
612,518	31,12
612,981	30,82
613,444	30,63
613,907	30,52
614,369	29,94
614,832	30,11
615,294	30,43
615,757	29,71
616,219	30,1
616,681	29,51
617,143	29,29
617,605	29,31
618,067	28,85
618,529	29,23
618,99	29,15
619,452	28,55
619,913	28,78
620,375	28,54
620,836	28,86
621,297	28,64
621,758	28,3
622,219	28,04
622,68	28,2
623,14	28,41
623,601	28,18
624,061	28,04
624,522	27,94
624,982	27,62
625,442	27,79
625,902	27,7
626,362	27,5
626,822	27,52
627,282	28,24
627,742	27,63
628,201	27,81
628,661	27,59
629,12	27,52
629,579	27,46
630,038	27,56
630,497	27,21
630,956	27,24
631,415	27,38
631,874	27,55
632,332	27,63
632,791	27
633,249	26,87
633,708	27,29
634,166	27,06
634,624	26,24
635,082	26,88
635,54	26,66
635,998	26,61
636,455	26,4
636,913	26,67
637,37	26,55
637,828	25,88
638,285	26,23
638,742	25,75
639,199	25,32
639,656	25,59
640,113	25,14
640,57	25,06
641,027	24,72
641,483	24,68
641,94	24,66
642,396	24,1
642,852	24,16
643,309	23,92
643,765	23,71
644,221	23,34
644,676	23,11
645,132	22,71
645,588	22,86
646,043	22,72
646,499	22,24
646,954	21,99
647,409	21,95
647,864	21,68
648,319	21,25
648,774	21,25
649,229	21,15
649,684	21,18
650,139	20,84
650,593	21
651,047	20,62
651,502	20,22
651,956	20,61
652,41	20,48
652,864	20,36
653,318	19,89
653,772	20
654,225	19,83
654,679	19,59
655,133	19,57
655,586	19,39
656,039	19,42
656,492	19,39
656,946	19,13
657,399	19,05
657,851	19,14
658,304	18,74
658,757	18,22
659,209	18,35
659,662	18,1
660,114	17,63
660,567	17,39
661,019	17,29
661,471	17,2
661,923	16,84
662,375	16,79
662,826	16,75
663,278	16,23
663,73	16,25
664,181	16,04
664,632	15,88
665,084	15,79
665,535	15,67
665,986	15,55
666,437	15,53
666,888	15,37
667,338	15,31
667,789	15,11
668,24	15,14
668,69	14,82
669,14	14,76
669,591	14,74
670,041	14,55
670,491	14,7
670,941	14,5
671,391	14,58
671,84	14,57
672,29	14,83
672,74	14,56
673,189	14,56
673,638	14,74
674,088	14,68
674,537	14,85
674,986	14,73
675,435	14,83
675,883	14,92
676,332	14,92
676,781	15,19
677,229	15,48
677,678	15,69
678,126	15,39
678,574	15,65
679,022	15,94
679,47	16,03
679,918	16,1
680,366	16,17
680,814	16,23
681,261	16,43
681,709	16,77
682,156	16,99
682,604	17,17
683,051	17,38
683,498	17,72
683,945	18,38
684,392	18,4
684,839	18,62
685,286	18,81
685,732	19,61
686,179	19,7
686,625	20,04
687,071	20,44
687,518	20,91
687,964	21,49
688,41	22,03
688,856	22,46
689,301	23,21
689,747	23,78
690,193	24,57
690,638	25,14
691,084	26,13
691,529	26,35
691,974	27,36
692,419	27,68
692,864	28,71
693,309	29,33
693,754	30,17
694,199	30,86
694,643	31,94
695,088	32,76
695,532	33,82
695,977	34,02
696,421	34,76
696,865	35,99
697,309	36,68
697,753	37,35
698,197	38,12
698,64	39
699,084	39,18
699,527	40,14
699,971	40,74
700,414	41,77
700,857	41,8
701,3	42,61
701,743	43,36
702,186	44,01
702,629	44,58
703,072	45,31
703,515	45,43
703,957	46,41
704,399	47,27
704,842	47,82
705,284	48,18
705,726	48,29
706,168	49,09
706,61	48,97
707,052	50,16
707,494	50,4
707,935	50,86
708,377	51,31
708,818	51,81
709,26	52,22
709,701	52,79
710,142	53,07
710,583	53,27
711,024	53,75
711,465	54,11
711,905	54,5
712,346	54,72
712,787	54,96
713,227	55,42
713,667	56,19
714,108	56,3
714,548	56,16
714,988	56,94
715,428	57,29
715,868	57,9
716,307	58,01
716,747	57,96
717,186	58,68
717,626	58,49
718,065	58,79
718,504	59,56
718,944	59,92
719,383	59,77
719,822	59,23
720,261	60,36
720,699	60,71
721,138	60,49
721,576	60,84
722,015	61,01
722,453	61,13
722,892	61,15
723,33	61,55
723,768	61,99
724,206	61,75
724,644	62,34
725,081	62,51
725,519	62,04
725,957	62,57
726,394	62,63
726,832	62,67
727,269	62,92
727,706	63,19
728,143	62,96
728,58	63,65
729,017	63,72
729,454	63,72
729,89	63,67
730,327	63,56
730,764	64,49
731,2	63,91
731,636	64,04
732,072	64,09
732,509	63,95
732,945	64,93
733,38	64,1
733,816	64,49
734,252	64,66
734,688	64,86
735,123	65,08
735,559	64,27
735,994	64,94
736,429	64,73
736,864	64,71
737,299	65,07
737,734	64,77
738,169	64,91
738,604	65,26
739,038	65,08
739,473	64,77
739,907	65,5
740,342	64,49
740,776	65,01
741,21	64,56
741,644	65,44
742,078	65,22
742,512	65,29
742,946	65,03
743,379	65,1
743,813	65,08
744,246	64,79
744,68	65,21
745,113	65,27
745,546	65,41
745,979	64,76
746,412	65,17
746,845	65,13
747,278	65,11
747,711	65,06
748,143	64,97
748,576	64,88
749,008	65,57
749,441	65,12
749,873	64,55
750,305	64,5
750,737	64,43
751,169	64,93
751,601	64,42
752,032	64,27
752,464	64,73
752,896	64,38
753,327	64,36
753,758	64,31
754,19	64,46
754,621	64,17
755,052	64,37
755,483	64,15
755,914	64,11
756,344	64,2
756,775	64,21
757,206	64,14
757,636	63,97
758,066	63,96
758,497	63,83
758,927	63,79
759,357	64,18
759,787	63,39
760,217	63,65
760,647	63,95
761,076	64,01
761,506	63,62
761,935	63,11
762,365	64,17
762,794	64,11
763,223	63,74
763,653	62,88
764,082	63,78
764,51	63,63
764,939	63,02
765,368	63,41
765,797	63,4
766,225	63,08
766,654	63,16
767,082	63,4
767,51	63,13
767,938	63,2
768,367	62,91
768,795	63,25
769,222	63,34
769,65	62,89
770,078	63,08
770,505	63,22
770,933	63,29
771,36	62,91
771,788	62,6
772,215	62,74
772,642	62,48
773,069	62,92
773,496	62,77
773,923	62,49
774,349	62,57
774,776	63,22
775,203	62,17
775,629	62,8
776,055	62,57
776,482	62,69
776,908	62,9
777,334	63,33
777,76	61,91
778,186	62,43
778,611	62,21
779,037	61,75
779,463	62,09
779,888	62,43
780,314	63,01
780,739	62,73
781,164	62,66
781,589	62,33
782,014	62,64
782,439	62,4
782,864	62
783,289	62,28
783,713	61,81
784,138	62,34
784,562	62,44
784,987	62,38
785,411	62,17
785,835	62,51
786,259	62,38
786,683	62,35
787,107	62,18
787,531	61,63
787,954	61,99
788,378	62,12
788,802	62,65
789,225	62,12
789,648	61,86
790,071	62,08
790,495	61,29
790,918	62,32
791,34	62,41
791,763	62,18
792,186	62,41
792,609	61,58
793,031	61,97
793,454	61,82
793,876	62,14
794,298	61,77
794,721	61,17
795,143	61,81
795,565	62,06
795,986	62,01
796,408	62,2
796,83	62,4
797,252	62,16
797,673	61,78
798,094	61,99
798,516	62,09
798,937	62
799,358	61,75
799,779	61,59
800,2	61,57
800,621	61,41
801,042	62,04
801,462	61,44
801,883	61,34
802,303	61,84
802,724	61,5
803,144	61,72
803,564	61,97
803,984	61,21
804,404	61,95
804,824	61,6
805,244	61,61
805,664	61,43
806,084	61,62
806,503	61,3
806,923	62,15
807,342	60,9
807,761	61,64
808,18	61,67
808,599	61,38
809,018	61,95
809,437	61,44
809,856	61,91
810,275	61,43
810,693	61,71
811,112	61,83
811,53	61,43
811,949	61,53
812,367	61,48
812,785	61,55
813,203	61,47
813,621	61,21
814,039	61,41
814,457	61,85
814,874	61,47
815,292	61,61
815,709	61,56
816,127	61,58
816,544	61,42
816,961	61,51
817,378	61,41
817,795	61,74
818,212	61,85
818,629	61,32
819,046	61,29
819,462	61,56
819,879	61,96
820,295	61,86
820,712	61,04
821,128	61,05
821,544	61,81
821,96	61,27
822,376	61,07
822,792	61,58
823,208	61,2
823,624	61
824,039	61,5
824,455	61,46
824,87	61,14
825,286	60,97
825,701	61,35
826,116	61,67
826,531	61,32
826,946	61,06
827,361	61,26
827,776	61,34
828,19	61,4
828,605	61,06
829,02	61,28
829,434	61,28
829,848	61,36
830,263	61,44
830,677	60,91
831,091	61,52
831,505	61,42
831,919	61,68
832,332	60,95
832,746	61,54
833,16	60,96
833,573	62,05
833,987	61,25
834,4	60,83
834,813	61,31
835,226	61,03
835,639	60,94
836,052	61,07
836,465	61
836,878	61,42
837,29	61,3
837,703	61,48
838,116	61,05
838,528	61,14
838,94	61,51
839,352	60,94
839,765	61,4
840,177	61,11
840,589	60,9
841	61
841,412	60,64
841,824	60,93
842,235	61,12
842,647	61,19
843,058	61,42
843,47	61,07
843,881	61,35
844,292	60,76
844,703	61,24
845,114	61,16
845,525	60,45
845,935	61,45
846,346	61,22
846,757	61,28
847,167	61,2
847,577	61
847,988	61,55
848,398	60,95
848,808	60,83
849,218	60,7
849,628	61,39
850,038	61,26
850,448	61,13
850,857	60,77
851,267	60,72
851,676	60,78
852,086	61,39
852,495	60,95
852,904	61,25
853,313	61,03
853,722	61,11
854,131	61,55
854,54	60,64
854,949	60,79
855,357	61,45
855,766	61,37
856,174	60,71
856,583	60,72
856,991	60,71
857,399	60,76
857,807	61,18
858,215	61,19
858,623	60,96
859,031	60,95
859,439	61,1
859,846	60,74
860,254	61,04
860,661	60,95
861,069	61,1
861,476	60,9
861,883	61,41
862,29	60,73
862,697	60,98
863,104	60,76
863,511	60,73
863,918	60,79
864,325	61,47
864,731	60,91
865,138	60,77
865,544	60,7
865,95	60,86
866,357	60,5
866,763	61,66
867,169	61,02
867,575	61,32
867,98	60,35
868,386	61,09
868,792	61,06
869,197	61,17
869,603	61,19
870,008	61,24
870,414	61,15
870,819	61,35
871,224	61,18
871,629	60,81
872,034	60,96
872,439	60,74
872,844	61,31
873,248	61,85
873,653	61,2
874,057	60,73
874,462	60,19
874,866	61,16
875,27	61,04
875,674	60,68
876,078	60,62
876,482	61,32
876,886	61,01
877,29	60,94
877,694	60,4
878,097	60,36
878,501	61,11
878,904	60,9
879,308	60,71
879,711	61,18
880,114	60,8
880,517	60,74
880,92	61,47
881,323	60,79
881,726	60,71
882,128	61,09
882,531	61,22
882,934	60,75
883,336	61,16
883,738	61,13
884,141	60,52
884,543	60,62
884,945	60,65
885,347	61,01
885,749	60,26
886,151	61,32
886,552	60,77
886,954	60,75
887,355	60,66
887,757	60,79
888,158	60,79
888,56	60,39
888,961	60,84
889,362	61,17
889,763	60,85
890,164	61,12
890,565	61,24
890,965	60,64
891,366	60,96
891,767	61,1
892,167	60,7
892,567	60,99
892,968	61
893,368	60,72
893,768	60,67
894,168	60,57
894,568	60,04
894,968	60,98
895,368	60,55
895,767	60,82
896,167	61,02
896,566	61,24
896,966	60,66
897,365	60,85
897,764	60,95
898,164	60,81
898,563	60,83
898,962	60,93
899,361	61,29
899,759	60,65
900,158	60,72
900,557	61,14
900,955	60,48
901,354	60,49
901,752	61,1
902,15	60,83
902,548	60,98
902,947	60,7
903,345	60,33
903,742	61,41
904,14	60,85
904,538	60,31
904,936	60,91
905,333	61,65
905,731	60,86
906,128	60,68
906,525	61,49
906,923	60,85
907,32	60,83
907,717	61,4
908,114	60,97
908,511	60,75
908,907	60,72
909,304	61,05
909,701	60,84
910,097	60,41
910,494	60,71
910,89	61,01
911,286	61,35
911,682	60,51
912,078	60,54
912,474	60,75
912,87	61,12
913,266	60,41
913,662	61,25
914,058	60,9
914,453	61,43
914,849	61,4
915,244	61,49
915,639	60,44
916,034	61,08
916,43	61,25
916,825	60,93
917,22	60,88
917,614	60,8
918,009	60,55
918,404	61,02
918,798	61,16
919,193	61,19
919,587	60,7
919,982	61,15
920,376	61,16
920,77	60,94
921,164	60,71
921,558	60,43
921,952	61,16
922,346	60,73
922,74	60,33
923,133	60,43
923,527	60,58
923,92	61,58
924,314	61,07
924,707	61,24
925,1	60,88
925,493	60,71
925,886	60,53
926,279	61,16
926,672	60,43
927,065	60,33
927,457	61,3
927,85	61,45
928,243	60,55
928,635	60,46
929,027	60,41
929,42	60,61
929,812	60,93
930,204	61,09
930,596	61,23
930,988	60,84
931,379	60,41
931,771	60,94
932,163	60,98
932,554	60,5
932,946	61,56
933,337	61,19
933,729	60,67
934,12	60,64
934,511	60,85
934,902	60,83
935,293	60,41
935,684	60,87
936,075	60,73
936,465	60,65
936,856	60,25
937,246	61,35
937,637	60,11
938,027	59,73
938,417	59,94
938,808	60,81
939,198	59,78
939,588	60,69
939,978	60,03
940,368	62,14
940,757	59,85
941,147	60,23
941,537	59,39
941,926	61,55
942,315	60,92
942,705	60,47
943,094	62,12
943,483	59,66
943,872	60,97
944,261	59,98
944,65	61,54
945,039	60,56
945,428	61,13
945,816	62,27
946,205	60,33
946,593	59,56
946,982	60,29
947,37	59,7
947,758	61,28
948,146	60,84
948,534	59,61
948,922	60,06
949,31	60,63
949,698	59,76
950,086	60,58
950,473	60,47
950,861	60,07
951,248	60,31
951,636	59,22
952,023	60,08
952,41	60,66
952,797	60,65
953,184	60,89
953,571	61,28
953,958	60,47
954,345	59,5
954,731	60,03
955,118	61,32
955,505	59,26
955,891	61,09
956,277	59,84
956,664	60,57
957,05	60,27
957,436	60,32
957,822	59
958,208	58,93
958,594	59,98
958,979	59,91
959,365	60,53
959,751	59,15
960,136	60,09
960,522	60,76
960,907	60,32
961,292	59,59
961,677	59,76
962,062	59,81
962,447	59,93
962,832	59,17
963,217	59,71
963,602	59,94
963,986	59,82
964,371	59,59
964,756	59,87
965,14	59,5
965,524	60,15
965,908	60,75
966,293	59,7
966,677	60,09
967,061	59,45
967,445	60,01
967,828	59,8
968,212	59,87
968,596	60,79
968,979	59,49
969,363	59,12
969,746	59,91
970,129	60,08
970,513	59,82
970,896	60,13
971,279	59,73
971,662	58,92
972,045	60,7
972,428	59,56
972,81	60,11
973,193	59,58
973,575	60,32
973,958	59,63
974,34	60,63
974,723	60,41
975,105	60,18
975,487	60,49
975,869	60,13
976,251	60,37
976,633	61,27
977,015	60,42
977,396	59,77
977,778	60,91
978,16	61,26
978,541	59,99
978,922	59,79
979,304	60,27
979,685	60,38
980,066	60,18
980,447	60,65
980,828	60,08
981,209	59,96
981,59	59,45
981,97	60,02
982,351	60,57
982,732	60,43
983,112	59,8
983,493	60,45
983,873	59,44
984,253	59,94
984,633	60,12
985,013	60,38
985,393	59,5
985,773	60,71
986,153	60,03
986,533	60,21
986,912	60,15
987,292	59,91
987,671	59,7
988,051	60,76
988,43	59,91
988,809	59,53
989,188	59,68
989,567	60,39
989,946	59,08
990,325	59,69
990,704	60,18
991,083	59,5
991,461	60,63
991,84	60,77
992,218	61,07
992,597	61,2
992,975	61,34
993,353	60,48
993,732	60,25
994,11	59,63
994,488	59,82
994,866	59,56
995,243	60,61
995,621	60,88
995,999	60,66
996,376	60,45
996,754	60,19
997,131	61,01
997,509	60,49
997,886	60,84
998,263	60,66
998,64	60,97
999,017	59,85
999,394	61,17
999,771	60,57
1000,148	60,25
1000,524	60,95
1000,901	60,16
1001,277	61,13
1001,654	60,77
1002,03	61
1002,406	60,29
1002,783	60,91
1003,159	59,54
1003,535	60,6
1003,911	60,99
1004,286	60,68
1004,662	60,54
1005,038	61,55
1005,414	60,05
1005,789	60,98
1006,164	61,1
1006,54	59,96
1006,915	60,55
1007,29	60,71
1007,665	61,73
1008,04	60,25
1008,415	61,54
1008,79	59,76
1009,165	60,95
1009,54	61,12
1009,914	60,83
1010,289	60,15
1010,663	60
1011,038	61,28
1011,412	60,54
1011,786	60,8
1012,16	60,96
1012,535	60,2
1012,909	61,32
1013,282	60,49
1013,656	61,02
1014,03	61,1
1014,404	60,25
1014,777	61,37
1015,151	60,78
1015,524	59,93
1015,897	61,13
1016,271	61,27
1016,644	60,58
1017,017	61,05
1017,39	61,8
1017,763	59,97
1018,136	61,89
1018,508	61,55
1018,881	61,54
1019,254	60,68
1019,626	61,4
1019,999	59,67
1020,371	61,05
1020,743	61,18
1021,116	61,04
1021,488	60,46
1021,86	61,56
1022,232	61,27
1022,604	59,34
1022,975	61,29
1023,347	61,08
1023,719	60,75
1024,09	60,32
1024,462	59,74
1024,833	60,56
1025,204	61,14
1025,576	61,88
1025,947	60,91
1026,318	60,85
1026,689	62,09
1027,06	61,31
1027,431	61,45
1027,801	61,48
1028,172	60,34
1028,543	61,02
1028,913	60,95
1029,284	60,23
1029,654	61,76
1030,024	61,95
1030,394	61,23
1030,764	61,66
1031,135	60,46
1031,504	61,5
1031,874	60,87
1032,244	60,1
1032,614	60,22
1032,983	62,64
1033,353	62,01
1033,722	59,33
1034,092	62,77
1034,461	61,83
1034,83	61,65
1035,2	61,2
1035,569	61,61
1035,938	62,96
1036,307	61,54
1036,675	61,14
1037,044	63,31
1037,413	61,61
1037,781	62,38
1038,15	61,85
1038,518	61,06
1038,887	62,51
1039,255	61,6
1039,623	61,65
1039,991	60,33
1040,359	59,97
1040,727	62,37
1041,095	60,43
1041,463	61,03
1041,831	61,69
1042,198	63,9
1042,566	61,42
1042,933	62,8
1043,301	63,04
1043,668	61,6
1044,035	61,89
1044,402	61,58
1044,77	61,3
1045,137	61,79
1045,503	61,53
1045,87	61,15
1046,237	60,23
1046,604	61,7
1046,97	61,41
1047,337	62,6
1047,703	61,44
1048,07	61,04
1048,436	61,61
1048,802	60,75
1049,168	61,33
1049,534	62,17
1049,9	63,17
1050,266	62,38
1050,632	63,49
1050,998	64,53
1051,364	62,88
1051,729	62,44
1052,095	62,88
1052,46	61,77
1052,825	63,12
1053,191	64,08
1053,556	61,96
1053,921	62,65
1054,286	62,45
1054,651	63,37
1055,016	62,31
1055,381	63,84
1055,745	62,71
1056,11	61,36
1056,475	64,14
1056,839	62,43
1057,203	62
1057,568	61,74
1057,932	62,44
1058,296	61,52
1058,66	63,57
1059,024	63,29
1059,388	64,88
1059,752	62,59
1060,116	61,91
1060,48	62,15
1060,843	62,84
1061,207	63,99
1061,57	65,47
1061,934	61,71
1062,297	62,84
1062,66	63,81
1063,023	63,08
1063,386	63,14
1063,749	63,72
1064,112	61,05
1064,475	63,2
1064,838	65,64
1065,201	65,32
1065,563	63,89
1065,926	64,69
1066,288	63,04
1066,651	64,64
1067,013	62,54
1067,375	63,43
1067,737	61,61
1068,099	62,73
1068,461	63,16
1068,823	63,92
1069,185	62,06
1069,547	63,48
1069,909	63,99
1070,27	63,92
1070,632	59,88
1070,993	64,07
1071,355	61,98
1071,716	62,45
1072,077	62,7
1072,438	64,43
1072,799	63,65
1073,16	60,63
1073,521	61,08
1073,882	62,27
1074,243	63,56
1074,603	61,78
1074,964	64,91
1075,325	64,21
1075,685	62,83
1076,045	63,69
1076,406	64,69
1076,766	63,15
1077,126	62,1
1077,486	62,59
1077,846	64,04
1078,206	62,49
1078,566	62,86
1078,925	64,31
1079,285	62,36
1079,645	63,1
1080,004	63,1
1080,364	64,99
1080,723	61,4
1081,082	62,47
1081,442	62,96
1081,801	66,32
1082,16	62,82
1082,519	64,59
1082,878	62,32
1083,237	65,11
1083,595	65,15
1083,954	64,6
1084,313	63,97
1084,671	66,87
1085,03	61,15
1085,388	67,03
1085,746	63,59
1086,104	62,96
1086,463	63,12
1086,821	64,8
1087,179	64,93
1087,537	65,57
1087,894	63,47
1088,252	62,77
1088,61	64,6
1088,967	65,5
1089,325	63,95
1089,682	68,8
1090,04	63,61
1090,397	63,25
1090,754	61,85
1091,111	62,66
1091,469	66,03
1091,826	66,45
1092,182	66,57
1092,539	63,95
1092,896	66,55
1093,253	63,38
1093,609	63,58
1093,966	63,16
1094,322	67,79
1094,679	66,51
1095,035	64,02
1095,391	62,84
1095,748	66,59
1096,104	64,09
1096,46	64,77
1096,816	65
1097,171	68,29
1097,527	66,13
1097,883	61,53
1098,239	64,02
1098,594	65,81
1098,95	64,09
1099,305	67,44
1099,66	63,86
1100,016	59,44
1100,371	69,16
1100,726	64,59
1101,081	66,57
1101,436	70,73
1101,791	65,75
1102,146	65,01
1102,5	65,4
1102,855	63,54
1103,21	71,32
1103,564	66,43
1103,918	67,43
1104,273	70,17
1104,627	67,29
1104,981	68,78
1105,335	63,57
1105,69	65,72
1106,043	64,25
1106,397	69,12
1106,751	68,09
1107,105	65,99
1107,459	64,39
1107,812	67,36
1108,166	66,27
1108,519	66,34
1108,873	64,62
1109,226	67,79
1109,579	70,1
1109,932	72,8
1110,285	69,17
1110,638	65,37
1110,991	68,66
1111,344	65,92
1111,697	66,67
1112,05	74,56
1112,402	64,79
1112,755	68,89
1113,107	69,35
1113,46	68,68
1113,812	69,07
1114,164	67,74
1114,517	71,9
1114,869	133,8
1115,221	130,67
1115,573	90,28
1115,924	96,39
