Data from D_1_Relative__2__00064.txt Node

Date: Tue Jan 30 09:56:08 CET 2024
User: diatiterra
Spectrometer: HDX00911
Trigger mode: 0
Integration Time (sec): 6,000000E-3
Scans to average: 2
Nonlinearity correction enabled: false
Boxcar width: 0
Storing dark spectrum: false
XAxis mode: Wavelengths
Number of Pixels in Spectrum: 2068
>>>>>Begin Spectral Data<<<<<
194,468	85,82
195,025	77,57
195,581	74,19
196,138	88,6
196,694	78,12
197,251	79,35
197,807	76,22
198,363	67,18
198,919	67,03
199,474	76,74
200,03	80,77
200,586	82,12
201,141	69,95
201,696	69,14
202,251	69,93
202,806	75,61
203,361	68,02
203,916	67,98
204,471	60,62
205,025	71,91
205,58	74,21
206,134	79,44
206,688	71,76
207,242	60,95
207,796	73,26
208,35	85,55
208,904	65,59
209,457	72,77
210,011	78,43
210,564	73,33
211,117	65,22
211,67	71,2
212,223	74,59
212,776	76,17
213,329	66,14
213,881	63,59
214,434	53,99
214,986	68,85
215,538	73,6
216,09	72,58
216,642	79,19
217,194	66,48
217,746	60,65
218,297	78,65
218,849	74,09
219,4	68,07
219,951	71,11
220,502	71,43
221,053	80,75
221,604	68,18
222,155	58,38
222,705	68,79
223,256	68,69
223,806	53,77
224,356	68,39
224,906	73,33
225,456	66,27
226,006	70,81
226,556	66,67
227,106	69,89
227,655	66,47
228,204	66,84
228,754	63,24
229,303	72,47
229,852	74,33
230,401	70,52
230,949	75,13
231,498	71,95
232,047	69,4
232,595	68,23
233,143	71,72
233,691	68,02
234,239	75,41
234,787	76,3
235,335	79,39
235,883	63,24
236,43	64,4
236,978	72,88
237,525	73,18
238,072	75,32
238,619	76,67
239,166	57,61
239,713	63,1
240,26	74,6
240,806	72,46
241,353	82,97
241,899	67,91
242,445	63,16
242,991	69,27
243,537	67,43
244,083	70,51
244,629	71,86
245,174	60,82
245,72	74,71
246,265	53,54
246,81	66,5
247,355	83,16
247,9	79,06
248,445	64,02
248,99	63,01
249,534	70,88
250,079	62,3
250,623	77,09
251,168	64,29
251,712	55,87
252,256	68,48
252,8	67,89
253,343	67,01
253,887	64,32
254,43	73,22
254,974	77,4
255,517	60,95
256,06	65,58
256,603	70,62
257,146	66,5
257,689	63,78
258,232	67,27
258,774	59,09
259,317	76,54
259,859	64,37
260,401	64,07
260,943	63,68
261,485	63,84
262,027	60,11
262,569	80,38
263,11	68,64
263,652	67,05
264,193	62,11
264,734	83,64
265,275	57,95
265,816	67,26
266,357	62,76
266,898	69,54
267,438	62,56
267,979	77,44
268,519	60,53
269,059	73,21
269,6	74,71
270,14	69,54
270,68	71,69
271,219	70,06
271,759	60,61
272,298	72,78
272,838	65,57
273,377	70,33
273,916	72,53
274,455	67,07
274,994	64,24
275,533	72,16
276,072	72,28
276,61	75,29
277,149	71,68
277,687	78,53
278,225	71,17
278,763	63,19
279,301	66,85
279,839	74,85
280,377	83,23
280,914	59,17
281,452	75,56
281,989	78,89
282,526	75,88
283,064	71,98
283,601	73,4
284,137	65,36
284,674	71,04
285,211	67,86
285,747	70,74
286,284	75,71
286,82	75,29
287,356	66,46
287,892	66,67
288,428	74,7
288,964	70,93
289,5	78,63
290,035	73,81
290,571	78,11
291,106	60,61
291,641	63,03
292,176	76,88
292,711	67,65
293,246	69,23
293,781	74,51
294,315	67,8
294,85	76,07
295,384	66,88
295,918	76,6
296,453	61,05
296,987	63,91
297,52	67,09
298,054	55,56
298,588	88,74
299,121	63,64
299,655	66,88
300,188	66,67
300,721	82,25
301,254	65,09
301,787	74,38
302,32	66,85
302,853	72,57
303,385	68,25
303,918	71,71
304,45	79,62
304,982	77,4
305,514	63,33
306,046	78,05
306,578	79,62
307,11	77,78
307,641	72,19
308,173	69,94
308,704	76,29
309,236	72,39
309,767	69,75
310,298	74,86
310,829	77,06
311,359	64,12
311,89	68,52
312,421	66,87
312,951	66,29
313,481	71,43
314,012	77,14
314,542	65
315,072	81,21
315,601	72,67
316,131	68,64
316,661	76
317,19	76,6
317,72	58,52
318,249	70,47
318,778	80,34
319,307	77,65
319,836	71,28
320,365	83,13
320,893	74,73
321,422	65
321,95	74,25
322,479	88,16
323,007	64,94
323,535	70,74
324,063	65,76
324,591	77,35
325,118	67,5
325,646	62,29
326,173	62,2
326,701	74,85
327,228	67,76
327,755	87,59
328,282	63,89
328,809	63,95
329,336	74,44
329,862	74,19
330,389	90,07
330,915	72,62
331,441	83,72
331,968	75
332,494	65,75
333,02	59,36
333,545	68,42
334,071	59,26
334,597	84,52
335,122	73,53
335,648	82,58
336,173	79,62
336,698	72,19
337,223	77,61
337,748	83,64
338,272	72,12
338,797	74,85
339,322	71,93
339,846	61,45
340,37	72,12
340,894	69,46
341,419	67,96
341,942	67,38
342,466	60,27
342,99	63,87
343,514	65,61
344,037	59,34
344,56	63,74
345,084	70,76
345,607	71,91
346,13	69,36
346,653	62,86
347,175	75,14
347,698	59,35
348,221	62,03
348,743	79,59
349,265	61,05
349,787	61,54
350,309	63,68
350,831	58,45
351,353	51,81
351,875	70,85
352,397	60,09
352,918	68,1
353,439	58,16
353,961	68,18
354,482	59,64
355,003	68,52
355,524	54,67
356,044	56,52
356,565	61,14
357,086	64,42
357,606	62,44
358,126	61,06
358,646	50
359,167	55,95
359,687	66,37
360,206	57,66
360,726	47,46
361,246	66,82
361,765	57,87
362,285	57,48
362,804	58,64
363,323	58,65
363,842	50,21
364,361	55,56
364,88	60,58
365,398	51,38
365,917	55,13
366,435	60,64
366,954	51,76
367,472	49,82
367,99	59,6
368,508	56,45
369,026	56,73
369,544	62,23
370,061	60,62
370,579	56,99
371,096	55,73
371,613	49,8
372,131	55,09
372,648	60,63
373,165	53,95
373,681	55,86
374,198	56,33
374,715	46,32
375,231	53,36
375,747	51,31
376,264	43,61
376,78	48,23
377,296	53,04
377,812	53,74
378,327	54,81
378,843	51,18
379,359	43,15
379,874	45,64
380,389	43,89
380,905	45,88
381,42	45,79
381,935	52,82
382,449	48,11
382,964	43,25
383,479	40,55
383,993	44,44
384,508	41,73
385,022	41,46
385,536	40,4
386,05	47,03
386,564	37,16
387,078	39,57
387,592	42,63
388,105	39,13
388,619	38,74
389,132	42,73
389,645	42,89
390,158	37,62
390,671	41,52
391,184	41,37
391,697	38,85
392,21	42,48
392,722	39,65
393,235	39,33
393,747	42,74
394,259	32,63
394,771	38,25
395,283	33,33
395,795	37,32
396,307	38,66
396,818	34,73
397,33	36,93
397,841	32,35
398,353	31,86
398,864	34,75
399,375	30,09
399,886	29,41
400,397	29,55
400,907	29,08
401,418	32,4
401,928	31,93
402,439	30,17
402,949	29,12
403,459	27,64
403,969	29,49
404,479	29,51
404,989	28,08
405,498	25,03
406,008	28,78
406,517	25,03
407,027	25,7
407,536	22,88
408,045	21,13
408,554	21,41
409,063	23,18
409,572	21,58
410,08	19,53
410,589	19,93
411,097	20,9
411,606	18,66
412,114	16,6
412,622	18,24
413,13	16,57
413,638	16,42
414,145	16,75
414,653	13,52
415,16	14,27
415,668	14,07
416,175	14,44
416,682	13,88
417,189	13,39
417,696	13,57
418,203	13,32
418,71	12,6
419,216	12,08
419,723	13,23
420,229	13,72
420,735	12,1
421,242	11,83
421,748	12,15
422,254	13,3
422,759	12,41
423,265	10,62
423,771	10,75
424,276	11,74
424,781	11,03
425,287	12,02
425,792	10,95
426,297	10,86
426,802	11,3
427,306	11,49
427,811	10,92
428,316	11,34
428,82	10,87
429,324	10,33
429,829	11,85
430,333	10,71
430,837	11,71
431,34	10,85
431,844	10,25
432,348	10,66
432,851	11,45
433,355	10,1
433,858	10,18
434,361	10,83
434,864	10,35
435,367	11,1
435,87	9,87
436,373	9,85
436,876	10,43
437,378	10
437,88	9,06
438,383	9,81
438,885	10,05
439,387	9,23
439,889	9,99
440,391	9,72
440,892	10,35
441,394	10,13
441,896	9,38
442,397	10,24
442,898	9,72
443,399	10,38
443,9	9,44
444,401	9,5
444,902	9,13
445,403	9,56
445,903	10,72
446,404	10,01
446,904	10,78
447,405	9,77
447,905	9,44
448,405	9,67
448,905	9,98
449,404	9,48
449,904	9,93
450,404	9,61
450,903	10,43
451,403	9,9
451,902	10,11
452,401	10,06
452,9	10,18
453,399	10,67
453,898	10,48
454,396	10,01
454,895	10,05
455,393	10,26
455,892	11,03
456,39	9,49
456,888	10,41
457,386	10,11
457,884	9,58
458,382	10,26
458,879	10,27
459,377	10,7
459,874	10,05
460,372	10,49
460,869	10,27
461,366	10,34
461,863	10,11
462,36	10,45
462,857	9,59
463,353	10,27
463,85	10,15
464,346	10,13
464,843	10,38
465,339	10,34
465,835	10,03
466,331	9,94
466,827	9,96
467,323	9,46
467,818	10,35
468,314	9,57
468,809	9,57
469,305	9,71
469,8	9,99
470,295	9,47
470,79	9,37
471,285	10,2
471,78	9,99
472,274	9,85
472,769	9,66
473,263	9,47
473,758	10,44
474,252	9,71
474,746	9,61
475,24	10,05
475,734	10,17
476,228	9,88
476,721	10,14
477,215	10,43
477,708	9,99
478,202	10,07
478,695	10,22
479,188	10,3
479,681	10,1
480,174	9,74
480,667	10,28
481,159	10,25
481,652	10,16
482,144	10,09
482,637	9,74
483,129	9,78
483,621	10,41
484,113	9,88
484,605	9,98
485,097	10,2
485,588	10,56
486,08	10,01
486,571	10,19
487,063	10,83
487,554	10,57
488,045	10,74
488,536	10,19
489,027	10,67
489,518	10,51
490,008	10,75
490,499	10,87
490,989	10,68
491,48	10,37
491,97	11,08
492,46	10,41
492,95	10,98
493,44	11,19
493,93	11,03
494,419	11,16
494,909	11,53
495,398	11,24
495,888	11,8
496,377	11,36
496,866	11,43
497,355	11,87
497,844	10,88
498,333	11,62
498,821	12,05
499,31	11,91
499,798	12,23
500,287	12,51
500,775	12,36
501,263	12,86
501,751	12,15
502,239	13,18
502,727	12,82
503,215	13,31
503,702	13,18
504,19	13,13
504,677	13,59
505,164	13,74
505,651	14,46
506,139	14,13
506,625	13,89
507,112	15,49
507,599	15,24
508,086	15,81
508,572	15,79
509,058	15,76
509,545	16,13
510,031	16,55
510,517	16,53
511,003	17,18
511,489	16,86
511,974	17,62
512,46	18,5
512,946	18,78
513,431	18,79
513,916	18,88
514,401	19,45
514,887	19,4
515,371	20,12
515,856	20,16
516,341	21,16
516,826	21,46
517,31	21,64
517,795	22,24
518,279	22,14
518,763	22,87
519,247	23,35
519,731	24,07
520,215	23,79
520,699	23,94
521,182	24,68
521,666	24,95
522,149	26,06
522,633	25,59
523,116	26,33
523,599	26,35
524,082	27,19
524,565	27,73
525,048	27,85
525,53	28,62
526,013	29,05
526,495	29,7
526,978	28,59
527,46	30,11
527,942	30,02
528,424	29,53
528,906	30,82
529,388	30,32
529,87	30,74
530,351	30,78
530,833	31,55
531,314	31,68
531,795	32,32
532,277	32,2
532,758	32,82
533,238	32,66
533,719	31,92
534,2	32,64
534,681	33,53
535,161	32,77
535,642	32,73
536,122	33,65
536,602	33,55
537,082	33,22
537,562	32,7
538,042	33,89
538,522	34,07
539,001	33,75
539,481	33,87
539,96	33,67
540,44	34,15
540,919	33,73
541,398	34,53
541,877	34,09
542,356	33,92
542,835	33,64
543,313	34,15
543,792	34,14
544,27	34,97
544,749	34,17
545,227	34,3
545,705	34,97
546,183	34,62
546,661	35,09
547,139	34,76
547,616	34,87
548,094	35,11
548,571	34,58
549,049	34,88
549,526	34,95
550,003	35,48
550,48	35,13
550,957	35,35
551,434	35,08
551,911	35,69
552,387	35,74
552,864	35,28
553,34	35,32
553,817	34,79
554,293	35
554,769	34,88
555,245	34,82
555,721	35,1
556,197	35,56
556,672	35,13
557,148	34,2
557,623	35,1
558,099	34,45
558,574	34,69
559,049	34,32
559,524	34,86
559,999	34,98
560,474	34,9
560,948	34,71
561,423	34,47
561,897	34,7
562,372	34,54
562,846	33,57
563,32	33,46
563,794	33,87
564,268	33,83
564,742	34,12
565,216	33,99
565,69	33,14
566,163	33,34
566,636	32,68
567,11	32,66
567,583	32,55
568,056	32,59
568,529	32,47
569,002	31,25
569,475	31,76
569,947	31,56
570,42	31,64
570,892	30,61
571,365	30,94
571,837	30,83
572,309	29,82
572,781	30,16
573,253	29,79
573,725	29,96
574,197	30,29
574,668	29,01
575,14	28,9
575,611	28,2
576,082	28,3
576,554	28,54
577,025	27,6
577,496	28,02
577,967	28,18
578,437	27,52
578,908	27,61
579,379	27,46
579,849	26,88
580,319	26,84
580,79	26,84
581,26	26,38
581,73	26,53
582,2	26,56
582,669	26,3
583,139	26,47
583,609	26,12
584,078	25,72
584,548	25,67
585,017	25,57
585,486	25,23
585,955	25,36
586,424	25,21
586,893	25,01
587,362	25,34
587,83	25,09
588,299	24,95
588,767	24,62
589,236	24,92
589,704	24,38
590,172	23,82
590,64	24,42
591,108	23,57
591,576	23,18
592,043	24,35
592,511	23,12
592,978	23,76
593,446	23,87
593,913	23
594,38	23,6
594,847	24
595,314	23,5
595,781	23,2
596,248	23,49
596,715	23,42
597,181	23,34
597,647	23,38
598,114	23,62
598,58	23,07
599,046	22,94
599,512	23,06
599,978	22,77
600,444	23,17
600,91	22,99
601,375	22,99
601,841	22,96
602,306	22,67
602,771	22,67
603,236	22,65
603,702	22,37
604,167	22,32
604,631	21,98
605,096	22,22
605,561	22,31
606,025	22,26
606,49	21,96
606,954	21,95
607,418	21,98
607,882	21,4
608,347	21,66
608,81	21,57
609,274	21,31
609,738	21,29
610,202	20,91
610,665	21,28
611,128	21,05
611,592	20,83
612,055	20,68
612,518	20,56
612,981	20,24
613,444	20
613,907	19,93
614,369	20,18
614,832	19,65
615,294	20,02
615,757	19,9
616,219	19,91
616,681	19,41
617,143	19,41
617,605	19,33
618,067	18,68
618,529	18,84
618,99	19,05
619,452	18,92
619,913	18,63
620,375	18,66
620,836	18,61
621,297	18,49
621,758	18,27
622,219	18,31
622,68	18,33
623,14	18,21
623,601	18,18
624,061	18,23
624,522	18,58
624,982	17,78
625,442	17,89
625,902	17,79
626,362	17,93
626,822	17,67
627,282	17,99
627,742	17,99
628,201	17,8
628,661	17,61
629,12	17,74
629,579	17,53
630,038	17,81
630,497	17,56
630,956	17,26
631,415	17,56
631,874	17,9
632,332	17,8
632,791	17,6
633,249	17,58
633,708	17,48
634,166	17,24
634,624	17,14
635,082	17,22
635,54	16,95
635,998	16,83
636,455	16,93
636,913	16,58
637,37	16,36
637,828	16,46
638,285	16,44
638,742	16,01
639,199	15,85
639,656	15,89
640,113	15,72
640,57	15,53
641,027	15,43
641,483	15,25
641,94	15,14
642,396	14,76
642,852	14,9
643,309	14,46
643,765	14,69
644,221	14,26
644,676	14,34
645,132	13,93
645,588	13,89
646,043	13,96
646,499	13,58
646,954	13,36
647,409	13,38
647,864	13,29
648,319	13,36
648,774	12,76
649,229	13
649,684	12,92
650,139	12,65
650,593	12,34
651,047	12,62
651,502	12,63
651,956	12,04
652,41	12,24
652,864	12,23
653,318	12,11
653,772	12,31
654,225	12,02
654,679	11,95
655,133	11,88
655,586	11,82
656,039	11,76
656,492	11,81
656,946	11,5
657,399	11,73
657,851	11,38
658,304	11,51
658,757	11,31
659,209	11,43
659,662	11,08
660,114	11,1
660,567	11,01
661,019	10,74
661,471	10,59
661,923	10,59
662,375	10,33
662,826	10,3
663,278	10,38
663,73	10,21
664,181	10,39
664,632	9,95
665,084	9,94
665,535	9,92
665,986	10,01
666,437	10,15
666,888	9,84
667,338	9,88
667,789	9,76
668,24	9,71
668,69	9,83
669,14	9,77
669,591	9,89
670,041	9,76
670,491	9,92
670,941	9,93
671,391	9,84
671,84	10,1
672,29	9,95
672,74	9,97
673,189	10,09
673,638	10,14
674,088	10,32
674,537	10,51
674,986	10,45
675,435	10,47
675,883	10,44
676,332	10,82
676,781	10,74
677,229	11
677,678	10,9
678,126	11,08
678,574	11,29
679,022	11,59
679,47	11,59
679,918	11,64
680,366	11,79
680,814	12,03
681,261	12,38
681,709	12,33
682,156	12,47
682,604	12,66
683,051	12,8
683,498	12,87
683,945	13,28
684,392	13,11
684,839	13,27
685,286	13,52
685,732	13,67
686,179	14,14
686,625	14,11
687,071	14,48
687,518	14,68
687,964	14,66
688,41	14,89
688,856	15,72
689,301	16,01
689,747	16,49
690,193	16,82
690,638	16,97
691,084	17,62
691,529	18,12
691,974	18,8
692,419	19,06
692,864	19,62
693,309	20,2
693,754	20,97
694,199	21,77
694,643	22,36
695,088	23,1
695,532	23,5
695,977	24,23
696,421	24,94
696,865	25,93
697,309	26,45
697,753	27,21
698,197	27,7
698,64	28,43
699,084	29,05
699,527	29,38
699,971	30,6
700,414	31,18
700,857	32,01
701,3	32,42
701,743	33,01
702,186	33,52
702,629	33,71
703,072	35
703,515	34,98
703,957	35,88
704,399	36,92
704,842	37,16
705,284	37,8
705,726	37,84
706,168	38,43
706,61	39,63
707,052	40,18
707,494	40,62
707,935	40,55
708,377	41,52
708,818	41,92
709,26	42,4
709,701	43,09
710,142	42,85
710,583	43,68
711,024	44,24
711,465	44,27
711,905	44,7
712,346	45,69
712,787	46,16
713,227	46,49
713,667	47,28
714,108	47,22
714,548	47,56
714,988	48,11
715,428	48,27
715,868	48,64
716,307	48,91
716,747	49,8
717,186	49,75
717,626	50,03
718,065	50,55
718,504	50,99
718,944	51,24
719,383	51,65
719,822	52,07
720,261	52,29
720,699	52,59
721,138	52,47
721,576	53,29
722,015	53,57
722,453	54,25
722,892	53,86
723,33	54,43
723,768	54,33
724,206	54,89
724,644	55,07
725,081	55,26
725,519	55,31
725,957	55,97
726,394	56,25
726,832	56
727,269	56,06
727,706	56,33
728,143	56,67
728,58	57,05
729,017	57,05
729,454	57,16
729,89	57,23
730,327	57,79
730,764	57,56
731,2	58,13
731,636	57,95
732,072	58,07
732,509	58,73
732,945	58,39
733,38	58,66
733,816	58,71
734,252	58,34
734,688	59,38
735,123	58,44
735,559	59,19
735,994	59,28
736,429	58,84
736,864	59,27
737,299	59,03
737,734	58,92
738,169	59,36
738,604	59,54
739,038	59,19
739,473	59,57
739,907	59,5
740,342	59,95
740,776	59,34
741,21	59,32
741,644	59,9
742,078	59,7
742,512	59,21
742,946	59,71
743,379	60,1
743,813	59,55
744,246	59,92
744,68	58,98
745,113	59,27
745,546	60,06
745,979	59,86
746,412	59,36
746,845	59,76
747,278	59,95
747,711	59,43
748,143	59,6
748,576	59,41
749,008	59,33
749,441	59,59
749,873	59,12
750,305	59,03
750,737	59,02
751,169	58,99
751,601	59,37
752,032	59,29
752,464	58,99
752,896	58,99
753,327	58,53
753,758	59,04
754,19	59,22
754,621	58,7
755,052	58,87
755,483	59,14
755,914	58,93
756,344	58,86
756,775	58,22
757,206	58,72
757,636	58,54
758,066	58,44
758,497	58,4
758,927	58,52
759,357	58,74
759,787	57,81
760,217	58,63
760,647	58,55
761,076	58,5
761,506	57,89
761,935	58,38
762,365	58
762,794	58,12
763,223	57,64
763,653	57,82
764,082	58,45
764,51	57,92
764,939	57,91
765,368	57,69
765,797	58,27
766,225	57,97
766,654	58,05
767,082	57,54
767,51	57,37
767,938	57,41
768,367	58,56
768,795	57,65
769,222	57,33
769,65	57,08
770,078	57,43
770,505	57,59
770,933	56,95
771,36	58,02
771,788	56,69
772,215	57,17
772,642	56,84
773,069	57,37
773,496	57,34
773,923	57,3
774,349	56,94
774,776	57,22
775,203	56,58
775,629	57,47
776,055	57,27
776,482	56,84
776,908	57,24
777,334	57,14
777,76	56,99
778,186	56,74
778,611	56,22
779,037	57,7
779,463	56,9
779,888	56,42
780,314	56,93
780,739	56,99
781,164	56,54
781,589	56,61
782,014	56,7
782,439	56,89
782,864	56,55
783,289	57,16
783,713	56,87
784,138	56,43
784,562	56,78
784,987	56,72
785,411	56,23
785,835	56,67
786,259	56,4
786,683	56,25
787,107	56,42
787,531	56,78
787,954	56,98
788,378	56,23
788,802	56,31
789,225	56,28
789,648	56,4
790,071	55,9
790,495	56,32
790,918	56,17
791,34	56,39
791,763	55,72
792,186	55,89
792,609	56,68
793,031	56,09
793,454	56,22
793,876	56,43
794,298	56,53
794,721	56,48
795,143	56,06
795,565	56,07
795,986	56,26
796,408	56,32
796,83	55,95
797,252	56,55
797,673	55,62
798,094	56,25
798,516	56,43
798,937	56,39
799,358	56,08
799,779	56,44
800,2	55,82
800,621	56,17
801,042	56,16
801,462	56,16
801,883	56
802,303	55,73
802,724	56,19
803,144	56,15
803,564	56,24
803,984	55,74
804,404	56,26
804,824	55,87
805,244	55,84
805,664	55,83
806,084	56,04
806,503	56,14
806,923	56,4
807,342	55,83
807,761	55,51
808,18	55,71
808,599	56,18
809,018	56,25
809,437	55,91
809,856	56,24
810,275	55,35
810,693	55,4
811,112	55,76
811,53	55,43
811,949	55,95
812,367	55,24
812,785	55,58
813,203	56,43
813,621	55,78
814,039	55,42
814,457	55,99
814,874	56,3
815,292	55,43
815,709	55,74
816,127	56,05
816,544	56,05
816,961	55,49
817,378	55,88
817,795	55,53
818,212	55,88
818,629	56,16
819,046	56,14
819,462	55,53
819,879	55,6
820,295	55,56
820,712	55,67
821,128	55,93
821,544	55,59
821,96	56,24
822,376	55,82
822,792	56,01
823,208	55,86
823,624	55,61
824,039	55,97
824,455	55,78
824,87	55,22
825,286	55,31
825,701	55,57
826,116	56,02
826,531	55,35
826,946	55,78
827,361	56,05
827,776	54,79
828,19	55,72
828,605	55,74
829,02	55,21
829,434	55,22
829,848	55,29
830,263	56,02
830,677	55,27
831,091	56,08
831,505	55,64
831,919	56,08
832,332	55,56
832,746	55,04
833,16	55,33
833,573	55,77
833,987	56,07
834,4	55,55
834,813	55,63
835,226	55,75
835,639	55,57
836,052	55,95
836,465	55,89
836,878	55,86
837,29	55,53
837,703	55,73
838,116	55,54
838,528	55,88
838,94	55,39
839,352	55,67
839,765	55,35
840,177	55,57
840,589	55,9
841	55,15
841,412	55,55
841,824	55,48
842,235	55,2
842,647	55,66
843,058	55,5
843,47	55,54
843,881	55,17
844,292	55,33
844,703	55,14
845,114	55,59
845,525	55,38
845,935	55,36
846,346	55,28
846,757	55,32
847,167	55,27
847,577	54,68
847,988	55,52
848,398	55,14
848,808	54,93
849,218	55,53
849,628	55,58
850,038	55,39
850,448	54,91
850,857	54,65
851,267	55,49
851,676	55,41
852,086	55,29
852,495	56,12
852,904	55,26
853,313	55,88
853,722	55,09
854,131	55,28
854,54	55,43
854,949	55,81
855,357	54,82
855,766	55,68
856,174	55,46
856,583	54,44
856,991	55,27
857,399	55,2
857,807	54,88
858,215	55,65
858,623	55,5
859,031	55,47
859,439	54,47
859,846	54,93
860,254	55,45
860,661	55,53
861,069	55,5
861,476	55,03
861,883	55,64
862,29	55,63
862,697	55,37
863,104	55,32
863,511	54,56
863,918	55,2
864,325	55,28
864,731	54,72
865,138	55,36
865,544	55,64
865,95	55,3
866,357	55,24
866,763	55,35
867,169	54,88
867,575	55,17
867,98	55,31
868,386	55,1
868,792	54,95
869,197	54,44
869,603	55,19
870,008	54,95
870,414	55,09
870,819	54,77
871,224	55,19
871,629	55,26
872,034	54,46
872,439	54,89
872,844	55,27
873,248	54,86
873,653	54,41
874,057	55,11
874,462	54,88
874,866	55,3
875,27	55,46
875,674	55,02
876,078	55,36
876,482	54,69
876,886	55,11
877,29	55,21
877,694	55,34
878,097	54,82
878,501	55,39
878,904	55,07
879,308	54,77
879,711	54,99
880,114	54,92
880,517	54,25
880,92	54,89
881,323	54,81
881,726	54,65
882,128	55,63
882,531	54,41
882,934	54,74
883,336	55,33
883,738	54,84
884,141	55,3
884,543	55,49
884,945	54,55
885,347	54,53
885,749	55,23
886,151	54,78
886,552	55,13
886,954	55,76
887,355	54,65
887,757	54,84
888,158	54,39
888,56	54,52
888,961	54,65
889,362	55,04
889,763	55,32
890,164	54,97
890,565	54,44
890,965	55,34
891,366	55,69
891,767	55,22
892,167	54,48
892,567	54,61
892,968	54,45
893,368	55,66
893,768	54,84
894,168	54,69
894,568	54,69
894,968	55,03
895,368	54,94
895,767	54,59
896,167	54,81
896,566	54,37
896,966	54,81
897,365	55,02
897,764	54,65
898,164	54,95
898,563	54,89
898,962	54,79
899,361	54,64
899,759	55,46
900,158	55,3
900,557	55,21
900,955	54,53
901,354	54,81
901,752	54,78
902,15	55,01
902,548	55,16
902,947	55,14
903,345	55,29
903,742	55,11
904,14	55,52
904,538	54,35
904,936	55,05
905,333	55,56
905,731	54,64
906,128	55,81
906,525	53,98
906,923	55,87
907,32	54,98
907,717	55,24
908,114	54,58
908,511	55,24
908,907	54,92
909,304	55,55
909,701	55,28
910,097	55,03
910,494	54,44
910,89	54,9
911,286	54,81
911,682	53,9
912,078	54,76
912,474	54,85
912,87	54,58
913,266	55,17
913,662	54,51
914,058	55,09
914,453	54,85
914,849	55,27
915,244	54,72
915,639	54,99
916,034	54,83
916,43	54,86
916,825	55,7
917,22	55,33
917,614	54,74
918,009	54,92
918,404	54,74
918,798	54,95
919,193	54,87
919,587	54,64
919,982	54,46
920,376	54,07
920,77	55,24
921,164	54,9
921,558	54,3
921,952	54,58
922,346	54,8
922,74	54,69
923,133	55,24
923,527	54,84
923,92	54,09
924,314	55,26
924,707	55,37
925,1	55,42
925,493	54,81
925,886	54,05
926,279	54,85
926,672	55,38
927,065	54,67
927,457	54,11
927,85	54,95
928,243	54,44
928,635	54
929,027	55,15
929,42	54,85
929,812	54,33
930,204	54,34
930,596	54,63
930,988	55,1
931,379	53,83
931,771	54,63
932,163	54,93
932,554	54,24
932,946	54,88
933,337	54,83
933,729	54,41
934,12	54,28
934,511	54,39
934,902	54,79
935,293	54,41
935,684	54,76
936,075	55,1
936,465	54,56
936,856	54,66
937,246	54,82
937,637	53,94
938,027	55,01
938,417	54,16
938,808	54,55
939,198	55,13
939,588	53,87
939,978	54,75
940,368	53,61
940,757	55
941,147	55,37
941,537	54,73
941,926	54,14
942,315	53,84
942,705	54,59
943,094	55,04
943,483	53,59
943,872	54,16
944,261	54,62
944,65	54,53
945,039	54,27
945,428	53,27
945,816	54,62
946,205	55,27
946,593	53,9
946,982	54,78
947,37	54,26
947,758	54,42
948,146	53,86
948,534	54,95
948,922	54,59
949,31	52,75
949,698	54,76
950,086	53,56
950,473	54,6
950,861	53,77
951,248	52,84
951,636	53,51
952,023	53,04
952,41	52,7
952,797	54,14
953,184	53,76
953,571	52,91
953,958	54,29
954,345	53,38
954,731	53,3
955,118	53,14
955,505	53,39
955,891	53,39
956,277	54,11
956,664	54,49
957,05	54,1
957,436	53,31
957,822	53,37
958,208	53,62
958,594	53,08
958,979	53,45
959,365	53,94
959,751	53,1
960,136	52,53
960,522	53,52
960,907	54,07
961,292	53,78
961,677	53,7
962,062	53,8
962,447	53,02
962,832	53,34
963,217	52,8
963,602	53,48
963,986	53,85
964,371	54,12
964,756	52,87
965,14	53,1
965,524	53,07
965,908	53,26
966,293	53,38
966,677	53,1
967,061	53,05
967,445	53,4
967,828	53,43
968,212	54,16
968,596	53,64
968,979	53,71
969,363	53,43
969,746	53,45
970,129	53,9
970,513	52,33
970,896	54,13
971,279	53,03
971,662	53,53
972,045	53,32
972,428	53,83
972,81	52,32
973,193	52,98
973,575	53,16
973,958	53,07
974,34	53,82
974,723	53,39
975,105	53,78
975,487	52,74
975,869	53,09
976,251	53,5
976,633	53,52
977,015	53,57
977,396	54,22
977,778	53,94
978,16	53,63
978,541	53,44
978,922	53,97
979,304	53,17
979,685	53,62
980,066	53,78
980,447	52,36
980,828	53,28
981,209	53,81
981,59	52,97
981,97	53,01
982,351	54,06
982,732	54,37
983,112	53,38
983,493	53,5
983,873	52,4
984,253	53,51
984,633	52,77
985,013	53,16
985,393	53,8
985,773	52,56
986,153	54,67
986,533	53,55
986,912	52,32
987,292	54,11
987,671	53,79
988,051	53,74
988,43	53,72
988,809	53,27
989,188	53,37
989,567	52,84
989,946	53,27
990,325	52,16
990,704	53,08
991,083	53,85
991,461	54
991,84	54,08
992,218	53,38
992,597	53,25
992,975	54,5
993,353	52,92
993,732	53,25
994,11	53,54
994,488	54,68
994,866	54,28
995,243	53,61
995,621	53,7
995,999	52,84
996,376	53,98
996,754	53,85
997,131	53,93
997,509	54,01
997,886	53,87
998,263	53,48
998,64	53,72
999,017	53,96
999,394	54,81
999,771	53,29
1000,148	53,79
1000,524	54,08
1000,901	54,37
1001,277	53,33
1001,654	54,09
1002,03	52,99
1002,406	53,61
1002,783	54,04
1003,159	53,2
1003,535	53,24
1003,911	54,34
1004,286	54
1004,662	53,7
1005,038	54,33
1005,414	53,84
1005,789	53,92
1006,164	54,46
1006,54	53,81
1006,915	53,9
1007,29	53,64
1007,665	53,75
1008,04	54,72
1008,415	54,72
1008,79	54,11
1009,165	52,8
1009,54	53,93
1009,914	53,26
1010,289	54,23
1010,663	53,72
1011,038	53,6
1011,412	53,52
1011,786	54,06
1012,16	53,27
1012,535	53,61
1012,909	54,05
1013,282	54,66
1013,656	53,66
1014,03	54,22
1014,404	54,6
1014,777	54,13
1015,151	52,89
1015,524	55,29
1015,897	53,91
1016,271	53,79
1016,644	53,89
1017,017	54,63
1017,39	53,81
1017,763	53,9
1018,136	53,86
1018,508	54,82
1018,881	54,04
1019,254	54,61
1019,626	55,48
1019,999	54,66
1020,371	54,6
1020,743	53,77
1021,116	54,45
1021,488	53,43
1021,86	54,95
1022,232	54,34
1022,604	54,15
1022,975	53,78
1023,347	54,62
1023,719	54,87
1024,09	54,14
1024,462	53,85
1024,833	54,58
1025,204	55,16
1025,576	54,65
1025,947	53,68
1026,318	54,18
1026,689	54,58
1027,06	54,43
1027,431	54,62
1027,801	53,69
1028,172	54,18
1028,543	54,25
1028,913	55,05
1029,284	54,85
1029,654	53,62
1030,024	54,04
1030,394	54,59
1030,764	54,68
1031,135	56,33
1031,504	55,19
1031,874	52,99
1032,244	54,11
1032,614	53,97
1032,983	54,11
1033,353	54,58
1033,722	54
1034,092	55,9
1034,461	54,13
1034,83	55,12
1035,2	53,01
1035,569	54,53
1035,938	54,87
1036,307	53,96
1036,675	54,49
1037,044	53,73
1037,413	54,61
1037,781	54,57
1038,15	53
1038,518	53,76
1038,887	55,53
1039,255	56,14
1039,623	54,38
1039,991	54,31
1040,359	53,44
1040,727	53,68
1041,095	56,04
1041,463	55,49
1041,831	54,22
1042,198	55,12
1042,566	55,03
1042,933	55,66
1043,301	55,46
1043,668	54,59
1044,035	53,55
1044,402	55,58
1044,77	54,11
1045,137	55,98
1045,503	52,5
1045,87	54,48
1046,237	54,56
1046,604	54,21
1046,97	54,13
1047,337	53,83
1047,703	55,76
1048,07	56,06
1048,436	56
1048,802	56,32
1049,168	54,86
1049,534	55,84
1049,9	55,54
1050,266	54,88
1050,632	55,04
1050,998	54,33
1051,364	56,5
1051,729	55,05
1052,095	57,22
1052,46	55,83
1052,825	53,7
1053,191	53,7
1053,556	55,65
1053,921	54,87
1054,286	53,64
1054,651	54,97
1055,016	54,97
1055,381	56,04
1055,745	54,33
1056,11	54,38
1056,475	54,52
1056,839	56,3
1057,203	56,04
1057,568	56,29
1057,932	54,73
1058,296	54,3
1058,66	54,37
1059,024	54,29
1059,388	54,58
1059,752	55,27
1060,116	56,2
1060,48	56,15
1060,843	57,01
1061,207	55,02
1061,57	55,98
1061,934	55,71
1062,297	56,84
1062,66	55,7
1063,023	52,55
1063,386	55,39
1063,749	52,99
1064,112	54,42
1064,475	54,33
1064,838	54,38
1065,201	54,79
1065,563	56,28
1065,926	55,29
1066,288	53,42
1066,651	54,52
1067,013	55,81
1067,375	56,67
1067,737	56,03
1068,099	57,7
1068,461	54,77
1068,823	56,41
1069,185	54,04
1069,547	56,62
1069,909	54
1070,27	56,88
1070,632	52,84
1070,993	56,47
1071,355	54,64
1071,716	54,47
1072,077	55,45
1072,438	56,67
1072,799	53,59
1073,16	54,49
1073,521	55,44
1073,882	56,06
1074,243	54,46
1074,603	54,62
1074,964	55,29
1075,325	56,51
1075,685	57,13
1076,045	56,94
1076,406	52,97
1076,766	54,37
1077,126	53,91
1077,486	55,15
1077,846	57,35
1078,206	56,71
1078,566	56,62
1078,925	56,03
1079,285	56,26
1079,645	58,32
1080,004	55,06
1080,364	56,95
1080,723	57,16
1081,082	56,35
1081,442	54,83
1081,801	54,43
1082,16	56,96
1082,519	56,79
1082,878	57,59
1083,237	57,86
1083,595	57,5
1083,954	53,52
1084,313	59,12
1084,671	54,63
1085,03	58,16
1085,388	56,49
1085,746	58,53
1086,104	56,8
1086,463	55,76
1086,821	56,61
1087,179	58,13
1087,537	57,06
1087,894	55,78
1088,252	55,73
1088,61	57,11
1088,967	56,25
1089,325	56,32
1089,682	55,45
1090,04	55,31
1090,397	54,27
1090,754	56,86
1091,111	59,31
1091,469	56,61
1091,826	57,51
1092,182	55,9
1092,539	55,87
1092,896	55,25
1093,253	56,76
1093,609	56,16
1093,966	55,06
1094,322	56,89
1094,679	57,67
1095,035	54,63
1095,391	56,06
1095,748	57,04
1096,104	59,69
1096,46	56,89
1096,816	59,42
1097,171	57,4
1097,527	57,23
1097,883	56,26
1098,239	56,49
1098,594	55,8
1098,95	58,99
1099,305	56,45
1099,66	56,9
1100,016	55,6
1100,371	58,23
1100,726	58,38
1101,081	54,71
1101,436	54,29
1101,791	57,66
1102,146	60,94
1102,5	56,1
1102,855	59,05
1103,21	57,29
1103,564	56,77
1103,918	58,14
1104,273	57,13
1104,627	58,69
1104,981	61,33
1105,335	53,64
1105,69	57,68
1106,043	65,06
1106,397	57,98
1106,751	58,41
1107,105	59,37
1107,459	59,15
1107,812	57,49
1108,166	58,05
1108,519	57,24
1108,873	60
1109,226	58,88
1109,579	58,83
1109,932	56,45
1110,285	57,34
1110,638	57,49
1110,991	56,95
1111,344	59,04
1111,697	55,99
1112,05	61,15
1112,402	58,64
1112,755	63,28
1113,107	59,39
1113,46	65,56
1113,812	59,43
1114,164	59,24
1114,517	62,96
1114,869	92,98
1115,221	73,73
1115,573	86,96
1115,924	93,2
