Data from D_3_Relative__2__00072.txt Node

Date: Tue Jan 30 10:01:37 CET 2024
User: diatiterra
Spectrometer: HDX00911
Trigger mode: 0
Integration Time (sec): 6,000000E-3
Scans to average: 2
Nonlinearity correction enabled: false
Boxcar width: 0
Storing dark spectrum: false
XAxis mode: Wavelengths
Number of Pixels in Spectrum: 2068
>>>>>Begin Spectral Data<<<<<
194,468	78,45
195,025	71,77
195,581	71,97
196,138	66,24
196,694	66,67
197,251	59,91
197,807	58,75
198,363	57,38
198,919	59,15
199,474	59,75
200,03	57,87
200,586	54,19
201,141	63,45
201,696	53,78
202,251	58,71
202,806	55,74
203,361	56,91
203,916	56,02
204,471	54,46
205,025	55,65
205,58	55,3
206,134	50,2
206,688	59,23
207,242	56,76
207,796	54,66
208,35	56,62
208,904	55,24
209,457	64,34
210,011	53,71
210,564	56,76
211,117	62,13
211,67	60,32
212,223	49,8
212,776	65,25
213,329	55,27
213,881	48,92
214,434	57,38
214,986	58,93
215,538	64,17
216,09	66,67
216,642	60,74
217,194	63,16
217,746	65,34
218,297	62,18
218,849	59,7
219,4	55,41
219,951	64,16
220,502	57,59
221,053	63,98
221,604	64,96
222,155	56,78
222,705	49,79
223,256	52,43
223,806	50,83
224,356	66,67
224,906	59,03
225,456	47,9
226,006	62,05
226,556	58,85
227,106	58,09
227,655	52,56
228,204	64,25
228,754	50,21
229,303	54,05
229,852	60,7
230,401	57,4
230,949	53,19
231,498	50,45
232,047	56,15
232,595	59,84
233,143	67,11
233,691	56,89
234,239	50,76
234,787	70,85
235,335	61,04
235,883	61,71
236,43	58,47
236,978	56,96
237,525	59,57
238,072	54,19
238,619	40,81
239,166	47,41
239,713	56,96
240,26	54,44
240,806	53,88
241,353	67,52
241,899	54,32
242,445	56,07
242,991	59,02
243,537	59,31
244,083	55,2
244,629	51,98
245,174	52,77
245,72	59,85
246,265	66,52
246,81	66,67
247,355	59,49
247,9	58,75
248,445	56,35
248,99	62,98
249,534	50,94
250,079	68,06
250,623	62,39
251,168	66,94
251,712	43,23
252,256	53,31
252,8	53,1
253,343	55,06
253,887	59,74
254,43	58,52
254,974	57,2
255,517	54,81
256,06	57,81
256,603	57,2
257,146	51,15
257,689	55,51
258,232	59,73
258,774	55,07
259,317	59,05
259,859	63,33
260,401	61,21
260,943	53,11
261,485	60,45
262,027	50,21
262,569	48,15
263,11	51,77
263,652	52,65
264,193	61,4
264,734	64,81
265,275	52,36
265,816	54,27
266,357	53,11
266,898	52,56
267,438	58,3
267,979	56,47
268,519	53,85
269,059	46,25
269,6	53,54
270,14	56,03
270,68	46,72
271,219	59,57
271,759	55,46
272,298	53,6
272,838	53,78
273,377	59,01
273,916	55,25
274,455	51,54
274,994	52,53
275,533	54,75
276,072	59,57
276,61	52,19
277,149	58,33
277,687	62,29
278,225	46,09
278,763	47,33
279,301	52,65
279,839	59,43
280,377	54,29
280,914	55,56
281,452	56,91
281,989	59,5
282,526	49,58
283,064	55,94
283,601	56,25
284,137	51,11
284,674	56,49
285,211	51,09
285,747	59,84
286,284	57,33
286,82	49,19
287,356	53,33
287,892	50,21
288,428	48,07
288,964	56,02
289,5	48,84
290,035	48,13
290,571	52,53
291,106	47,51
291,641	52,84
292,176	48
292,711	51,29
293,246	54,41
293,781	58,26
294,315	49,3
294,85	45,82
295,384	47,17
295,918	53,2
296,453	50,2
296,987	58,47
297,52	49,32
298,054	52,49
298,588	53,2
299,121	61,71
299,655	50
300,188	59,32
300,721	60,27
301,254	52,47
301,787	61,4
302,32	50
302,853	61,7
303,385	52,16
303,918	52,44
304,45	53,71
304,982	58
305,514	47,56
306,046	49,12
306,578	52,7
307,11	59,85
307,641	55,04
308,173	55,65
308,704	60,16
309,236	62,17
309,767	55,83
310,298	58,4
310,829	58,91
311,359	59,29
311,89	55,38
312,421	53,88
312,951	54,81
313,481	59,24
314,012	58,53
314,542	50,9
315,072	54,94
315,601	56,05
316,131	51,5
316,661	59,85
317,19	48,57
317,72	52,54
318,249	57,34
318,778	67,49
319,307	59,27
319,836	60
320,365	57,87
320,893	57,87
321,422	56,5
321,95	61,3
322,479	55,42
323,007	52,99
323,535	62,26
324,063	54,47
324,591	61,69
325,118	43,29
325,646	59,05
326,173	55,36
326,701	49,4
327,228	55,92
327,755	51,9
328,282	60,91
328,809	51,75
329,336	59,15
329,862	63,87
330,389	56,39
330,915	51,94
331,441	67,09
331,968	45,82
332,494	56,44
333,02	52,72
333,545	48,18
334,071	50
334,597	55,79
335,122	50,9
335,648	55,2
336,173	58,05
336,698	53,65
337,223	56,34
337,748	53,73
338,272	49,36
338,797	58,57
339,322	56,41
339,846	50,2
340,37	59,83
340,894	47,26
341,419	49,19
341,942	51,94
342,466	46,9
342,99	50,95
343,514	57,09
344,037	48,12
344,56	49,8
345,084	48,73
345,607	44,91
346,13	52,42
346,653	39,48
347,175	55,51
347,698	50,18
348,221	45,34
348,743	61,51
349,265	55,51
349,787	50,87
350,309	40,88
350,831	48,24
351,353	49,8
351,875	52,01
352,397	41,69
352,918	50,6
353,439	43,82
353,961	44,41
354,482	48,66
355,003	49,53
355,524	42,91
356,044	49,82
356,565	40,28
357,086	44,48
357,606	37
358,126	41,47
358,646	37,93
359,167	45,85
359,687	42,9
360,206	47,92
360,726	40,69
361,246	45,51
361,765	41,75
362,285	43,62
362,804	36,59
363,323	43,54
363,842	44,55
364,361	40,25
364,88	43,54
365,398	40,79
365,917	42,01
366,435	39,67
366,954	39,82
367,472	43,24
367,99	38,81
368,508	42,73
369,026	41,36
369,544	37,97
370,061	38,34
370,579	42,82
371,096	36,91
371,613	35,39
372,131	39,95
372,648	37,31
373,165	42,74
373,681	36,39
374,198	36,46
374,715	37,37
375,231	37,28
375,747	41,23
376,264	32,77
376,78	38,15
377,296	31,9
377,812	37,16
378,327	34,74
378,843	32,13
379,359	32,16
379,874	34,72
380,389	31,51
380,905	31,42
381,42	30
381,935	35,99
382,449	33,98
382,964	32,7
383,479	31,32
383,993	33,4
384,508	31,35
385,022	31,64
385,536	29,74
386,05	30,43
386,564	27,02
387,078	31,06
387,592	30,66
388,105	28,81
388,619	26,01
389,132	27,62
389,645	27,34
390,158	28,03
390,671	28,34
391,184	31,26
391,697	25,89
392,21	25,17
392,722	27,21
393,235	27,06
393,747	24,16
394,259	24,15
394,771	27,25
395,283	24,17
395,795	25,07
396,307	24,24
396,818	24,12
397,33	24,68
397,841	20,63
398,353	21,03
398,864	24,35
399,375	20,8
399,886	20,44
400,397	20,17
400,907	19,62
401,418	19,13
401,928	20,97
402,439	18,92
402,949	18,74
403,459	17,96
403,969	18,05
404,479	18,01
404,989	20,28
405,498	16,53
406,008	18,31
406,517	16,69
407,027	16,76
407,536	16,22
408,045	14,47
408,554	13,94
409,063	13,92
409,572	13,38
410,08	12,93
410,589	12,72
411,097	10,94
411,606	11,66
412,114	10,55
412,622	10,01
413,13	10,52
413,638	8,97
414,145	9,14
414,653	8,55
415,16	9,09
415,668	9,61
416,175	9,05
416,682	8,98
417,189	8,42
417,696	9,36
418,203	9
418,71	7,8
419,216	8,45
419,723	7,99
420,229	7,61
420,735	7,43
421,242	7,54
421,748	7,39
422,254	8,11
422,759	7,45
423,265	6,81
423,771	6,59
424,276	6,49
424,781	6,66
425,287	6,94
425,792	6,61
426,297	6,56
426,802	6,42
427,306	6,58
427,811	6,53
428,316	7,35
428,82	6,7
429,324	6,81
429,829	6,71
430,333	6,51
430,837	6,27
431,34	5,81
431,844	6,21
432,348	6,42
432,851	6,88
433,355	5,04
433,858	5,99
434,361	5,83
434,864	5,6
435,367	6,54
435,87	5,57
436,373	5,76
436,876	6,6
437,378	6,14
437,88	5,61
438,383	5,5
438,885	5,33
439,387	4,97
439,889	5,13
440,391	5,38
440,892	5,69
441,394	5,55
441,896	5,82
442,397	5,7
442,898	5,61
443,399	5,4
443,9	5,44
444,401	5,42
444,902	5,03
445,403	4,99
445,903	5,62
446,404	5,8
446,904	5,66
447,405	5,7
447,905	5,29
448,405	5,37
448,905	5,47
449,404	5,11
449,904	5,21
450,404	5,28
450,903	5,44
451,403	5,02
451,902	5,64
452,401	5,51
452,9	5,52
453,399	5,45
453,898	4,84
454,396	5,58
454,895	5,21
455,393	5,47
455,892	5,31
456,39	5,4
456,888	5,76
457,386	5,22
457,884	5,26
458,382	5,34
458,879	5,74
459,377	5,43
459,874	5,38
460,372	5,09
460,869	5,24
461,366	4,62
461,863	5,43
462,36	4,88
462,857	5,09
463,353	5,33
463,85	4,92
464,346	5,01
464,843	5,34
465,339	4,93
465,835	5,21
466,331	4,88
466,827	4,85
467,323	4,91
467,818	4,88
468,314	5,07
468,809	5,1
469,305	5,01
469,8	5,24
470,295	5,23
470,79	5,16
471,285	5,23
471,78	4,81
472,274	5,09
472,769	4,66
473,263	4,81
473,758	5,02
474,252	4,72
474,746	5,02
475,24	5,31
475,734	4,93
476,228	4,87
476,721	5,12
477,215	4,78
477,708	4,89
478,202	4,85
478,695	4,78
479,188	5,2
479,681	4,56
480,174	4,55
480,667	4,87
481,159	5,24
481,652	4,96
482,144	5,25
482,637	4,93
483,129	4,81
483,621	5,15
484,113	4,84
484,605	4,79
485,097	5,13
485,588	4,97
486,08	5,03
486,571	5,21
487,063	5,14
487,554	4,71
488,045	4,74
488,536	4,74
489,027	4,84
489,518	5,02
490,008	5,07
490,499	5,37
490,989	5,25
491,48	5,16
491,97	5,13
492,46	5,04
492,95	5,07
493,44	4,91
493,93	5,27
494,419	5,36
494,909	4,94
495,398	5,26
495,888	5,29
496,377	5,37
496,866	5,41
497,355	5,41
497,844	5,39
498,333	5,33
498,821	5,44
499,31	5,47
499,798	5,77
500,287	5,88
500,775	5,68
501,263	5,65
501,751	5,52
502,239	5,7
502,727	5,73
503,215	5,95
503,702	5,92
504,19	5,81
504,677	6,31
505,164	6,25
505,651	6,37
506,139	6,38
506,625	6,63
507,112	6,82
507,599	6,83
508,086	6,97
508,572	7,49
509,058	6,96
509,545	7,33
510,031	7,31
510,517	7,43
511,003	7,66
511,489	7,7
511,974	7,95
512,46	7,86
512,946	8,36
513,431	8,35
513,916	8,72
514,401	9,03
514,887	9,04
515,371	9,34
515,856	9,74
516,341	9,35
516,826	10,16
517,31	10,03
517,795	10,55
518,279	10,39
518,763	10,78
519,247	10,72
519,731	11,09
520,215	11,23
520,699	11,54
521,182	12,12
521,666	12,31
522,149	12,54
522,633	12,71
523,116	12,82
523,599	13,06
524,082	13,14
524,565	13,62
525,048	13,79
525,53	13,61
526,013	14,18
526,495	14,54
526,978	14,55
527,46	15,02
527,942	15,06
528,424	15,29
528,906	15,48
529,388	15,75
529,87	15,95
530,351	15,97
530,833	15,69
531,314	16,21
531,795	16,22
532,277	16,16
532,758	16,72
533,238	17,52
533,719	16,78
534,2	17,2
534,681	17,24
535,161	17,29
535,642	17,07
536,122	17,48
536,602	17,51
537,082	17,72
537,562	17,76
538,042	17,4
538,522	17,5
539,001	17,68
539,481	17,71
539,96	18,16
540,44	17,65
540,919	17,86
541,398	18,13
541,877	17,86
542,356	18,18
542,835	18,24
543,313	18,21
543,792	18,28
544,27	18,6
544,749	18,19
545,227	18,33
545,705	18,33
546,183	18,5
546,661	19,13
547,139	18,3
547,616	18,55
548,094	18,63
548,571	18,9
549,049	18,44
549,526	18,75
550,003	18,47
550,48	18,86
550,957	19,2
551,434	18,6
551,911	18,92
552,387	18,54
552,864	18,78
553,34	18,85
553,817	18,86
554,293	18,71
554,769	18,79
555,245	18,88
555,721	18,83
556,197	18,84
556,672	18,72
557,148	18,53
557,623	18,91
558,099	18,61
558,574	18,68
559,049	18,33
559,524	18,7
559,999	18,06
560,474	18,01
560,948	18,11
561,423	18,07
561,897	17,96
562,372	18,47
562,846	17,87
563,32	17,91
563,794	17,73
564,268	17,6
564,742	17,71
565,216	17,65
565,69	17,48
566,163	17,51
566,636	17,19
567,11	17,15
567,583	16,98
568,056	16,71
568,529	16,6
569,002	16,79
569,475	16,32
569,947	16,12
570,42	16,24
570,892	15,85
571,365	15,9
571,837	15,71
572,309	15,85
572,781	15,39
573,253	15,03
573,725	15,31
574,197	14,82
574,668	14,85
575,14	14,43
575,611	14,53
576,082	14,24
576,554	14,25
577,025	13,92
577,496	13,91
577,967	13,93
578,437	13,94
578,908	13,85
579,379	13,69
579,849	13,33
580,319	13,52
580,79	13,21
581,26	12,98
581,73	12,78
582,2	12,88
582,669	12,78
583,139	12,88
583,609	12,86
584,078	12,44
584,548	12,42
585,017	12,49
585,486	12,43
585,955	12,37
586,424	12,1
586,893	12,16
587,362	11,94
587,83	11,97
588,299	11,81
588,767	11,9
589,236	12
589,704	11,86
590,172	11,58
590,64	11,61
591,108	11,45
591,576	11,61
592,043	11,47
592,511	11,56
592,978	11,67
593,446	11,17
593,913	11,64
594,38	11,66
594,847	11,44
595,314	11,17
595,781	11,43
596,248	11,12
596,715	11,4
597,181	11,25
597,647	11,25
598,114	11,2
598,58	11,19
599,046	11,24
599,512	10,99
599,978	11,15
600,444	11,16
600,91	10,98
601,375	11,05
601,841	10,93
602,306	10,9
602,771	10,77
603,236	10,61
603,702	10,64
604,167	10,76
604,631	10,66
605,096	10,6
605,561	10,59
606,025	10,55
606,49	10,53
606,954	10,58
607,418	10,47
607,882	10,22
608,347	10,39
608,81	10,04
609,274	10,13
609,738	10,14
610,202	9,92
610,665	9,93
611,128	9,77
611,592	9,69
612,055	9,58
612,518	9,37
612,981	9,55
613,444	9,51
613,907	9,14
614,369	9,35
614,832	9,08
615,294	9,16
615,757	9
616,219	9,26
616,681	9,26
617,143	8,98
617,605	8,71
618,067	8,96
618,529	8,76
618,99	8,92
619,452	8,65
619,913	8,6
620,375	8,72
620,836	8,44
621,297	8,36
621,758	8,47
622,219	8,32
622,68	8,35
623,14	8,18
623,601	8,25
624,061	8,27
624,522	8,26
624,982	8,25
625,442	8,25
625,902	8,39
626,362	8,2
626,822	8,38
627,282	8,44
627,742	8,11
628,201	8,04
628,661	8,23
629,12	8,22
629,579	7,91
630,038	8,18
630,497	8
630,956	8
631,415	7,91
631,874	7,82
632,332	8,04
632,791	7,92
633,249	7,94
633,708	7,86
634,166	7,95
634,624	7,73
635,082	8
635,54	7,77
635,998	7,63
636,455	7,58
636,913	7,59
637,37	7,61
637,828	7,46
638,285	7,23
638,742	7,44
639,199	7,19
639,656	7,14
640,113	7,14
640,57	7,09
641,027	7,05
641,483	6,98
641,94	6,83
642,396	6,85
642,852	6,91
643,309	6,59
643,765	6,55
644,221	6,57
644,676	6,31
645,132	6,43
645,588	6,38
646,043	6,31
646,499	6,23
646,954	6,19
647,409	6,2
647,864	6
648,319	5,92
648,774	5,88
649,229	6,01
649,684	5,93
650,139	5,68
650,593	5,69
651,047	5,71
651,502	5,72
651,956	5,61
652,41	5,55
652,864	5,39
653,318	5,54
653,772	5,56
654,225	5,39
654,679	5,37
655,133	5,39
655,586	5,43
656,039	5,46
656,492	5,28
656,946	5,32
657,399	5,15
657,851	5,19
658,304	5,16
658,757	5,04
659,209	5,15
659,662	5,14
660,114	5,08
660,567	4,94
661,019	4,87
661,471	4,84
661,923	4,91
662,375	4,86
662,826	4,8
663,278	4,88
663,73	4,79
664,181	4,82
664,632	4,59
665,084	4,63
665,535	4,85
665,986	4,75
666,437	4,69
666,888	4,74
667,338	4,81
667,789	4,77
668,24	4,82
668,69	4,68
669,14	4,85
669,591	4,89
670,041	4,8
670,491	4,88
670,941	5,05
671,391	4,96
671,84	5,1
672,29	5,09
672,74	5,12
673,189	5,28
673,638	5,22
674,088	5,31
674,537	5,45
674,986	5,58
675,435	5,5
675,883	5,51
676,332	5,72
676,781	5,84
677,229	5,85
677,678	5,86
678,126	5,91
678,574	5,98
679,022	6,18
679,47	6,3
679,918	6,39
680,366	6,45
680,814	6,46
681,261	6,53
681,709	6,66
682,156	6,78
682,604	6,82
683,051	6,96
683,498	6,9
683,945	7,28
684,392	7,21
684,839	7,09
685,286	7,35
685,732	7,32
686,179	7,44
686,625	7,46
687,071	7,65
687,518	7,48
687,964	7,76
688,41	7,67
688,856	7,97
689,301	8,07
689,747	8,02
690,193	8,61
690,638	8,61
691,084	8,59
691,529	9,22
691,974	9,33
692,419	9,6
692,864	10,02
693,309	10,22
693,754	10,35
694,199	11,02
694,643	11
695,088	11,72
695,532	11,79
695,977	12,46
696,421	12,71
696,865	13,08
697,309	13,42
697,753	13,98
698,197	14,53
698,64	14,87
699,084	15,42
699,527	15,79
699,971	16,31
700,414	16,85
700,857	17,05
701,3	17,6
701,743	18,05
702,186	18,44
702,629	18,93
703,072	19,37
703,515	19,71
703,957	20,22
704,399	20,55
704,842	21,05
705,284	21,15
705,726	21,99
706,168	22,42
706,61	22,66
707,052	22,89
707,494	23,39
707,935	23,73
708,377	24,08
708,818	24,66
709,26	25,06
709,701	25,16
710,142	25,75
710,583	26,01
711,024	26,55
711,465	26,7
711,905	27,1
712,346	27,47
712,787	27,44
713,227	28,49
713,667	28,5
714,108	28,88
714,548	28,96
714,988	29,42
715,428	29,97
715,868	29,95
716,307	30,28
716,747	30,81
717,186	31,1
717,626	31,46
718,065	31,76
718,504	31,95
718,944	32,11
719,383	32,46
719,822	32,57
720,261	33,14
720,699	33,56
721,138	33,71
721,576	33,55
722,015	34,02
722,453	34,12
722,892	34,5
723,33	34,76
723,768	34,78
724,206	35,16
724,644	35
725,081	35,32
725,519	35,3
725,957	35,68
726,394	36,09
726,832	36
727,269	36,59
727,706	36,32
728,143	36,69
728,58	36,96
729,017	37,13
729,454	37,15
729,89	36,95
730,327	37,52
730,764	37,69
731,2	37,67
731,636	37,76
732,072	37,77
732,509	37,88
732,945	38,15
733,38	38,21
733,816	38,17
734,252	38,09
734,688	38,39
735,123	38,5
735,559	38,14
735,994	38,26
736,429	38,84
736,864	38,84
737,299	38,8
737,734	38,53
738,169	39,32
738,604	39
739,038	38,8
739,473	39,23
739,907	38,9
740,342	39,23
740,776	38,76
741,21	39,01
741,644	39,21
742,078	38,92
742,512	39,13
742,946	38,97
743,379	39,19
743,813	39,7
744,246	39,37
744,68	39,02
745,113	39,16
745,546	39
745,979	39,27
746,412	39,21
746,845	39,07
747,278	39,04
747,711	38,87
748,143	39,26
748,576	39,13
749,008	38,77
749,441	38,84
749,873	39,09
750,305	38,72
750,737	38,86
751,169	38,9
751,601	38,99
752,032	39,07
752,464	38,79
752,896	38,76
753,327	39,17
753,758	39,2
754,19	39,02
754,621	38,83
755,052	38,72
755,483	38,79
755,914	38,53
756,344	38,72
756,775	38,69
757,206	38,53
757,636	38,47
758,066	38,34
758,497	38,64
758,927	38,55
759,357	38,7
759,787	38,63
760,217	38,31
760,647	38,31
761,076	38,24
761,506	38,26
761,935	38,84
762,365	38,26
762,794	38,75
763,223	37,83
763,653	38,44
764,082	38,4
764,51	38,02
764,939	38,32
765,368	38
765,797	38,11
766,225	37,85
766,654	38,02
767,082	37,79
767,51	38,13
767,938	37,6
768,367	37,87
768,795	37,77
769,222	37,97
769,65	37,87
770,078	37,93
770,505	37,67
770,933	37,9
771,36	37,52
771,788	37,47
772,215	37,92
772,642	37,65
773,069	37,75
773,496	37,24
773,923	37,77
774,349	37,7
774,776	37,42
775,203	37,73
775,629	37,69
776,055	37,29
776,482	37,44
776,908	37,18
777,334	37,24
777,76	37,34
778,186	37,28
778,611	37,5
779,037	37,2
779,463	37,46
779,888	36,86
780,314	37,15
780,739	36,98
781,164	36,98
781,589	37,13
782,014	36,86
782,439	37,37
782,864	37,32
783,289	37,05
783,713	36,93
784,138	37,25
784,562	37,25
784,987	37,11
785,411	37,07
785,835	37,29
786,259	37,28
786,683	37,04
787,107	37
787,531	37,18
787,954	36,82
788,378	37,13
788,802	37,19
789,225	36,99
789,648	37,08
790,071	36,89
790,495	37,1
790,918	36,88
791,34	36,98
791,763	36,76
792,186	36,95
792,609	36,91
793,031	36,73
793,454	36,85
793,876	36,89
794,298	37,15
794,721	36,94
795,143	36,77
795,565	37,38
795,986	36,52
796,408	37,02
796,83	37,06
797,252	36,49
797,673	36,61
798,094	36,8
798,516	36,72
798,937	36,59
799,358	36,8
799,779	36,91
800,2	36,69
800,621	36,43
801,042	36,92
801,462	36,78
801,883	36,62
802,303	36,61
802,724	36,9
803,144	36,9
803,564	36,84
803,984	36,85
804,404	36,66
804,824	36,66
805,244	36,96
805,664	37,17
806,084	36,48
806,503	36,67
806,923	36,55
807,342	36,86
807,761	36,67
808,18	36,97
808,599	36,78
809,018	36,95
809,437	36,64
809,856	36,23
810,275	36,89
810,693	36,73
811,112	36,61
811,53	36,89
811,949	36,72
812,367	36,73
812,785	36,24
813,203	36,3
813,621	36,36
814,039	36,85
814,457	36,67
814,874	36,53
815,292	36,52
815,709	36,43
816,127	36,81
816,544	36,29
816,961	36,6
817,378	36,57
817,795	36,38
818,212	36,5
818,629	36,77
819,046	36,53
819,462	37,04
819,879	36,62
820,295	36,58
820,712	36,62
821,128	36,55
821,544	36,44
821,96	36,27
822,376	36,8
822,792	36,41
823,208	36,38
823,624	36,34
824,039	36,75
824,455	36,24
824,87	36,17
825,286	36,35
825,701	36,3
826,116	36,46
826,531	36,64
826,946	36,28
827,361	36,35
827,776	36,36
828,19	36,49
828,605	36,21
829,02	36,48
829,434	36,22
829,848	36,67
830,263	36,42
830,677	36,45
831,091	36,22
831,505	36,17
831,919	36,39
832,332	36,44
832,746	36,43
833,16	36,47
833,573	36,19
833,987	36,19
834,4	36,37
834,813	36,15
835,226	36,31
835,639	36,05
836,052	36,66
836,465	36,2
836,878	36,27
837,29	36,12
837,703	36,4
838,116	36,43
838,528	36,34
838,94	36,55
839,352	36,68
839,765	36,28
840,177	36,26
840,589	36,26
841	36,19
841,412	36,39
841,824	36,21
842,235	36,22
842,647	36,19
843,058	36,15
843,47	36,22
843,881	36,42
844,292	36,26
844,703	36,06
845,114	36,2
845,525	36,3
845,935	36,15
846,346	35,83
846,757	36,05
847,167	36,12
847,577	35,81
847,988	36,39
848,398	36,06
848,808	36,3
849,218	36,38
849,628	36,2
850,038	36,08
850,448	36,13
850,857	36,15
851,267	36,45
851,676	36,3
852,086	36,42
852,495	36,2
852,904	36,31
853,313	36,49
853,722	36,07
854,131	36,23
854,54	36,12
854,949	35,97
855,357	36,47
855,766	36,1
856,174	36,04
856,583	36,29
856,991	35,98
857,399	36,36
857,807	36,1
858,215	36,24
858,623	36,31
859,031	35,84
859,439	35,95
859,846	36,55
860,254	36,1
860,661	35,81
861,069	36,57
861,476	36,12
861,883	35,99
862,29	36,38
862,697	35,97
863,104	36,25
863,511	36,15
863,918	36,32
864,325	35,98
864,731	35,94
865,138	36,06
865,544	36
865,95	36,17
866,357	36,09
866,763	36,1
867,169	36,48
867,575	36,38
867,98	36,05
868,386	36,24
868,792	36,16
869,197	36,2
869,603	36,34
870,008	36,12
870,414	36,03
870,819	36,3
871,224	35,96
871,629	35,86
872,034	35,72
872,439	36,01
872,844	35,7
873,248	35,89
873,653	35,92
874,057	35,88
874,462	36,05
874,866	35,87
875,27	36,11
875,674	36,18
876,078	35,67
876,482	35,76
876,886	35,96
877,29	36,08
877,694	35,79
878,097	36,01
878,501	35,89
878,904	35,74
879,308	35,63
879,711	35,95
880,114	35,72
880,517	35,9
880,92	36
881,323	35,73
881,726	36,24
882,128	36,19
882,531	35,94
882,934	36,1
883,336	35,67
883,738	35,66
884,141	36,32
884,543	35,84
884,945	35,91
885,347	36,01
885,749	35,91
886,151	36,05
886,552	35,8
886,954	36,04
887,355	35,53
887,757	35,81
888,158	35,92
888,56	36,83
888,961	36,06
889,362	35,75
889,763	35,97
890,164	36,16
890,565	35,84
890,965	35,76
891,366	36,21
891,767	35,99
892,167	35,45
892,567	35,78
892,968	36,24
893,368	35,69
893,768	35,65
894,168	35,62
894,568	36,11
894,968	35,96
895,368	35,63
895,767	35,9
896,167	35,84
896,566	36,08
896,966	35,89
897,365	36,01
897,764	35,99
898,164	35,55
898,563	35,97
898,962	35,91
899,361	35,76
899,759	35,91
900,158	36,09
900,557	36,17
900,955	36,03
901,354	35,74
901,752	36
902,15	36,24
902,548	35,66
902,947	35,82
903,345	35,64
903,742	35,87
904,14	35,58
904,538	35,91
904,936	35,92
905,333	36,01
905,731	36,02
906,128	36,2
906,525	35,64
906,923	36,22
907,32	35,89
907,717	35,9
908,114	35,47
908,511	35,88
908,907	35,74
909,304	35,96
909,701	36,02
910,097	35,96
910,494	35,72
910,89	36,05
911,286	35,9
911,682	35,85
912,078	36,09
912,474	35,92
912,87	35,52
913,266	36,36
913,662	35,62
914,058	35,78
914,453	35,91
914,849	36,48
915,244	36,11
915,639	36,13
916,034	36,12
916,43	35,73
916,825	35,69
917,22	35,81
917,614	35,85
918,009	36,08
918,404	35,91
918,798	35,52
919,193	36,02
919,587	35,86
919,982	36,03
920,376	36,04
920,77	36,38
921,164	35,73
921,558	36,06
921,952	35,5
922,346	35,76
922,74	36,14
923,133	36,05
923,527	35,56
923,92	35,48
924,314	35,87
924,707	35,7
925,1	35,59
925,493	35,95
925,886	36,12
926,279	35,5
926,672	35,79
927,065	35,87
927,457	35,22
927,85	35,96
928,243	36,07
928,635	35,76
929,027	35,4
929,42	35,98
929,812	35,67
930,204	35,51
930,596	36,07
930,988	35,54
931,379	35,6
931,771	35,89
932,163	35,61
932,554	35,57
932,946	35,8
933,337	35,92
933,729	35,44
934,12	35,42
934,511	35,38
934,902	35,94
935,293	35,67
935,684	35,69
936,075	35,97
936,465	35,99
936,856	35,38
937,246	36,11
937,637	36,03
938,027	35,79
938,417	35,34
938,808	35,64
939,198	36,08
939,588	36,6
939,978	36,6
940,368	34,78
940,757	35,43
941,147	35,73
941,537	36,2
941,926	35,51
942,315	35,13
942,705	35,65
943,094	36,16
943,483	36,03
943,872	35,84
944,261	35,43
944,65	35,04
945,039	35,96
945,428	36,46
945,816	36,51
946,205	35,89
946,593	35,17
946,982	34,75
947,37	35,87
947,758	35,74
948,146	35,51
948,534	35,53
948,922	36,25
949,31	35,97
949,698	35,11
950,086	35,65
950,473	36,12
950,861	35,05
951,248	35,46
951,636	35,09
952,023	35,29
952,41	34,38
952,797	35,25
953,184	34,57
953,571	35,03
953,958	34,7
954,345	35,26
954,731	35,66
955,118	34,2
955,505	34,75
955,891	35,39
956,277	34,54
956,664	35,12
957,05	35,06
957,436	35,01
957,822	34,62
958,208	34,45
958,594	35,03
958,979	34,7
959,365	34,81
959,751	34,56
960,136	35,1
960,522	35,28
960,907	35,18
961,292	34,81
961,677	34,57
962,062	34,81
962,447	34,95
962,832	34,8
963,217	34,45
963,602	34,55
963,986	34,29
964,371	34,78
964,756	34,06
965,14	34,92
965,524	34,6
965,908	34,84
966,293	34,42
966,677	34,42
967,061	34,71
967,445	34,95
967,828	35,35
968,212	33,93
968,596	34,48
968,979	34,49
969,363	34,51
969,746	34,71
970,129	34,92
970,513	34,49
970,896	34,92
971,279	34,26
971,662	34,63
972,045	34,35
972,428	34,66
972,81	35,42
973,193	35
973,575	34,26
973,958	34,37
974,34	34,45
974,723	34,57
975,105	34,55
975,487	34,28
975,869	34,72
976,251	34,72
976,633	34,87
977,015	34,92
977,396	34,15
977,778	34,97
978,16	34,98
978,541	34,31
978,922	34,56
979,304	34,72
979,685	34,56
980,066	34,17
980,447	34,86
980,828	34,77
981,209	35,04
981,59	34,94
981,97	34,72
982,351	34,31
982,732	34,81
983,112	34,39
983,493	34,95
983,873	33,87
984,253	34,7
984,633	35,02
985,013	34,97
985,393	34,76
985,773	34,57
986,153	35,03
986,533	34,85
986,912	34,71
987,292	34,42
987,671	34,56
988,051	35,04
988,43	34,94
988,809	35,08
989,188	35,12
989,567	35,07
989,946	35
990,325	34,74
990,704	34,65
991,083	34,76
991,461	34,82
991,84	34,9
992,218	35,34
992,597	35,31
992,975	34,93
993,353	35,28
993,732	34,5
994,11	34,6
994,488	34,53
994,866	34,72
995,243	34,85
995,621	34,28
995,999	35,14
996,376	34,67
996,754	34,43
997,131	35,06
997,509	34,86
997,886	34,97
998,263	34,24
998,64	34,67
999,017	35
999,394	34,62
999,771	35,16
1000,148	34,95
1000,524	35,49
1000,901	34,62
1001,277	35,38
1001,654	34,84
1002,03	35,46
1002,406	34,98
1002,783	35,26
1003,159	34,62
1003,535	34,75
1003,911	34,38
1004,286	34,94
1004,662	35,16
1005,038	35,22
1005,414	34,53
1005,789	34,8
1006,164	35,2
1006,54	35,1
1006,915	34,88
1007,29	35,36
1007,665	34,91
1008,04	35,58
1008,415	34,96
1008,79	35,11
1009,165	34,78
1009,54	34,83
1009,914	35,34
1010,289	34,8
1010,663	34,99
1011,038	34,58
1011,412	35,54
1011,786	34,91
1012,16	35,6
1012,535	35,44
1012,909	34,87
1013,282	34,67
1013,656	34,56
1014,03	35,2
1014,404	34,52
1014,777	34,92
1015,151	35,2
1015,524	35,5
1015,897	36,05
1016,271	34,98
1016,644	35,38
1017,017	36,35
1017,39	34,98
1017,763	35,37
1018,136	34,57
1018,508	36,52
1018,881	34,63
1019,254	35,35
1019,626	35,29
1019,999	35,2
1020,371	35,38
1020,743	34,55
1021,116	35,72
1021,488	35,19
1021,86	35,07
1022,232	35,25
1022,604	34,96
1022,975	35,54
1023,347	35,72
1023,719	35,59
1024,09	35,93
1024,462	34,93
1024,833	34,7
1025,204	35,61
1025,576	34,5
1025,947	34,71
1026,318	34,58
1026,689	34,93
1027,06	36,42
1027,431	35,17
1027,801	35,04
1028,172	35,03
1028,543	35,04
1028,913	35,29
1029,284	35,34
1029,654	35,17
1030,024	35,26
1030,394	35,41
1030,764	34,5
1031,135	35,49
1031,504	36,7
1031,874	35,92
1032,244	35,41
1032,614	35,59
1032,983	34,86
1033,353	35,16
1033,722	35,26
1034,092	36,22
1034,461	34,97
1034,83	35,53
1035,2	35,29
1035,569	35,42
1035,938	35,74
1036,307	36,06
1036,675	36,11
1037,044	35,52
1037,413	34,95
1037,781	34,21
1038,15	35,68
1038,518	35,52
1038,887	35,8
1039,255	35,36
1039,623	35,75
1039,991	35,6
1040,359	35,48
1040,727	35,38
1041,095	35,36
1041,463	35,26
1041,831	35,71
1042,198	35,11
1042,566	34,72
1042,933	35,47
1043,301	35,89
1043,668	36,18
1044,035	35,18
1044,402	36,61
1044,77	34,59
1045,137	35,6
1045,503	36,17
1045,87	36
1046,237	34,55
1046,604	35,85
1046,97	35,64
1047,337	36,13
1047,703	35,6
1048,07	35,17
1048,436	35,47
1048,802	36,31
1049,168	35,6
1049,534	36,1
1049,9	36,69
1050,266	35,82
1050,632	36,42
1050,998	35,98
1051,364	34,85
1051,729	36,54
1052,095	36,22
1052,46	35,67
1052,825	36,52
1053,191	35,46
1053,556	35,14
1053,921	35,85
1054,286	34,66
1054,651	35,73
1055,016	36,22
1055,381	36,44
1055,745	35,24
1056,11	36,19
1056,475	34,56
1056,839	36,82
1057,203	36,08
1057,568	34,68
1057,932	36,67
1058,296	38,17
1058,66	36,04
1059,024	35,59
1059,388	34,64
1059,752	35,62
1060,116	36,42
1060,48	36,38
1060,843	36,43
1061,207	35,61
1061,57	35,89
1061,934	36,93
1062,297	35,55
1062,66	36,07
1063,023	36,16
1063,386	38,72
1063,749	35,94
1064,112	36,55
1064,475	36,78
1064,838	35,3
1065,201	36,69
1065,563	36,79
1065,926	37,59
1066,288	36,61
1066,651	35,52
1067,013	37,1
1067,375	35,05
1067,737	37,17
1068,099	36,54
1068,461	35,71
1068,823	37,15
1069,185	37,98
1069,547	36,84
1069,909	36,81
1070,27	37,73
1070,632	36,9
1070,993	36,55
1071,355	36,39
1071,716	36,32
1072,077	37,64
1072,438	35,41
1072,799	36,14
1073,16	37,43
1073,521	36,61
1073,882	36,58
1074,243	37,01
1074,603	37,62
1074,964	37,83
1075,325	37,43
1075,685	37,41
1076,045	37,32
1076,406	36,38
1076,766	37,97
1077,126	37,41
1077,486	38,18
1077,846	37,88
1078,206	36,87
1078,566	37,87
1078,925	36,47
1079,285	36,58
1079,645	38,01
1080,004	37,76
1080,364	36,23
1080,723	37,64
1081,082	36,5
1081,442	39,2
1081,801	36,23
1082,16	38,76
1082,519	37,65
1082,878	34,89
1083,237	36,88
1083,595	37,95
1083,954	37,57
1084,313	37,67
1084,671	36,5
1085,03	37,04
1085,388	37,42
1085,746	38,36
1086,104	37,84
1086,463	36,81
1086,821	40,89
1087,179	37,01
1087,537	37,5
1087,894	38,52
1088,252	38,26
1088,61	38,01
1088,967	37,41
1089,325	38,01
1089,682	36,33
1090,04	37,02
1090,397	38,36
1090,754	37,92
1091,111	37,66
1091,469	36,59
1091,826	38,86
1092,182	34,58
1092,539	37,84
1092,896	39,04
1093,253	36,66
1093,609	39,11
1093,966	36,18
1094,322	38,93
1094,679	37,86
1095,035	37,01
1095,391	38,21
1095,748	36,95
1096,104	40,1
1096,46	36,81
1096,816	38,04
1097,171	38,82
1097,527	36,67
1097,883	38,07
1098,239	39,35
1098,594	37,99
1098,95	37,05
1099,305	39,59
1099,66	37,5
1100,016	38,52
1100,371	39,72
1100,726	41,02
1101,081	38,92
1101,436	38,62
1101,791	39,33
1102,146	41,45
1102,5	39,06
1102,855	40,28
1103,21	41,85
1103,564	39,57
1103,918	39,7
1104,273	38,19
1104,627	39,12
1104,981	40,79
1105,335	36,44
1105,69	37,37
1106,043	38,75
1106,397	38,94
1106,751	39,65
1107,105	43,11
1107,459	39,09
1107,812	41,01
1108,166	39,7
1108,519	40,19
1108,873	38,77
1109,226	40,41
1109,579	40,09
1109,932	41,61
1110,285	39,66
1110,638	38,52
1110,991	39,66
1111,344	39,43
1111,697	41,77
1112,05	41,68
1112,402	45,36
1112,755	43,15
1113,107	44,94
1113,46	43,01
1113,812	41,73
1114,164	42,28
1114,517	42,63
1114,869	69,54
1115,221	72,92
1115,573	70,07
1115,924	67,53
