Data from F_5_Relative__4__00130.txt Node

Date: Tue Jan 30 10:08:36 CET 2024
User: diatiterra
Spectrometer: HDX00911
Trigger mode: 0
Integration Time (sec): 6,000000E-3
Scans to average: 2
Nonlinearity correction enabled: false
Boxcar width: 0
Storing dark spectrum: false
XAxis mode: Wavelengths
Number of Pixels in Spectrum: 2068
>>>>>Begin Spectral Data<<<<<
194,468	83,98
195,025	79,84
195,581	77,27
196,138	77,07
196,694	73,13
197,251	63,44
197,807	68,33
198,363	61,07
198,919	64,26
199,474	67,8
200,03	60,63
200,586	63,88
201,141	59,24
201,696	60,5
202,251	60,7
202,806	58,72
203,361	64,63
203,916	58,92
204,471	62,87
205,025	73,64
205,58	64,06
206,134	60,16
206,688	62,66
207,242	73,87
207,796	61,44
208,35	72,15
208,904	62,9
209,457	63,95
210,011	64,63
210,564	57,21
211,117	69,79
211,67	60,32
212,223	68,13
212,776	70,76
213,329	71,31
213,881	70,56
214,434	65,16
214,986	61,16
215,538	70,87
216,09	67,87
216,642	68,6
217,194	80,38
217,746	69,72
218,297	62,18
218,849	65,4
219,4	64,5
219,951	72,57
220,502	67,32
221,053	71,61
221,604	66,54
222,155	68,22
222,705	60,43
223,256	61,8
223,806	67,5
224,356	72,06
224,906	71,37
225,456	71,85
226,006	70,98
226,556	68,14
227,106	67,22
227,655	60,47
228,204	72,85
228,754	70,04
229,303	68,92
229,852	61,14
230,401	66,82
230,949	63,12
231,498	69,2
232,047	73,36
232,595	66,27
233,143	64,47
233,691	68,9
234,239	59,16
234,787	64,13
235,335	67,53
235,883	66,22
236,43	68,22
236,978	68,7
237,525	69,36
238,072	65,64
238,619	59,19
239,166	62,93
239,713	63,71
240,26	60,48
240,806	65,52
241,353	70,94
241,899	68,31
242,445	60,67
242,991	65,57
243,537	65,37
244,083	67,42
244,629	57,27
245,174	64,68
245,72	63,71
246,265	60,63
246,81	75,11
247,355	64,96
247,9	69,58
248,445	61,9
248,99	54,89
249,534	62,64
250,079	68,06
250,623	66,37
251,168	63,67
251,712	59,83
252,256	54,96
252,8	58,85
253,343	64,37
253,887	67,53
254,43	67,41
254,974	65,6
255,517	66,83
256,06	59,07
256,603	60,49
257,146	63,85
257,689	66,53
258,232	74,66
258,774	61,23
259,317	68,97
259,859	72,38
260,401	64,95
260,943	54,36
261,485	63,18
262,027	53,19
262,569	71,3
263,11	60,62
263,652	58,85
264,193	63,26
264,734	64,35
265,275	58,37
265,816	56,41
266,357	62,66
266,898	66,24
267,438	65,53
267,979	59,91
268,519	62,02
269,059	52,57
269,6	69,03
270,14	58,19
270,68	59,43
271,219	70,43
271,759	64,63
272,298	62
272,838	60,16
273,377	70,27
273,916	57,98
274,455	58,46
274,994	61,29
275,533	59,7
276,072	66,81
276,61	65,79
277,149	67,5
277,687	76,27
278,225	64,2
278,763	51,53
279,301	62,04
279,839	65,98
280,377	55,51
280,914	60,65
281,452	65,45
281,989	66,12
282,526	65,83
283,064	64,75
283,601	69,58
284,137	70,22
284,674	61,09
285,211	65,94
285,747	66,14
286,284	67,67
286,82	63,31
287,356	62,22
287,892	66,26
288,428	58,8
288,964	67,22
289,5	60
290,035	58,92
290,571	62,65
291,106	66,52
291,641	63,32
292,176	69,6
292,711	64,66
293,246	63,98
293,781	57,39
294,315	64,65
294,85	59,76
295,384	63,68
295,918	64,4
296,453	62,75
296,987	58,05
297,52	57,47
298,054	64,71
298,588	62,8
299,121	62,61
299,655	59,91
300,188	63,56
300,721	72,77
301,254	59,19
301,787	71,49
302,32	56,41
302,853	67,66
303,385	61,57
303,918	55,11
304,45	60,26
304,982	60,4
305,514	58,13
306,046	65,93
306,578	61
307,11	65,91
307,641	63,03
308,173	66,96
308,704	67,48
309,236	62,17
309,767	60
310,298	65,6
310,829	63,57
311,359	65,49
311,89	61,15
312,421	55,92
312,951	60,25
313,481	65,88
314,012	64,34
314,542	58,56
315,072	62,23
315,601	62,1
316,131	66,09
316,661	66,8
317,19	52,65
317,72	61,02
318,249	64,68
318,778	71,19
319,307	65,32
319,836	68
320,365	64,26
320,893	70,87
321,422	65,02
321,95	61,74
322,479	69,08
323,007	60,96
323,535	59,25
324,063	64,2
324,591	63,98
325,118	59,31
325,646	56,47
326,173	61,61
326,701	56,97
327,228	65,31
327,755	60,48
328,282	67,73
328,809	60,96
329,336	57,87
329,862	64,6
330,389	60,35
330,915	59,69
331,441	69,62
331,968	61,35
332,494	54,67
333,02	54,81
333,545	53,44
334,071	66,39
334,597	60,33
335,122	64,41
335,648	58
336,173	65,25
336,698	60,09
337,223	63,38
337,748	60,78
338,272	63,95
338,797	62,55
339,322	70,94
339,846	57,83
340,37	61,14
340,894	63,71
341,419	60,48
341,942	59,69
342,466	50
342,99	57,79
343,514	59,51
344,037	59,02
344,56	56,97
345,084	55,08
345,607	56,98
346,13	52,42
346,653	50,55
347,175	59,32
347,698	58,61
348,221	61,94
348,743	63,4
349,265	61,22
349,787	57,84
350,309	53,65
350,831	57,75
351,353	52,65
351,875	55,31
352,397	52,2
352,918	64,94
353,439	54,98
353,961	60,14
354,482	57,38
355,003	50,79
355,524	55,07
356,044	51,64
356,565	54,86
357,086	54,55
357,606	47,33
358,126	46,82
358,646	42,07
359,167	49,5
359,687	44,22
360,206	55,27
360,726	50,79
361,246	50,15
361,765	50,81
362,285	49,33
362,804	42,99
363,323	49,85
363,842	50,17
364,361	51,39
364,88	51,05
365,398	51,36
365,917	45,56
366,435	47,93
366,954	46,81
367,472	51,65
367,99	46,74
368,508	50
369,026	51,84
369,544	50,72
370,061	47,72
370,579	51,1
371,096	49,21
371,613	46,65
372,131	46,74
372,648	47,97
373,165	48,28
373,681	44,76
374,198	46,84
374,715	44,85
375,231	45,68
375,747	41,73
376,264	42,48
376,78	43,6
377,296	39,29
377,812	39,65
378,327	44,6
378,843	47,72
379,359	37,89
379,874	40,12
380,389	35,62
380,905	40,55
381,42	39,59
381,935	43,75
382,449	39,84
382,964	39,13
383,479	40,71
383,993	41,4
384,508	33,08
385,022	34,09
385,536	35,69
386,05	33,95
386,564	33,16
387,078	39,79
387,592	34,26
388,105	32,12
388,619	30,05
389,132	37,44
389,645	30,26
390,158	33,7
390,671	33,04
391,184	32,47
391,697	31,58
392,21	30,58
392,722	28,75
393,235	26,24
393,747	29,35
394,259	29,04
394,771	29,67
395,283	28,3
395,795	30
396,307	27,95
396,818	26,73
397,33	28,83
397,841	25,98
398,353	29,29
398,864	25,58
399,375	26,28
399,886	24,57
400,397	25,57
400,907	21,51
401,418	24,2
401,928	23,74
402,439	23,6
402,949	21,22
403,459	20,89
403,969	20,75
404,479	22,75
404,989	21,11
405,498	19,79
406,008	22,11
406,517	18,81
407,027	18,86
407,536	19,13
408,045	15,77
408,554	17,24
409,063	17,17
409,572	15,9
410,08	14,73
410,589	13,73
411,097	14,23
411,606	13,55
412,114	12,15
412,622	12,42
413,13	12,45
413,638	11,91
414,145	11,75
414,653	10,94
415,16	11,39
415,668	11,26
416,175	9,37
416,682	10,14
417,189	9,49
417,696	9,95
418,203	9,45
418,71	8,66
419,216	8,95
419,723	9,23
420,229	8,58
420,735	8,18
421,242	9,55
421,748	9,03
422,254	9,63
422,759	8,57
423,265	7,51
423,771	8,23
424,276	7,77
424,781	7,51
425,287	7,98
425,792	7,75
426,297	7,97
426,802	7,46
427,306	7,69
427,811	7,11
428,316	8,1
428,82	7,48
429,324	7,08
429,829	7,94
430,333	7,27
430,837	7,35
431,34	7,21
431,844	6,71
432,348	7,22
432,851	7,54
433,355	6,71
433,858	6,43
434,361	6,6
434,864	6,93
435,367	7,22
435,87	6,94
436,373	6,57
436,876	7,13
437,378	6,46
437,88	6,01
438,383	7,02
438,885	6,16
439,387	5,98
439,889	6,3
440,391	6,5
440,892	6,8
441,394	6,46
441,896	6,56
442,397	6,14
442,898	6,45
443,399	6,46
443,9	6,23
444,401	6,03
444,902	6,02
445,403	6,43
445,903	7,09
446,404	6,85
446,904	6,83
447,405	5,91
447,905	6,14
448,405	6,04
448,905	6,83
449,404	6,11
449,904	6,29
450,404	6,96
450,903	6,55
451,403	5,73
451,902	6,63
452,401	6,25
452,9	6,37
453,399	6,62
453,898	6,25
454,396	6,53
454,895	6,82
455,393	6,55
455,892	6,52
456,39	6,65
456,888	6,81
457,386	6,86
457,884	6,73
458,382	6,25
458,879	6,85
459,377	6,6
459,874	6,61
460,372	6,48
460,869	6,76
461,366	6,3
461,863	6,43
462,36	6,15
462,857	6,27
463,353	6,98
463,85	6,62
464,346	6,14
464,843	6,59
465,339	6,47
465,835	6,25
466,331	6,11
466,827	6,47
467,323	5,96
467,818	6,45
468,314	6,47
468,809	6,5
469,305	6,45
469,8	6,83
470,295	6,27
470,79	6,12
471,285	6,4
471,78	5,75
472,274	6,27
472,769	6,51
473,263	6,43
473,758	6,56
474,252	6,3
474,746	6,54
475,24	6,57
475,734	6,68
476,228	6,08
476,721	6,66
477,215	6,47
477,708	6,13
478,202	6,53
478,695	6,3
479,188	5,84
479,681	6,48
480,174	5,93
480,667	6,18
481,159	6,32
481,652	6,1
482,144	6,23
482,637	6,4
483,129	6
483,621	6,65
484,113	6,47
484,605	6,19
485,097	6,01
485,588	6,6
486,08	6,33
486,571	6,51
487,063	6,87
487,554	6,09
488,045	6,5
488,536	6,12
489,027	6,66
489,518	6,38
490,008	6,18
490,499	6,85
490,989	6,61
491,48	6,59
491,97	6,51
492,46	6,7
492,95	6,7
493,44	6,92
493,93	6,83
494,419	6,9
494,909	6,97
495,398	7
495,888	6,92
496,377	7,13
496,866	7,14
497,355	6,85
497,844	7,02
498,333	7,17
498,821	7,72
499,31	7,43
499,798	7,64
500,287	7,59
500,775	7,92
501,263	7,84
501,751	7,99
502,239	8,06
502,727	8,3
503,215	8,6
503,702	8,22
504,19	8,54
504,677	8,64
505,164	8,75
505,651	8,67
506,139	8,93
506,625	9,32
507,112	9,64
507,599	9,43
508,086	10,01
508,572	10,12
509,058	10
509,545	10,14
510,031	10,44
510,517	10,73
511,003	10,78
511,489	11,06
511,974	11,25
512,46	11,71
512,946	11,88
513,431	11,52
513,916	12,25
514,401	12,33
514,887	12,3
515,371	12,69
515,856	12,76
516,341	13,5
516,826	13,77
517,31	13,69
517,795	14,14
518,279	13,92
518,763	14,38
519,247	14,73
519,731	14,9
520,215	15,31
520,699	15,11
521,182	16,25
521,666	16,4
522,149	17,07
522,633	16,75
523,116	16,57
523,599	17,48
524,082	17,07
524,565	17,68
525,048	17,9
525,53	17,88
526,013	18,56
526,495	18,26
526,978	18,91
527,46	18,94
527,942	19,49
528,424	20,18
528,906	19,52
529,388	19,54
529,87	19,68
530,351	19,87
530,833	20,33
531,314	20,4
531,795	20,76
532,277	20,59
532,758	20,81
533,238	21,08
533,719	21,12
534,2	21,61
534,681	21,04
535,161	21,39
535,642	21,09
536,122	21,55
536,602	21,18
537,082	21,36
537,562	21,91
538,042	21,71
538,522	21,37
539,001	22,09
539,481	21,78
539,96	21,78
540,44	21,89
540,919	21,74
541,398	22,01
541,877	22
542,356	22,13
542,835	21,82
543,313	22,02
543,792	22,34
544,27	21,77
544,749	22,31
545,227	22,15
545,705	22,37
546,183	22,4
546,661	22,61
547,139	22,39
547,616	22,1
548,094	22,76
548,571	22,36
549,049	22,08
549,526	22,4
550,003	22,25
550,48	22,94
550,957	22,58
551,434	22,28
551,911	22,97
552,387	22,82
552,864	22,92
553,34	23,18
553,817	22,43
554,293	22,52
554,769	22,44
555,245	23,04
555,721	22,8
556,197	22,73
556,672	22,5
557,148	22,69
557,623	22,84
558,099	22,52
558,574	22,65
559,049	21,97
559,524	22,92
559,999	22,11
560,474	22,45
560,948	21,96
561,423	21,89
561,897	22,32
562,372	21,5
562,846	22,12
563,32	21,99
563,794	21,91
564,268	21,88
564,742	21,65
565,216	21,32
565,69	21,25
566,163	21,51
566,636	21,04
567,11	21,03
567,583	20,82
568,056	20,43
568,529	20,76
569,002	20,28
569,475	20,34
569,947	20,16
570,42	19,98
570,892	19,78
571,365	19,72
571,837	19,62
572,309	19,79
572,781	19,56
573,253	19,16
573,725	18,79
574,197	18,78
574,668	18,78
575,14	18,83
575,611	18,67
576,082	18,18
576,554	18,22
577,025	18,13
577,496	17,91
577,967	17,56
578,437	17,81
578,908	17,8
579,379	17,45
579,849	17,5
580,319	17,37
580,79	17,38
581,26	16,94
581,73	16,97
582,2	17,01
582,669	16,79
583,139	16,68
583,609	16,85
584,078	16,51
584,548	16,75
585,017	16,4
585,486	16,08
585,955	15,94
586,424	16,17
586,893	15,97
587,362	16,09
587,83	15,78
588,299	15,93
588,767	15,88
589,236	16,02
589,704	15,47
590,172	15,6
590,64	15,49
591,108	15,31
591,576	15,35
592,043	15,21
592,511	15,31
592,978	15,46
593,446	15,41
593,913	14,92
594,38	15,21
594,847	15,2
595,314	15,1
595,781	15
596,248	14,87
596,715	15,04
597,181	15,16
597,647	14,9
598,114	14,91
598,58	14,89
599,046	15,03
599,512	14,75
599,978	14,5
600,444	14,81
600,91	14,76
601,375	14,74
601,841	14,79
602,306	14,52
602,771	14,69
603,236	14,35
603,702	14,19
604,167	14,02
604,631	14,48
605,096	14,29
605,561	14,15
606,025	14,13
606,49	13,96
606,954	13,72
607,418	14,23
607,882	13,93
608,347	13,79
608,81	13,7
609,274	13,62
609,738	13,53
610,202	13,5
610,665	13,6
611,128	13,33
611,592	13,25
612,055	13,01
612,518	12,99
612,981	13,08
613,444	12,98
613,907	13
614,369	12,74
614,832	12,67
615,294	12,39
615,757	12,62
616,219	12,4
616,681	12,39
617,143	12,36
617,605	12
618,067	12,01
618,529	12,08
618,99	12,14
619,452	12,08
619,913	12,19
620,375	11,97
620,836	11,75
621,297	11,84
621,758	11,75
622,219	11,51
622,68	11,75
623,14	11,48
623,601	11,6
624,061	11,68
624,522	11,66
624,982	11,63
625,442	11,57
625,902	11,33
626,362	11,45
626,822	11,4
627,282	11,5
627,742	11,35
628,201	11,26
628,661	11,41
629,12	11,34
629,579	11,29
630,038	11,21
630,497	11,26
630,956	11,23
631,415	11,15
631,874	11,24
632,332	11,17
632,791	11,1
633,249	11,1
633,708	11,09
634,166	10,98
634,624	11,04
635,082	11,03
635,54	10,83
635,998	10,8
636,455	10,74
636,913	10,45
637,37	10,61
637,828	10,54
638,285	10,39
638,742	10,49
639,199	10,07
639,656	10,03
640,113	10
640,57	9,95
641,027	9,91
641,483	9,93
641,94	9,77
642,396	9,45
642,852	9,53
643,309	9,35
643,765	9,11
644,221	9,05
644,676	9,11
645,132	8,94
645,588	8,77
646,043	8,9
646,499	8,61
646,954	8,63
647,409	8,34
647,864	8,21
648,319	8,22
648,774	8,12
649,229	8,3
649,684	8,13
650,139	7,88
650,593	8,02
651,047	7,89
651,502	7,76
651,956	7,57
652,41	7,57
652,864	7,71
653,318	7,5
653,772	7,52
654,225	7,63
654,679	7,55
655,133	7,52
655,586	7,26
656,039	7,52
656,492	7,43
656,946	7,25
657,399	7,2
657,851	7,04
658,304	7,13
658,757	6,89
659,209	6,97
659,662	6,87
660,114	6,81
660,567	6,76
661,019	6,58
661,471	6,62
661,923	6,44
662,375	6,37
662,826	6,27
663,278	6,28
663,73	6,23
664,181	6,17
664,632	6,01
665,084	5,83
665,535	6,01
665,986	5,97
666,437	5,86
666,888	5,85
667,338	5,85
667,789	5,9
668,24	5,99
668,69	5,75
669,14	5,8
669,591	5,93
670,041	5,91
670,491	5,94
670,941	5,9
671,391	5,83
671,84	5,88
672,29	5,91
672,74	6,02
673,189	6,05
673,638	6,17
674,088	6,1
674,537	6,18
674,986	6,23
675,435	6,3
675,883	6,41
676,332	6,38
676,781	6,28
677,229	6,56
677,678	6,64
678,126	6,59
678,574	6,76
679,022	6,82
679,47	6,84
679,918	7,03
680,366	7,11
680,814	7,31
681,261	7,35
681,709	7,35
682,156	7,56
682,604	7,61
683,051	7,75
683,498	7,73
683,945	7,91
684,392	7,95
684,839	8,21
685,286	8,4
685,732	8,56
686,179	8,53
686,625	8,8
687,071	8,98
687,518	9,09
687,964	9,29
688,41	9,45
688,856	9,85
689,301	10,02
689,747	10,23
690,193	10,61
690,638	10,94
691,084	11,06
691,529	11,53
691,974	11,82
692,419	12,19
692,864	12,8
693,309	13,19
693,754	13,62
694,199	13,73
694,643	14,42
695,088	14,89
695,532	15,37
695,977	15,69
696,421	16,42
696,865	16,74
697,309	17,13
697,753	17,62
698,197	18,02
698,64	18,68
699,084	19,06
699,527	19,64
699,971	19,92
700,414	20,61
700,857	20,75
701,3	21,36
701,743	21,65
702,186	22,11
702,629	22,55
703,072	22,91
703,515	23,34
703,957	23,78
704,399	24,23
704,842	24,48
705,284	24,69
705,726	25,32
706,168	25,96
706,61	25,99
707,052	26,28
707,494	26,79
707,935	26,8
708,377	27,36
708,818	27,55
709,26	27,89
709,701	27,98
710,142	28,41
710,583	28,73
711,024	29,24
711,465	29,38
711,905	29,87
712,346	30,24
712,787	30,3
713,227	30,68
713,667	30,48
714,108	31,27
714,548	31,84
714,988	31,72
715,428	31,87
715,868	32,23
716,307	32,38
716,747	32,72
717,186	33,03
717,626	33,38
718,065	33,32
718,504	33,72
718,944	33,54
719,383	33,79
719,822	33,95
720,261	34,47
720,699	34,71
721,138	34,45
721,576	34,78
722,015	35,18
722,453	35,31
722,892	35,86
723,33	35,62
723,768	35,6
724,206	35,88
724,644	36,05
725,081	36,39
725,519	36,27
725,957	36,35
726,394	36,56
726,832	36,86
727,269	36,72
727,706	37,23
728,143	37,24
728,58	37,41
729,017	37,37
729,454	37,22
729,89	37,71
730,327	37,86
730,764	38,01
731,2	38,09
731,636	37,84
732,072	38,02
732,509	37,92
732,945	38,23
733,38	38,34
733,816	37,98
734,252	38,58
734,688	38,32
735,123	38,49
735,559	38,4
735,994	38,69
736,429	38,43
736,864	38,76
737,299	38,3
737,734	38,66
738,169	39,16
738,604	38,9
739,038	38,73
739,473	38,86
739,907	39,14
740,342	38,72
740,776	38,83
741,21	38,9
741,644	39,08
742,078	39,33
742,512	39,29
742,946	38,85
743,379	39,16
743,813	39,12
744,246	38,91
744,68	39,09
745,113	38,93
745,546	38,92
745,979	39
746,412	39,05
746,845	38,73
747,278	38,86
747,711	39,1
748,143	39,12
748,576	38,82
749,008	38,46
749,441	38,85
749,873	38,65
750,305	38,73
750,737	38,62
751,169	38,91
751,601	38,89
752,032	38,9
752,464	38,9
752,896	38,56
753,327	38,68
753,758	38,92
754,19	38,42
754,621	38,97
755,052	38,87
755,483	38,56
755,914	38,34
756,344	38,55
756,775	38,57
757,206	38,56
757,636	37,81
758,066	38,27
758,497	38,4
758,927	38,55
759,357	38,52
759,787	38,03
760,217	38,26
760,647	38,19
761,076	38,5
761,506	38,26
761,935	38,37
762,365	38,26
762,794	38,23
763,223	37,98
763,653	38,28
764,082	38,44
764,51	38,14
764,939	38,13
765,368	37,82
765,797	38,2
766,225	38,02
766,654	37,77
767,082	37,6
767,51	37,84
767,938	37,7
768,367	37,96
768,795	38,19
769,222	37,69
769,65	37,86
770,078	37,79
770,505	37,65
770,933	37,37
771,36	37,69
771,788	37,5
772,215	37,99
772,642	37,45
773,069	37,32
773,496	37,56
773,923	37,41
774,349	37,33
774,776	37,44
775,203	37,68
775,629	37,63
776,055	37,67
776,482	37,57
776,908	37,26
777,334	37,21
777,76	37,46
778,186	37,48
778,611	37,33
779,037	37,2
779,463	37,68
779,888	37,01
780,314	37,45
780,739	37,39
781,164	37,38
781,589	37,41
782,014	36,83
782,439	37,28
782,864	37,09
783,289	37,07
783,713	37,22
784,138	37,56
784,562	37,22
784,987	37,14
785,411	37,08
785,835	37,51
786,259	37,21
786,683	37,44
787,107	37,21
787,531	36,96
787,954	37,15
788,378	37,3
788,802	37,32
789,225	36,97
789,648	37,02
790,071	37,34
790,495	37,06
790,918	37,32
791,34	36,88
791,763	36,51
792,186	36,95
792,609	37,08
793,031	36,78
793,454	37,03
793,876	36,99
794,298	37,2
794,721	37,07
795,143	36,83
795,565	37,25
795,986	36,65
796,408	36,68
796,83	37,15
797,252	36,9
797,673	37,06
798,094	37,35
798,516	36,84
798,937	36,99
799,358	36,9
799,779	37,02
800,2	37,1
800,621	36,62
801,042	37,12
801,462	36,98
801,883	36,61
802,303	36,85
802,724	37,06
803,144	37,12
803,564	37
803,984	37,04
804,404	36,47
804,824	36,71
805,244	37,22
805,664	36,84
806,084	36,55
806,503	36,75
806,923	36,69
807,342	36,87
807,761	36,77
808,18	36,68
808,599	37,18
809,018	36,69
809,437	36,89
809,856	36,6
810,275	36,97
810,693	36,81
811,112	36,92
811,53	37,06
811,949	36,78
812,367	36,86
812,785	36,71
813,203	36,78
813,621	36,79
814,039	36,54
814,457	36,89
814,874	36,96
815,292	36,8
815,709	36,8
816,127	36,72
816,544	36,6
816,961	36,85
817,378	36,74
817,795	36,74
818,212	37,04
818,629	36,74
819,046	36,67
819,462	36,83
819,879	36,78
820,295	36,67
820,712	36,8
821,128	36,73
821,544	36,75
821,96	36,72
822,376	36,92
822,792	36,37
823,208	36,83
823,624	36,72
824,039	36,56
824,455	36,86
824,87	36,55
825,286	36,61
825,701	36,6
826,116	36,44
826,531	36,72
826,946	36,59
827,361	36,7
827,776	36,72
828,19	36,78
828,605	36,13
829,02	36,77
829,434	36,13
829,848	36,68
830,263	36,42
830,677	36,58
831,091	36,66
831,505	36,55
831,919	36,89
832,332	36,8
832,746	36,93
833,16	36,34
833,573	36,41
833,987	36,17
834,4	36,42
834,813	36,18
835,226	36,48
835,639	36,76
836,052	36,62
836,465	36,51
836,878	36,35
837,29	36,62
837,703	36,62
838,116	36,6
838,528	36,62
838,94	36,33
839,352	36,95
839,765	36,73
840,177	36,88
840,589	36,6
841	36,39
841,412	36,7
841,824	36,6
842,235	36,53
842,647	36,5
843,058	36,65
843,47	36,29
843,881	36,76
844,292	36,35
844,703	36,24
845,114	36,12
845,525	36,6
845,935	36,49
846,346	36,49
846,757	36,27
847,167	36,41
847,577	36,18
847,988	36,4
848,398	36,17
848,808	36,53
849,218	36,29
849,628	36,57
850,038	35,99
850,448	36,2
850,857	36,23
851,267	36,74
851,676	36,79
852,086	36,88
852,495	36,64
852,904	36,81
853,313	36,19
853,722	36,45
854,131	36,55
854,54	36,5
854,949	36,39
855,357	36,49
855,766	36,13
856,174	36,64
856,583	36,68
856,991	36,5
857,399	36,48
857,807	36,56
858,215	36,28
858,623	36,59
859,031	36,26
859,439	36,29
859,846	36,52
860,254	36,66
860,661	36,15
861,069	36,49
861,476	36,56
861,883	36,09
862,29	36,84
862,697	36,25
863,104	36,24
863,511	36,79
863,918	36,52
864,325	36,47
864,731	36,33
865,138	36,26
865,544	36,41
865,95	36,29
866,357	36,16
866,763	36,08
867,169	36,54
867,575	36,04
867,98	36,16
868,386	36,46
868,792	36,3
869,197	36,32
869,603	36,29
870,008	36,17
870,414	36,11
870,819	36,7
871,224	36,12
871,629	36,4
872,034	36,18
872,439	36,12
872,844	35,99
873,248	36,55
873,653	36,7
874,057	36,24
874,462	36,18
874,866	36,08
875,27	36,36
875,674	36,37
876,078	36,43
876,482	36,19
876,886	36,58
877,29	36,55
877,694	35,99
878,097	36,12
878,501	36,36
878,904	36,16
879,308	36,03
879,711	35,95
880,114	36,34
880,517	36,3
880,92	36,23
881,323	36,5
881,726	36,39
882,128	36,29
882,531	36,41
882,934	36,31
883,336	36,06
883,738	36,18
884,141	36,23
884,543	36,3
884,945	36,49
885,347	36,04
885,749	35,97
886,151	36,27
886,552	35,78
886,954	36,03
887,355	36,02
887,757	36,32
888,158	36,56
888,56	36,18
888,961	36
889,362	36,1
889,763	36,75
890,164	36,5
890,565	36,11
890,965	36,42
891,366	35,88
891,767	35,96
892,167	36,38
892,567	35,97
892,968	36,17
893,368	36,18
893,768	36,33
894,168	36,26
894,568	36,12
894,968	36,71
895,368	36,58
895,767	36,2
896,167	36,19
896,566	35,95
896,966	36,27
897,365	36,02
897,764	36,41
898,164	35,91
898,563	36,24
898,962	36,32
899,361	36,35
899,759	36,15
900,158	36,23
900,557	36,19
900,955	36,43
901,354	36,02
901,752	36,13
902,15	36,23
902,548	35,92
902,947	35,82
903,345	36,61
903,742	36,13
904,14	35,8
904,538	36,38
904,936	36,12
905,333	36,14
905,731	36,28
906,128	36,26
906,525	36,33
906,923	36,43
907,32	35,88
907,717	36,11
908,114	36,37
908,511	36,3
908,907	36,49
909,304	36,11
909,701	36,29
910,097	36,36
910,494	36,37
910,89	36,46
911,286	35,66
911,682	36,3
912,078	36
912,474	36,46
912,87	35,79
913,266	36,02
913,662	36,47
914,058	36,44
914,453	36,47
914,849	36,52
915,244	36,48
915,639	36,53
916,034	36,62
916,43	36,56
916,825	36,33
917,22	36,01
917,614	36,36
918,009	35,59
918,404	36,09
918,798	36,17
919,193	36,23
919,587	36,37
919,982	36,58
920,376	36,24
920,77	36,33
921,164	36,25
921,558	36,88
921,952	36,34
922,346	36,35
922,74	36,17
923,133	36,33
923,527	36,06
923,92	36,4
924,314	36,11
924,707	36,21
925,1	35,63
925,493	36,61
925,886	35,99
926,279	35,55
926,672	36,05
927,065	36,54
927,457	35,95
927,85	36,37
928,243	36,13
928,635	35,74
929,027	36,37
929,42	36,14
929,812	35,85
930,204	36,27
930,596	36,18
930,988	36,41
931,379	36,1
931,771	35,92
932,163	35,97
932,554	36,54
932,946	36,33
933,337	36,37
933,729	35,96
934,12	36,17
934,511	35,83
934,902	36,49
935,293	36,08
935,684	36,04
936,075	36,31
936,465	36,56
936,856	36,25
937,246	35,88
937,637	36,34
938,027	36,84
938,417	35,48
938,808	36,34
939,198	36,25
939,588	36,77
939,978	36,67
940,368	35,93
940,757	36,8
941,147	36,35
941,537	36,05
941,926	36,47
942,315	36,44
942,705	36,1
943,094	36,26
943,483	35,83
943,872	36,44
944,261	36,16
944,65	36,52
945,039	35,87
945,428	36,24
945,816	36,23
946,205	36,15
946,593	36,7
946,982	35,91
947,37	36,62
947,758	37,72
948,146	36,55
948,534	35,75
948,922	36,43
949,31	36,35
949,698	35,94
950,086	36,34
950,473	35,98
950,861	35,46
951,248	35,34
951,636	36,35
952,023	35,37
952,41	35,26
952,797	35,8
953,184	35,75
953,571	36,14
953,958	36,2
954,345	35,64
954,731	35,36
955,118	35,47
955,505	35,28
955,891	35,44
956,277	35,26
956,664	35,69
957,05	35,43
957,436	35,48
957,822	35,3
958,208	35,42
958,594	36,09
958,979	35,85
959,365	35,69
959,751	35,23
960,136	35,63
960,522	35,36
960,907	36,29
961,292	36,09
961,677	35,13
962,062	35,69
962,447	35,35
962,832	35,45
963,217	35,75
963,602	35,06
963,986	35,45
964,371	35,53
964,756	34,77
965,14	35,07
965,524	35,27
965,908	35,53
966,293	34,51
966,677	35,29
967,061	35,38
967,445	35,07
967,828	35,35
968,212	35,7
968,596	35,68
968,979	35,07
969,363	35,75
969,746	35,04
970,129	35,01
970,513	36,02
970,896	35,44
971,279	34,79
971,662	35,12
972,045	34,83
972,428	36,02
972,81	35,97
973,193	35,46
973,575	35,48
973,958	34,73
974,34	35,44
974,723	35,63
975,105	35,04
975,487	35,18
975,869	35,21
976,251	34,82
976,633	35,26
977,015	35,04
977,396	35,3
977,778	35,2
978,16	35,7
978,541	35,65
978,922	36,13
979,304	34,94
979,685	35,5
980,066	35,5
980,447	35,19
980,828	35,97
981,209	35,4
981,59	35,84
981,97	35,26
982,351	34,85
982,732	35,15
983,112	35,39
983,493	36,01
983,873	34,89
984,253	35,8
984,633	35,95
985,013	35,29
985,393	35,36
985,773	35,79
986,153	35,77
986,533	35,66
986,912	35,62
987,292	35,02
987,671	34,76
988,051	35,07
988,43	35,43
988,809	35,59
989,188	35,14
989,567	35,09
989,946	35,58
990,325	35,43
990,704	35,36
991,083	35,3
991,461	35,66
991,84	35,59
992,218	35,75
992,597	36,11
992,975	35,95
993,353	36,21
993,732	34,98
994,11	34,83
994,488	35,37
994,866	35,53
995,243	35,44
995,621	35,14
995,999	35,9
996,376	36,44
996,754	34,68
997,131	34,96
997,509	35,88
997,886	35,58
998,263	35,37
998,64	36,09
999,017	35,52
999,394	35,61
999,771	36,15
1000,148	35,55
1000,524	34,97
1000,901	35,77
1001,277	36,29
1001,654	36,1
1002,03	35,27
1002,406	35,92
1002,783	35,34
1003,159	36,26
1003,535	35,57
1003,911	35,66
1004,286	35,65
1004,662	35,44
1005,038	35,95
1005,414	36
1005,789	35,83
1006,164	35,42
1006,54	36,02
1006,915	36,27
1007,29	35,85
1007,665	35,69
1008,04	36,25
1008,415	35,48
1008,79	35,75
1009,165	35,75
1009,54	35,73
1009,914	35,51
1010,289	36,46
1010,663	35,54
1011,038	35,21
1011,412	36,24
1011,786	35,96
1012,16	36,34
1012,535	35,92
1012,909	36,39
1013,282	35,56
1013,656	35,47
1014,03	36,49
1014,404	35,94
1014,777	35,28
1015,151	36,1
1015,524	35,96
1015,897	35,82
1016,271	35,71
1016,644	36,18
1017,017	36,74
1017,39	35,88
1017,763	37,07
1018,136	36,18
1018,508	36,03
1018,881	36,16
1019,254	35,58
1019,626	36,26
1019,999	35,72
1020,371	36,34
1020,743	35,9
1021,116	35,81
1021,488	35,92
1021,86	35,4
1022,232	36,52
1022,604	37,2
1022,975	35,86
1023,347	36,32
1023,719	36,97
1024,09	36,77
1024,462	35,67
1024,833	35,35
1025,204	36,6
1025,576	36,01
1025,947	36,7
1026,318	36,19
1026,689	35,62
1027,06	36,12
1027,431	36,35
1027,801	36,87
1028,172	35,36
1028,543	35,86
1028,913	35,74
1029,284	36,41
1029,654	36,36
1030,024	36,52
1030,394	36,16
1030,764	35,98
1031,135	35,56
1031,504	37,38
1031,874	36,49
1032,244	36,38
1032,614	36,83
1032,983	37,16
1033,353	36,17
1033,722	36,07
1034,092	36,52
1034,461	36,87
1034,83	37,2
1035,2	35,99
1035,569	35,94
1035,938	36,35
1036,307	36,91
1036,675	36,76
1037,044	36,23
1037,413	36,1
1037,781	36,72
1038,15	36,51
1038,518	36,65
1038,887	36,47
1039,255	36,53
1039,623	36,75
1039,991	36,1
1040,359	37,08
1040,727	36,71
1041,095	35,9
1041,463	36,57
1041,831	36,71
1042,198	36,82
1042,566	36,31
1042,933	37,11
1043,301	36,86
1043,668	37,99
1044,035	37,59
1044,402	37,65
1044,77	37,34
1045,137	36,18
1045,503	36,11
1045,87	37,19
1046,237	36,29
1046,604	38,21
1046,97	35,96
1047,337	37,88
1047,703	37,27
1048,07	37,36
1048,436	37,86
1048,802	35,8
1049,168	36,49
1049,534	37,06
1049,9	36,99
1050,266	36,44
1050,632	37,81
1050,998	37,47
1051,364	37,18
1051,729	38,13
1052,095	37,58
1052,46	37,57
1052,825	37,47
1053,191	37,8
1053,556	37,37
1053,921	37,31
1054,286	36,17
1054,651	36,97
1055,016	38,5
1055,381	37,38
1055,745	37,23
1056,11	37,44
1056,475	37,19
1056,839	37,41
1057,203	38,58
1057,568	37,06
1057,932	38,87
1058,296	38,79
1058,66	37,83
1059,024	37,78
1059,388	36,54
1059,752	37,58
1060,116	36,61
1060,48	37,93
1060,843	36,66
1061,207	36,52
1061,57	37,8
1061,934	39,23
1062,297	37,69
1062,66	38,23
1063,023	37,13
1063,386	39,22
1063,749	38,54
1064,112	38,74
1064,475	37,48
1064,838	37,46
1065,201	38,42
1065,563	38,01
1065,926	38,83
1066,288	39,01
1066,651	37,14
1067,013	36,15
1067,375	37,56
1067,737	37,83
1068,099	38,24
1068,461	38,99
1068,823	38,83
1069,185	37,67
1069,547	38,33
1069,909	38,29
1070,27	38,72
1070,632	39,13
1070,993	37,95
1071,355	37,42
1071,716	38,47
1072,077	38,53
1072,438	36,98
1072,799	37,95
1073,16	38,79
1073,521	37,63
1073,882	37,26
1074,243	39,29
1074,603	38,73
1074,964	38,1
1075,325	38,52
1075,685	40,98
1076,045	38,71
1076,406	40,04
1076,766	39,06
1077,126	38,78
1077,486	38,91
1077,846	38,09
1078,206	38,15
1078,566	39,08
1078,925	38,63
1079,285	37,49
1079,645	39,24
1080,004	40,5
1080,364	39,07
1080,723	39,07
1081,082	36,69
1081,442	40,26
1081,801	37,91
1082,16	39,43
1082,519	38,95
1082,878	38,51
1083,237	40,68
1083,595	38,05
1083,954	39,15
1084,313	40,08
1084,671	39,35
1085,03	38,09
1085,388	41,05
1085,746	41,06
1086,104	38,72
1086,463	37,08
1086,821	40,25
1087,179	40,27
1087,537	40,6
1087,894	40,94
1088,252	38,92
1088,61	40,48
1088,967	40,36
1089,325	41,03
1089,682	39,81
1090,04	40,24
1090,397	40,29
1090,754	38,81
1091,111	37,95
1091,469	39,86
1091,826	42,57
1092,182	38,85
1092,539	38,94
1092,896	40,85
1093,253	40,72
1093,609	38,92
1093,966	38,88
1094,322	40,83
1094,679	41,62
1095,035	40,43
1095,391	42,92
1095,748	40,39
1096,104	41,34
1096,46	39,51
1096,816	39,72
1097,171	42,38
1097,527	39,7
1097,883	39,66
1098,239	40,72
1098,594	41,37
1098,95	38,59
1099,305	42,02
1099,66	40,32
1100,016	40
1100,371	43,13
1100,726	39,89
1101,081	42,3
1101,436	42,96
1101,791	41,56
1102,146	44,41
1102,5	41,25
1102,855	40,7
1103,21	39,73
1103,564	37,74
1103,918	43,35
1104,273	40,98
1104,627	44,4
1104,981	44,38
1105,335	39,27
1105,69	40,39
1106,043	40,31
1106,397	39,68
1106,751	43,05
1107,105	43,11
1107,459	41,41
1107,812	41,4
1108,166	43,6
1108,519	41,34
1108,873	41,69
1109,226	40,82
1109,579	42,27
1109,932	43,29
1110,285	42,72
1110,638	46,58
1110,991	43,77
1111,344	43,18
1111,697	41,89
1112,05	44,51
1112,402	44,85
1112,755	44,96
1113,107	47,38
1113,46	44,37
1113,812	46,04
1114,164	45,89
1114,517	47,74
1114,869	71,52
1115,221	77,78
1115,573	78,1
1115,924	74,68
