Data from F_5_Relative__6__00132.txt Node

Date: Tue Jan 30 10:08:48 CET 2024
User: diatiterra
Spectrometer: HDX00911
Trigger mode: 0
Integration Time (sec): 6,000000E-3
Scans to average: 2
Nonlinearity correction enabled: false
Boxcar width: 0
Storing dark spectrum: false
XAxis mode: Wavelengths
Number of Pixels in Spectrum: 2068
>>>>>Begin Spectral Data<<<<<
194,468	106,63
195,025	108,87
195,581	97,73
196,138	101,91
196,694	101,99
197,251	87,22
197,807	89,17
198,363	92,21
198,919	88,09
199,474	90,25
200,03	87,4
200,586	88,99
201,141	92,02
201,696	80,67
202,251	91,04
202,806	88,51
203,361	89,02
203,916	85,48
204,471	90,1
205,025	95,82
205,58	88,02
206,134	80,08
206,688	90,56
207,242	102,25
207,796	90,25
208,35	100
208,904	91,13
209,457	88,37
210,011	95,2
210,564	91,44
211,117	100
211,67	88,26
212,223	84,06
212,776	95,34
213,329	86,92
213,881	100
214,434	88,93
214,986	89,29
215,538	88,19
216,09	87,95
216,642	89,67
217,194	107,18
217,746	85,66
218,297	94,96
218,849	86,31
219,4	87,01
219,951	100,44
220,502	89,88
221,053	103,81
221,604	91,73
222,155	89,83
222,705	89,36
223,256	90,64
223,806	96,25
224,356	97,55
224,906	97,8
225,456	94,54
226,006	88,84
226,556	92,92
227,106	90,87
227,655	87,44
228,204	100
228,754	89,87
229,303	90,09
229,852	98,25
230,401	97,31
230,949	84,4
231,498	89,29
232,047	99,59
232,595	91,57
233,143	94,74
233,691	88,34
234,239	85,5
234,787	97,76
235,335	86,15
235,883	98,65
236,43	88,14
236,978	94,35
237,525	90,21
238,072	85,9
238,619	79,37
239,166	92,24
239,713	88,19
240,26	91,13
240,806	95,26
241,353	106,41
241,899	86,42
242,445	86,19
242,991	89,34
243,537	85,71
244,083	90,5
244,629	83,26
245,174	91,06
245,72	83,78
246,265	95,93
246,81	94,67
247,355	88,69
247,9	87,08
248,445	78,97
248,99	80,43
249,534	81,13
250,079	92,13
250,623	92,92
251,168	86,12
251,712	80,35
252,256	78,51
252,8	95,58
253,343	88,26
253,887	93,51
254,43	78,89
254,974	93,2
255,517	90,38
256,06	83,97
256,603	90,12
257,146	85
257,689	89,41
258,232	86,88
258,774	82,38
259,317	89,66
259,859	89,52
260,401	89,72
260,943	86,72
261,485	83,64
262,027	85,53
262,569	96,3
263,11	95,13
263,652	85,4
264,193	87,91
264,734	96,76
265,275	85,41
265,816	81,2
266,357	79,25
266,898	95,3
267,438	93,62
267,979	91,81
268,519	96,15
269,059	78,26
269,6	83,19
270,14	87,5
270,68	79,92
271,219	84,35
271,759	82,97
272,298	80,4
272,838	83,27
273,377	92,34
273,916	83,66
274,455	80,38
274,994	87,56
275,533	80,23
276,072	82,55
276,61	89,47
277,149	80,42
277,687	93,22
278,225	81,89
278,763	79,01
279,301	80,82
279,839	82,79
280,377	85,71
280,914	87,04
281,452	84,96
281,989	87,6
282,526	77,92
283,064	78,16
283,601	96,67
284,137	86,22
284,674	96,65
285,211	88,65
285,747	92,91
286,284	91,38
286,82	83,47
287,356	91,56
287,892	74,07
288,428	77,25
288,964	90,87
289,5	87,44
290,035	84,23
290,571	83,66
291,106	84,62
291,641	82,97
292,176	78,8
292,711	83,62
293,246	77,01
293,781	89,13
294,315	96,28
294,85	72,11
295,384	81,13
295,918	88,8
296,453	83,81
296,987	81,36
297,52	86,88
298,054	83,26
298,588	77,2
299,121	86,94
299,655	89,62
300,188	77,54
300,721	74,11
301,254	79,37
301,787	86,84
302,32	78,21
302,853	95,32
303,385	76,47
303,918	74,22
304,45	76,86
304,982	79,6
305,514	80,08
306,046	84,51
306,578	78,84
307,11	79,17
307,641	80,67
308,173	83,04
308,704	89,84
309,236	82,61
309,767	79,58
310,298	83,6
310,829	77,52
311,359	97,79
311,89	81,92
312,421	79,18
312,951	76,15
313,481	91,94
314,012	77,52
314,542	76,58
315,072	76,82
315,601	81,85
316,131	81,12
316,661	90,35
317,19	75,92
317,72	76,27
318,249	78,44
318,778	90,95
319,307	76,61
319,836	84,8
320,365	94,47
320,893	83,46
321,422	81,61
321,95	83,48
322,479	79,12
323,007	73,71
323,535	85,66
324,063	82,1
324,591	87,36
325,118	77,92
325,646	80,17
326,173	91,96
326,701	76,1
327,228	83,67
327,755	80,48
328,282	90
328,809	84,21
329,336	87,23
329,862	86,5
330,389	88,55
330,915	77,52
331,441	86,92
331,968	74,9
332,494	84,44
333,02	84,52
333,545	74,9
334,071	84,87
334,597	83,06
335,122	80,18
335,648	73,6
336,173	92,8
336,698	79,83
337,223	78,87
337,748	81,57
338,272	83,26
338,797	84,46
339,322	87,18
339,846	85,54
340,37	86,46
340,894	76,37
341,419	84,27
341,942	82,17
342,466	71,68
342,99	76,43
343,514	89,47
344,037	80,45
344,56	80,88
345,084	81,36
345,607	73,58
346,13	75,81
346,653	78,23
347,175	82,63
347,698	78,02
348,221	82,19
348,743	85,28
349,265	74,29
349,787	77
350,309	71,53
350,831	73,24
351,353	79,59
351,875	80,22
352,397	68,14
352,918	81,27
353,439	72,91
353,961	71,68
354,482	66,78
355,003	73,5
355,524	70,27
356,044	80,73
356,565	81,25
357,086	70,13
357,606	71,67
358,126	75,25
358,646	67,59
359,167	68,11
359,687	70,96
360,206	74,12
360,726	72,87
361,246	71,83
361,765	72,82
362,285	78,52
362,804	68,6
363,323	69,07
363,842	78,22
364,361	72,14
364,88	74,17
365,398	67,37
365,917	66,27
366,435	69,97
366,954	73,25
367,472	74,17
367,99	60,91
368,508	78,79
369,026	69,12
369,544	66,38
370,061	65,95
370,579	68,78
371,096	69,63
371,613	64,34
372,131	65,01
372,648	66,24
373,165	65,7
373,681	65,18
374,198	73,16
374,715	63,4
375,231	67,16
375,747	63,46
376,264	58,01
376,78	65,88
377,296	58,57
377,812	65,84
378,327	66,2
378,843	63,07
379,359	57,49
379,874	57,59
380,389	56,62
380,905	58,81
381,42	55,1
381,935	67,89
382,449	59,57
382,964	58,22
383,479	61,59
383,993	65,8
384,508	58,85
385,022	62,34
385,536	56,51
386,05	57,88
386,564	52,98
387,078	60,56
387,592	55,57
388,105	55,46
388,619	54,28
389,132	56,74
389,645	53,76
390,158	53,7
390,671	53,6
391,184	51,29
391,697	52,06
392,21	50,07
392,722	50,07
393,235	48,9
393,747	47,19
394,259	49,33
394,771	48,64
395,283	47,93
395,795	48,4
396,307	49,93
396,818	45,24
397,33	47,79
397,841	44,26
398,353	46,19
398,864	41,33
399,375	43,59
399,886	43,19
400,397	42,07
400,907	40,61
401,418	39,3
401,928	39,88
402,439	39,81
402,949	37,69
403,459	36,43
403,969	34,27
404,479	37,44
404,989	36,94
405,498	34,74
406,008	37,05
406,517	34,32
407,027	31,91
407,536	33,49
408,045	30,78
408,554	28,98
409,063	27,92
409,572	28,46
410,08	25,59
410,589	25,51
411,097	24,21
411,606	25,27
412,114	21,96
412,622	22,65
413,13	24,09
413,638	22,18
414,145	21,84
414,653	19,89
415,16	21,14
415,668	20,97
416,175	21,05
416,682	18,94
417,189	17,91
417,696	19,02
418,203	18,58
418,71	18,31
419,216	18,53
419,723	17,65
420,229	17,69
420,735	16,81
421,242	16,67
421,748	16,78
422,254	17,71
422,759	15,88
423,265	16,36
423,771	16,25
424,276	15,28
424,781	16,47
425,287	15,39
425,792	15,21
426,297	15,45
426,802	15,34
427,306	15,22
427,811	14,79
428,316	15,5
428,82	15,36
429,324	15,14
429,829	14,92
430,333	14,68
430,837	14,84
431,34	13,45
431,844	14,46
432,348	14,26
432,851	14,47
433,355	13,87
433,858	14,8
434,361	14,36
434,864	14,12
435,367	14,51
435,87	14,23
436,373	13,46
436,876	14,49
437,378	13,97
437,88	13,57
438,383	13,77
438,885	13,54
439,387	13,51
439,889	13,58
440,391	13,65
440,892	14,37
441,394	14,32
441,896	13,16
442,397	13,98
442,898	14,3
443,399	13,32
443,9	13,04
444,401	13,37
444,902	13,36
445,403	13,54
445,903	13,79
446,404	13,45
446,904	13,69
447,405	13,75
447,905	12,98
448,405	13,96
448,905	13,44
449,404	13,51
449,904	13,27
450,404	13,67
450,903	13,84
451,403	13,73
451,902	12,97
452,401	13,8
452,9	13,73
453,399	13,82
453,898	13,85
454,396	13,71
454,895	13,66
455,393	13,57
455,892	13,98
456,39	13,7
456,888	14,09
457,386	14,25
457,884	13,75
458,382	13,91
458,879	14,31
459,377	14,34
459,874	13,66
460,372	14,01
460,869	13,7
461,366	14,39
461,863	13,92
462,36	14,1
462,857	13,86
463,353	13,53
463,85	13,84
464,346	13,19
464,843	13,87
465,339	13,82
465,835	13,6
466,331	14,06
466,827	13,69
467,323	13,72
467,818	13,03
468,314	14,07
468,809	13,3
469,305	13,62
469,8	14,44
470,295	14,03
470,79	13,51
471,285	14,15
471,78	13,1
472,274	13,69
472,769	13,68
473,263	13,57
473,758	14,14
474,252	14
474,746	13,65
475,24	13,85
475,734	13,67
476,228	13,56
476,721	14,02
477,215	13,58
477,708	13,63
478,202	13,89
478,695	13,57
479,188	13,82
479,681	13,57
480,174	13,72
480,667	13,86
481,159	13,8
481,652	13,57
482,144	14,31
482,637	14,27
483,129	13,39
483,621	14,12
484,113	13,78
484,605	14,19
485,097	14,23
485,588	14,02
486,08	13,81
486,571	14,33
487,063	14,46
487,554	13,72
488,045	13,96
488,536	14,22
489,027	14,49
489,518	14,34
490,008	14,3
490,499	14,83
490,989	14,15
491,48	14,63
491,97	14,47
492,46	14,35
492,95	14,68
493,44	14,66
493,93	14,94
494,419	14,73
494,909	14,93
495,398	14,87
495,888	15,3
496,377	15,53
496,866	15,56
497,355	15,46
497,844	15,75
498,333	16,05
498,821	15,63
499,31	15,95
499,798	16,24
500,287	16,27
500,775	16,84
501,263	16,48
501,751	17,09
502,239	17,24
502,727	17,38
503,215	17,68
503,702	17,57
504,19	17,62
504,677	17,85
505,164	18,27
505,651	17,85
506,139	18,93
506,625	19,11
507,112	19,36
507,599	19,66
508,086	20,28
508,572	20,23
509,058	20,58
509,545	20,85
510,031	21,1
510,517	21,39
511,003	21,75
511,489	22,5
511,974	22,94
512,46	23,55
512,946	24,22
513,431	24,04
513,916	24,83
514,401	24,44
514,887	25,22
515,371	25,6
515,856	26,03
516,341	26,67
516,826	27,38
517,31	27,52
517,795	28,62
518,279	28,4
518,763	28,75
519,247	29,57
519,731	30,33
520,215	30,38
520,699	30,9
521,182	31,64
521,666	32,29
522,149	33,31
522,633	33,67
523,116	33,66
523,599	34,69
524,082	34,5
524,565	36,1
525,048	35,62
525,53	36,11
526,013	37,22
526,495	36,7
526,978	37,54
527,46	38,54
527,942	39,13
528,424	39,18
528,906	39,3
529,388	39,07
529,87	39,09
530,351	40,28
530,833	40,41
531,314	40,53
531,795	40,89
532,277	40,9
532,758	41,98
533,238	42,24
533,719	41,93
534,2	42,15
534,681	42,16
535,161	42,99
535,642	42,36
536,122	43,36
536,602	42,58
537,082	42,63
537,562	42,83
538,042	44,03
538,522	43,18
539,001	43,48
539,481	43,55
539,96	43,81
540,44	43,47
540,919	43,67
541,398	43,93
541,877	43,72
542,356	44,5
542,835	44,27
543,313	44,3
543,792	44,12
544,27	44,48
544,749	44,41
545,227	44,54
545,705	44,72
546,183	44,71
546,661	45,21
547,139	44,88
547,616	44,85
548,094	45,94
548,571	44,93
549,049	45
549,526	46,66
550,003	44,68
550,48	45,62
550,957	45,43
551,434	45,38
551,911	45,89
552,387	45,26
552,864	46,21
553,34	45,46
553,817	45,54
554,293	45,7
554,769	45,49
555,245	45,9
555,721	45,47
556,197	45,13
556,672	44,9
557,148	45,28
557,623	45,13
558,099	45,27
558,574	44,86
559,049	45,01
559,524	45,19
559,999	43,98
560,474	44,43
560,948	44,24
561,423	44,47
561,897	44,18
562,372	44,04
562,846	44,14
563,32	43,88
563,794	43,56
564,268	43,66
564,742	43,48
565,216	42,77
565,69	43,06
566,163	42,59
566,636	41,9
567,11	42,7
567,583	42,49
568,056	40,99
568,529	41,52
569,002	41,26
569,475	40,52
569,947	40,2
570,42	40,18
570,892	39,65
571,365	39,67
571,837	39,3
572,309	38,53
572,781	38,89
573,253	38,63
573,725	38,47
574,197	37,82
574,668	37,86
575,14	37,27
575,611	37,02
576,082	36,62
576,554	36,92
577,025	35,8
577,496	36,44
577,967	36,02
578,437	35,75
578,908	35,82
579,379	35,08
579,849	34,56
580,319	35,03
580,79	34,66
581,26	34,31
581,73	33,79
582,2	33,92
582,669	33,57
583,139	34,12
583,609	33,56
584,078	33,26
584,548	33,52
585,017	33,3
585,486	32,63
585,955	32,73
586,424	32,44
586,893	31,99
587,362	32,02
587,83	31,97
588,299	32,16
588,767	31,84
589,236	31,78
589,704	31,53
590,172	31,77
590,64	31,1
591,108	30,82
591,576	31,21
592,043	31,03
592,511	30,78
592,978	31,16
593,446	30,74
593,913	31
594,38	30,27
594,847	30,07
595,314	30,27
595,781	30,5
596,248	30,36
596,715	30,28
597,181	30,22
597,647	30,22
598,114	30,1
598,58	30,36
599,046	30,21
599,512	29,76
599,978	29,59
600,444	29,95
600,91	29,68
601,375	29,49
601,841	29,7
602,306	29,39
602,771	29,22
603,236	29,08
603,702	29,17
604,167	29,18
604,631	29,02
605,096	29,24
605,561	28,62
606,025	28,59
606,49	28,27
606,954	28,78
607,418	28,52
607,882	28,4
608,347	28,46
608,81	27,89
609,274	27,91
609,738	27,84
610,202	27,45
610,665	27,24
611,128	27,12
611,592	26,47
612,055	26,54
612,518	26,8
612,981	26,61
613,444	26,53
613,907	26,15
614,369	25,94
614,832	25,87
615,294	25,69
615,757	25,81
616,219	25,16
616,681	25,33
617,143	25,17
617,605	25,06
618,067	24,78
618,529	25,11
618,99	24,77
619,452	24,55
619,913	24,03
620,375	24,74
620,836	24,58
621,297	24,08
621,758	23,91
622,219	23,92
622,68	23,98
623,14	23,71
623,601	24,2
624,061	23,64
624,522	23,74
624,982	23,62
625,442	23,54
625,902	23,44
626,362	23,4
626,822	23,06
627,282	23,68
627,742	23,51
628,201	23,33
628,661	23,46
629,12	23,06
629,579	23,32
630,038	23,43
630,497	23,2
630,956	23,02
631,415	23,3
631,874	23,21
632,332	23,04
632,791	22,6
633,249	22,96
633,708	22,72
634,166	22,56
634,624	22,69
635,082	22,37
635,54	22,49
635,998	22,21
636,455	22,04
636,913	21,93
637,37	21,85
637,828	21,85
638,285	21,42
638,742	21,35
639,199	21,31
639,656	21,19
640,113	21,14
640,57	20,78
641,027	20,41
641,483	20,36
641,94	19,87
642,396	20
642,852	19,84
643,309	19,68
643,765	19,16
644,221	19,29
644,676	18,87
645,132	18,74
645,588	18,68
646,043	18,75
646,499	18,23
646,954	18,13
647,409	18,02
647,864	17,6
648,319	17,33
648,774	17,44
649,229	17,27
649,684	17,35
650,139	17,05
650,593	16,92
651,047	17,03
651,502	16,76
651,956	16,66
652,41	16,38
652,864	16,8
653,318	16,29
653,772	16,45
654,225	16,44
654,679	16,05
655,133	16,36
655,586	15,83
656,039	15,81
656,492	15,8
656,946	15,72
657,399	15,51
657,851	15,48
658,304	15,4
658,757	15,26
659,209	15,28
659,662	15,05
660,114	14,86
660,567	14,64
661,019	14,6
661,471	14,46
661,923	14,31
662,375	14,23
662,826	14,05
663,278	13,95
663,73	13,85
664,181	13,86
664,632	13,76
665,084	13,58
665,535	13,59
665,986	13,38
666,437	13,57
666,888	13,24
667,338	13,32
667,789	13,04
668,24	13,19
668,69	13,07
669,14	13,16
669,591	13,11
670,041	13,2
670,491	13,06
670,941	13,11
671,391	12,99
671,84	13,17
672,29	13,22
672,74	13,19
673,189	13,39
673,638	13,32
674,088	13,29
674,537	13,32
674,986	13,48
675,435	13,47
675,883	13,67
676,332	13,69
676,781	13,67
677,229	14,13
677,678	14,17
678,126	13,93
678,574	14,04
679,022	14,18
679,47	14,44
679,918	14,48
680,366	14,64
680,814	14,76
681,261	14,72
681,709	14,96
682,156	15,05
682,604	15,19
683,051	15,49
683,498	15,44
683,945	15,86
684,392	15,75
684,839	16,12
685,286	16,16
685,732	16,34
686,179	16,45
686,625	17,11
687,071	17,63
687,518	17,56
687,964	18,07
688,41	18,39
688,856	18,79
689,301	19,06
689,747	19,99
690,193	20,5
690,638	21,21
691,084	21,28
691,529	22,32
691,974	22,61
692,419	23,6
692,864	24,17
693,309	25,17
693,754	26,06
694,199	26,81
694,643	27,57
695,088	28,21
695,532	29,8
695,977	30,25
696,421	31,34
696,865	31,99
697,309	33,42
697,753	34,06
698,197	35,1
698,64	36,3
699,084	37,09
699,527	37,98
699,971	39,04
700,414	40,11
700,857	40,29
701,3	41,5
701,743	42,52
702,186	43,75
702,629	44,63
703,072	45,63
703,515	46,22
703,957	47,06
704,399	47,6
704,842	48,98
705,284	49,6
705,726	50,5
706,168	51,2
706,61	51,84
707,052	52,83
707,494	52,99
707,935	53,85
708,377	55,18
708,818	55,79
709,26	56,64
709,701	57,13
710,142	58,35
710,583	58,66
711,024	59,46
711,465	60,33
711,905	60,86
712,346	61,06
712,787	61,47
713,227	62,92
713,667	63,2
714,108	63,65
714,548	64,7
714,988	65,29
715,428	65,43
715,868	65,76
716,307	67,1
716,747	67,38
717,186	68,04
717,626	68,88
718,065	68,74
718,504	69,39
718,944	69,81
719,383	70,23
719,822	70,87
720,261	71,45
720,699	71,78
721,138	72,55
721,576	72,88
722,015	73,39
722,453	73,49
722,892	74,41
723,33	74,68
723,768	75,36
724,206	75,3
724,644	74,99
725,081	75,38
725,519	76,13
725,957	76,39
726,394	76,86
726,832	77,5
727,269	77,81
727,706	78,43
728,143	78,65
728,58	77,81
729,017	79,11
729,454	78,35
729,89	78,9
730,327	79,38
730,764	79,28
731,2	80,53
731,636	80,15
732,072	79,94
732,509	80,1
732,945	81,18
733,38	80,58
733,816	81,59
734,252	81,36
734,688	80,59
735,123	81,42
735,559	81,38
735,994	81,74
736,429	81,29
736,864	82,35
737,299	82,13
737,734	81,87
738,169	82,91
738,604	82,68
739,038	82,47
739,473	82,78
739,907	82,52
740,342	82,96
740,776	83,12
741,21	82,44
741,644	83,45
742,078	83,02
742,512	82,7
742,946	82,92
743,379	83,37
743,813	82,98
744,246	83,76
744,68	83,54
745,113	83,47
745,546	83,08
745,979	83,11
746,412	83,76
746,845	83,01
747,278	82,88
747,711	83,41
748,143	83,51
748,576	83,91
749,008	82,5
749,441	83,5
749,873	83,04
750,305	83,15
750,737	82,88
751,169	82,82
751,601	82,88
752,032	83,44
752,464	82,62
752,896	82,68
753,327	83,68
753,758	82,99
754,19	82,93
754,621	83,32
755,052	82,69
755,483	82,75
755,914	82,56
756,344	82,81
756,775	83,1
757,206	82,89
757,636	82,3
758,066	82,28
758,497	81,85
758,927	82,55
759,357	82,98
759,787	82,48
760,217	82,42
760,647	81,86
761,076	81,9
761,506	82,03
761,935	82,48
762,365	82,03
762,794	82,37
763,223	81,73
763,653	81,91
764,082	82,11
764,51	81,85
764,939	81,94
765,368	81,83
765,797	82,46
766,225	81,52
766,654	81,33
767,082	81,76
767,51	82,23
767,938	81,17
768,367	81,78
768,795	81,82
769,222	81,5
769,65	81,48
770,078	81,65
770,505	81,31
770,933	81,2
771,36	81,33
771,788	81,51
772,215	81,8
772,642	81,31
773,069	81,18
773,496	81,34
773,923	80,68
774,349	80,86
774,776	81,56
775,203	81,86
775,629	80,87
776,055	80,99
776,482	81,24
776,908	81,1
777,334	80,74
777,76	81,22
778,186	80,84
778,611	81,21
779,037	81,29
779,463	81,4
779,888	80,56
780,314	80,6
780,739	80,78
781,164	80,39
781,589	80,89
782,014	80,61
782,439	80,72
782,864	80,54
783,289	81,21
783,713	80,34
784,138	80,95
784,562	80,83
784,987	80,89
785,411	80,06
785,835	80,99
786,259	80,69
786,683	80,33
787,107	80,41
787,531	80,76
787,954	80,59
788,378	80,5
788,802	80,64
789,225	80,43
789,648	80,08
790,071	80,7
790,495	79,99
790,918	80,8
791,34	80,39
791,763	79,82
792,186	80,66
792,609	80,42
793,031	80,03
793,454	80,5
793,876	80,47
794,298	80,55
794,721	80,36
795,143	79,9
795,565	80,41
795,986	79,63
796,408	79,92
796,83	80,69
797,252	79,84
797,673	80
798,094	80,27
798,516	80,1
798,937	79,93
799,358	80,28
799,779	81,01
800,2	80,21
800,621	80
801,042	79,99
801,462	79,89
801,883	79,6
802,303	79,62
802,724	79,96
803,144	80,55
803,564	79,76
803,984	80,52
804,404	79,91
804,824	80,22
805,244	80,05
805,664	79,98
806,084	79,84
806,503	79,61
806,923	79,82
807,342	80,68
807,761	79,74
808,18	80,19
808,599	80,05
809,018	80,07
809,437	79,69
809,856	80,2
810,275	80,21
810,693	80,46
811,112	80,15
811,53	79,99
811,949	80,2
812,367	80,01
812,785	79,82
813,203	79,3
813,621	80,13
814,039	80,73
814,457	79,9
814,874	79,3
815,292	79,86
815,709	79,41
816,127	80,19
816,544	79,32
816,961	79,5
817,378	79,86
817,795	79,25
818,212	79,74
818,629	79,52
819,046	79,73
819,462	79,89
819,879	79,96
820,295	79,82
820,712	79,95
821,128	79,69
821,544	79,67
821,96	79,56
822,376	80,33
822,792	79,94
823,208	79,36
823,624	79,59
824,039	79,46
824,455	80,36
824,87	79,45
825,286	79,48
825,701	79
826,116	79,56
826,531	79,85
826,946	79,38
827,361	79
827,776	79,99
828,19	80,05
828,605	78,99
829,02	79,71
829,434	79,15
829,848	79,52
830,263	79,69
830,677	79,63
831,091	79,15
831,505	79,21
831,919	79,39
832,332	79,01
832,746	79,46
833,16	79,41
833,573	79,54
833,987	79,1
834,4	79,15
834,813	79,83
835,226	79,16
835,639	79,47
836,052	79,59
836,465	79,7
836,878	79,41
837,29	78,77
837,703	79,64
838,116	79,96
838,528	79,52
838,94	78,94
839,352	80,2
839,765	79,51
840,177	79,66
840,589	79,13
841	79,18
841,412	79,81
841,824	80,25
842,235	79,31
842,647	79,48
843,058	79,31
843,47	79,41
843,881	79,22
844,292	79,29
844,703	79,11
845,114	79,4
845,525	78,97
845,935	79,09
846,346	79,07
846,757	79,13
847,167	79,37
847,577	79,28
847,988	79,69
848,398	78,75
848,808	79,71
849,218	78,76
849,628	79,22
850,038	78,68
850,448	79,37
850,857	78,88
851,267	80,17
851,676	79,4
852,086	79,57
852,495	79,01
852,904	79,34
853,313	78,68
853,722	78,99
854,131	78,86
854,54	79,4
854,949	79,08
855,357	79,19
855,766	79,47
856,174	78,57
856,583	79,67
856,991	79,19
857,399	79,28
857,807	79,87
858,215	78,85
858,623	78,65
859,031	79,47
859,439	79,21
859,846	79,38
860,254	79,6
860,661	78,88
861,069	79,03
861,476	79,22
861,883	79,15
862,29	79,06
862,697	79,13
863,104	78,84
863,511	79,05
863,918	79,25
864,325	78,98
864,731	78,8
865,138	79,03
865,544	79,25
865,95	79,17
866,357	78,7
866,763	78,01
867,169	79,34
867,575	79,23
867,98	78,63
868,386	79,4
868,792	78,96
869,197	79,28
869,603	79,06
870,008	79,32
870,414	79,42
870,819	79,3
871,224	78,57
871,629	79,06
872,034	78,54
872,439	78,5
872,844	78,95
873,248	79,21
873,653	79,44
874,057	78,13
874,462	79,38
874,866	79,22
875,27	78,92
875,674	79,22
876,078	78,65
876,482	78,54
876,886	78,56
877,29	78,78
877,694	79,09
878,097	78,19
878,501	79,11
878,904	78,43
879,308	79,21
879,711	78,8
880,114	79,01
880,517	79
880,92	78,34
881,323	79,16
881,726	79,17
882,128	79,38
882,531	79,34
882,934	78,99
883,336	78,3
883,738	78,6
884,141	78,86
884,543	79,15
884,945	78,55
885,347	78,78
885,749	78,5
886,151	78,94
886,552	78,34
886,954	77,93
887,355	78,78
887,757	78,32
888,158	79,17
888,56	79,18
888,961	78,94
889,362	78,62
889,763	78,93
890,164	79,37
890,565	79
890,965	79,13
891,366	78,68
891,767	79,07
892,167	78,27
892,567	78,71
892,968	78,45
893,368	78,54
893,768	78,79
894,168	78,7
894,568	78,7
894,968	79,6
895,368	78,75
895,767	78,9
896,167	79,29
896,566	78,52
896,966	78,64
897,365	78,24
897,764	79,33
898,164	78,58
898,563	79,03
898,962	78,71
899,361	78,99
899,759	78,99
900,158	79,01
900,557	78,99
900,955	78,79
901,354	79,3
901,752	79,13
902,15	79,22
902,548	78,6
902,947	78,5
903,345	78,9
903,742	79,03
904,14	78,67
904,538	78,71
904,936	79,02
905,333	79,06
905,731	79,28
906,128	78,72
906,525	78,5
906,923	79,27
907,32	78,5
907,717	78,17
908,114	78,27
908,511	78,84
908,907	78,29
909,304	78,87
909,701	78,77
910,097	78,28
910,494	78,56
910,89	79,41
911,286	79
911,682	78,35
912,078	78,82
912,474	78,62
912,87	78,33
913,266	79,01
913,662	79,19
914,058	78,66
914,453	78,58
914,849	78,73
915,244	79,37
915,639	79,4
916,034	79,32
916,43	78,44
916,825	78,62
917,22	78,46
917,614	78,74
918,009	78,62
918,404	79,16
918,798	79,19
919,193	78,54
919,587	78,82
919,982	78,96
920,376	78,97
920,77	78,53
921,164	79,11
921,558	79,26
921,952	78,8
922,346	78,57
922,74	79,51
923,133	79,23
923,527	77,73
923,92	78,73
924,314	77,77
924,707	78,68
925,1	77,99
925,493	78,31
925,886	78,49
926,279	77,3
926,672	78,09
927,065	78,99
927,457	78,64
927,85	78,77
928,243	78,75
928,635	77,83
929,027	78,17
929,42	79,05
929,812	78,41
930,204	79,24
930,596	78,89
930,988	78,86
931,379	78,48
931,771	78,36
932,163	78,09
932,554	78,61
932,946	78,28
933,337	78,19
933,729	77,24
934,12	78,18
934,511	77,77
934,902	79,15
935,293	78,14
935,684	78,31
936,075	77,98
936,465	78,3
936,856	78,09
937,246	77,99
937,637	79,44
938,027	78,92
938,417	77,59
938,808	77,24
939,198	77,98
939,588	78,48
939,978	78,53
940,368	77,05
940,757	77,63
941,147	77,77
941,537	77,68
941,926	78,35
942,315	76,71
942,705	78,06
943,094	78,36
943,483	79,13
943,872	77,1
944,261	77,9
944,65	77,45
945,039	76,94
945,428	78,35
945,816	78,14
946,205	76,94
946,593	78,04
946,982	77,09
947,37	78,17
947,758	77,89
948,146	77,85
948,534	76,89
948,922	78,72
949,31	77,91
949,698	76,55
950,086	77,35
950,473	77,82
950,861	77,91
951,248	77,2
951,636	76,68
952,023	76,93
952,41	76,13
952,797	76,08
953,184	76,01
953,571	76,45
953,958	77,23
954,345	76,51
954,731	76,8
955,118	76,2
955,505	76,47
955,891	75,98
956,277	75,52
956,664	76,77
957,05	75,89
957,436	75,5
957,822	75,42
958,208	76,4
958,594	76
958,979	75,88
959,365	77,09
959,751	76,61
960,136	76,32
960,522	76,48
960,907	76,96
961,292	76,41
961,677	75,56
962,062	75,97
962,447	76,21
962,832	75,12
963,217	76,61
963,602	75,9
963,986	76,47
964,371	75,8
964,756	75,87
965,14	76,19
965,524	75,34
965,908	76,06
966,293	75,75
966,677	75,54
967,061	76,44
967,445	75,45
967,828	76,25
968,212	75,73
968,596	76,1
968,979	75,71
969,363	76,61
969,746	75,78
970,129	75,84
970,513	75,95
970,896	76,24
971,279	75,04
971,662	75,51
972,045	75,2
972,428	75,85
972,81	76,15
973,193	76,39
973,575	75,82
973,958	75,15
974,34	76,14
974,723	76,12
975,105	75,5
975,487	76,38
975,869	76,35
976,251	75,43
976,633	75,78
977,015	76,47
977,396	76,62
977,778	75,76
978,16	76,95
978,541	76,52
978,922	75,83
979,304	76,36
979,685	74,92
980,066	76,14
980,447	76,13
980,828	74,91
981,209	75,45
981,59	75,39
981,97	75,16
982,351	75,11
982,732	75,21
983,112	75,76
983,493	76,51
983,873	75,54
984,253	76,67
984,633	75,79
985,013	76,2
985,393	76,8
985,773	76,33
986,153	76,79
986,533	76,35
986,912	76,03
987,292	75,7
987,671	75,8
988,051	75,6
988,43	76,77
988,809	76,74
989,188	76,18
989,567	76,07
989,946	76,18
990,325	77,13
990,704	75,51
991,083	76,94
991,461	76,82
991,84	76,57
992,218	76,47
992,597	75,8
992,975	75,57
993,353	76,62
993,732	76,69
994,11	75,89
994,488	76,04
994,866	77,27
995,243	75,35
995,621	75,91
995,999	77,21
996,376	76,8
996,754	75,01
997,131	76,84
997,509	76,37
997,886	75,64
998,263	75,46
998,64	76,42
999,017	76,27
999,394	76,61
999,771	77,17
1000,148	77,2
1000,524	76,57
1000,901	77,62
1001,277	77,4
1001,654	77,5
1002,03	77,31
1002,406	77,09
1002,783	76,43
1003,159	76,94
1003,535	76,49
1003,911	76,66
1004,286	76,22
1004,662	77,36
1005,038	77
1005,414	77,23
1005,789	76,92
1006,164	77,95
1006,54	78,86
1006,915	77,73
1007,29	77,49
1007,665	76,11
1008,04	78,34
1008,415	77,14
1008,79	76,67
1009,165	75,84
1009,54	76,84
1009,914	76,4
1010,289	76,3
1010,663	76,33
1011,038	76,36
1011,412	77,45
1011,786	76,04
1012,16	77,59
1012,535	76,77
1012,909	77,74
1013,282	76,38
1013,656	77,54
1014,03	77,38
1014,404	77,57
1014,777	77,41
1015,151	77,27
1015,524	77,74
1015,897	77,33
1016,271	77,59
1016,644	76,27
1017,017	78,5
1017,39	77,17
1017,763	78,16
1018,136	76,4
1018,508	77,33
1018,881	77,69
1019,254	78,08
1019,626	76,55
1019,999	76,46
1020,371	76,38
1020,743	78,07
1021,116	77,17
1021,488	77,95
1021,86	76,82
1022,232	77,58
1022,604	77,26
1022,975	78,43
1023,347	77,93
1023,719	77,54
1024,09	77,43
1024,462	77,71
1024,833	76,79
1025,204	79,07
1025,576	77,95
1025,947	77,41
1026,318	78,06
1026,689	77,38
1027,06	77,26
1027,431	76,98
1027,801	78,94
1028,172	77,85
1028,543	77,7
1028,913	77,4
1029,284	78,33
1029,654	78,19
1030,024	78,06
1030,394	78,19
1030,764	76,82
1031,135	78,23
1031,504	79,25
1031,874	77,55
1032,244	77,22
1032,614	78,97
1032,983	78,95
1033,353	78,6
1033,722	79,08
1034,092	78,98
1034,461	77,48
1034,83	79,54
1035,2	76,82
1035,569	78,11
1035,938	78,56
1036,307	77,42
1036,675	78,62
1037,044	79,24
1037,413	78,08
1037,781	77,59
1038,15	77,22
1038,518	77,7
1038,887	79,23
1039,255	78,27
1039,623	77,37
1039,991	78,08
1040,359	79,19
1040,727	79,64
1041,095	77,69
1041,463	78,54
1041,831	77,84
1042,198	77,12
1042,566	78,55
1042,933	76,82
1043,301	78,26
1043,668	78,91
1044,035	78,67
1044,402	78,49
1044,77	78,66
1045,137	77,12
1045,503	78,6
1045,87	78,55
1046,237	78,63
1046,604	80,58
1046,97	79,02
1047,337	78,85
1047,703	77,5
1048,07	78,35
1048,436	79,24
1048,802	78,49
1049,168	78,52
1049,534	78,73
1049,9	80,61
1050,266	77,28
1050,632	78,63
1050,998	78,62
1051,364	77,67
1051,729	78,93
1052,095	79,21
1052,46	78,33
1052,825	79,21
1053,191	78,37
1053,556	79,89
1053,921	77,86
1054,286	77,89
1054,651	79,57
1055,016	80,12
1055,381	77,29
1055,745	80,71
1056,11	78
1056,475	78,64
1056,839	79,66
1057,203	78,27
1057,568	79,26
1057,932	81,91
1058,296	81,22
1058,66	77,64
1059,024	79,46
1059,388	78,41
1059,752	80,57
1060,116	78,61
1060,48	78,36
1060,843	77,36
1061,207	77,66
1061,57	78,37
1061,934	80,73
1062,297	79,15
1062,66	78,52
1063,023	78,36
1063,386	82,52
1063,749	82,08
1064,112	81,59
1064,475	78,2
1064,838	78,95
1065,201	78,48
1065,563	78,29
1065,926	79,49
1066,288	79,68
1066,651	78,15
1067,013	80,02
1067,375	77,95
1067,737	79,95
1068,099	79,13
1068,461	78,47
1068,823	80,28
1069,185	80,17
1069,547	79,23
1069,909	77,5
1070,27	77,98
1070,632	80,47
1070,993	77,69
1071,355	79,73
1071,716	80,09
1072,077	80,32
1072,438	79,08
1072,799	76,3
1073,16	82,59
1073,521	77,82
1073,882	80,67
1074,243	79,84
1074,603	81,29
1074,964	79,54
1075,325	78,96
1075,685	78,55
1076,045	79,16
1076,406	80,12
1076,766	78,4
1077,126	78,73
1077,486	82,66
1077,846	79,14
1078,206	80,16
1078,566	78,29
1078,925	78,88
1079,285	79,32
1079,645	81,11
1080,004	81,05
1080,364	78,5
1080,723	80,53
1081,082	80,61
1081,442	81,63
1081,801	78,37
1082,16	80,64
1082,519	79,2
1082,878	76,74
1083,237	81,07
1083,595	80,49
1083,954	79,64
1084,313	82,13
1084,671	79,05
1085,03	78,64
1085,388	81,78
1085,746	79,84
1086,104	76,87
1086,463	81,62
1086,821	81,36
1087,179	79,89
1087,537	81,25
1087,894	80,26
1088,252	77,89
1088,61	82,15
1088,967	81,29
1089,325	81,46
1089,682	82,12
1090,04	81,96
1090,397	83,35
1090,754	79,68
1091,111	79,47
1091,469	78,7
1091,826	79,03
1092,182	76,13
1092,539	76,47
1092,896	80,95
1093,253	78,67
1093,609	81,12
1093,966	78,75
1094,322	83,81
1094,679	82,26
1095,035	80,46
1095,391	82,28
1095,748	81,25
1096,104	79,57
1096,46	81,81
1096,816	77,76
1097,171	81,77
1097,527	80,48
1097,883	81,9
1098,239	82,59
1098,594	84,06
1098,95	80,12
1099,305	81,53
1099,66	81,48
1100,016	81,25
1100,371	82,85
1100,726	83,08
1101,081	81,29
1101,436	81,9
1101,791	78,74
1102,146	80,76
1102,5	80,63
1102,855	81,4
1103,21	83,87
1103,564	77,89
1103,918	86,36
1104,273	83,26
1104,627	80,57
1104,981	85,64
1105,335	76,15
1105,69	77,58
1106,043	79,43
1106,397	81,51
1106,751	81,23
1107,105	79,46
1107,459	81,27
1107,812	83,58
1108,166	83,2
1108,519	79,96
1108,873	82,24
1109,226	81,13
1109,579	82,14
1109,932	82,26
1110,285	79,85
1110,638	80,68
1110,991	80,11
1111,344	82,5
1111,697	83,9
1112,05	85,57
1112,402	87,67
1112,755	86,43
1113,107	83,87
1113,46	82,5
1113,812	82,45
1114,164	86,29
1114,517	89,05
1114,869	98,01
1115,221	105,56
1115,573	88,32
1115,924	97,4
