Data from G_4_Relative__9__00155.txt Node

Date: Tue Jan 30 10:11:17 CET 2024
User: diatiterra
Spectrometer: HDX00911
Trigger mode: 0
Integration Time (sec): 6,000000E-3
Scans to average: 2
Nonlinearity correction enabled: false
Boxcar width: 0
Storing dark spectrum: false
XAxis mode: Wavelengths
Number of Pixels in Spectrum: 2068
>>>>>Begin Spectral Data<<<<<
194,468	109,39
195,025	105,65
195,581	107,58
196,138	84,08
196,694	93,03
197,251	79,3
197,807	86,67
198,363	81,15
198,919	83,83
199,474	81,78
200,03	77,95
200,586	81,06
201,141	81,09
201,696	86,13
202,251	87,56
202,806	77,87
203,361	83,33
203,916	81,33
204,471	85,15
205,025	83,68
205,58	80,65
206,134	78,09
206,688	70,39
207,242	88,74
207,796	80,08
208,35	96,8
208,904	79,44
209,457	81,4
210,011	81,66
210,564	80,63
211,117	87,66
211,67	80,97
212,223	80,48
212,776	86,44
213,329	82,28
213,881	79,65
214,434	81,15
214,986	87,95
215,538	76,38
216,09	82,33
216,642	83,06
217,194	100
217,746	81,27
218,297	81,09
218,849	76,43
219,4	83,98
219,951	84,51
220,502	78,21
221,053	83,05
221,604	79,13
222,155	88,56
222,705	75,74
223,256	72,28
223,806	82,5
224,356	82,84
224,906	86,34
225,456	81,93
226,006	81,25
226,556	84,96
227,106	83,4
227,655	87,91
228,204	87,33
228,754	84,81
229,303	90,09
229,852	89,96
230,401	86,55
230,949	77,3
231,498	76,34
232,047	86,89
232,595	79,12
233,143	88,16
233,691	83,04
234,239	76,72
234,787	82,96
235,335	78,35
235,883	98,65
236,43	84,75
236,978	84,78
237,525	97,02
238,072	84,14
238,619	81,17
239,166	79,31
239,713	81,86
240,26	74,6
240,806	89,22
241,353	87,18
241,899	81,07
242,445	79,5
242,991	84,43
243,537	84,42
244,083	84,16
244,629	79,3
245,174	88,09
245,72	76,06
246,265	89,14
246,81	80,44
247,355	81,02
247,9	86,67
248,445	74,21
248,99	76,17
249,534	80,38
250,079	88,89
250,623	88,05
251,168	92,24
251,712	83,41
252,256	83,06
252,8	85,4
253,343	81,38
253,887	78,35
254,43	76,67
254,974	83,2
255,517	87,5
256,06	76,79
256,603	84,77
257,146	76,15
257,689	78,81
258,232	88,24
258,774	92,95
259,317	81,03
259,859	85,24
260,401	83,18
260,943	76,76
261,485	81,36
262,027	85,96
262,569	85,19
263,11	91,15
263,652	83,63
264,193	87,91
264,734	88,43
265,275	83,69
265,816	85,9
266,357	80,5
266,898	84,62
267,438	89,79
267,979	78,02
268,519	87,02
269,059	77,47
269,6	88,5
270,14	84,05
270,68	80,74
271,219	86,96
271,759	80,79
272,298	82
272,838	78,09
273,377	95,5
273,916	85,6
274,455	71,92
274,994	74,65
275,533	78,71
276,072	84,26
276,61	89,04
277,149	75,83
277,687	84,32
278,225	79,42
278,763	74,05
279,301	86,53
279,839	86,07
280,377	71,02
280,914	83,33
281,452	84,15
281,989	84,71
282,526	77,5
283,064	74,71
283,601	88,33
284,137	76,89
284,674	82,01
285,211	78,6
285,747	75,98
286,284	73,28
286,82	77,42
287,356	72
287,892	66,67
288,428	72,53
288,964	80,5
289,5	77,21
290,035	80,5
290,571	75,88
291,106	79,64
291,641	72,93
292,176	73,2
292,711	76,29
293,246	62,45
293,781	75,65
294,315	80,47
294,85	70,52
295,384	77,83
295,918	75,6
296,453	75,71
296,987	74,58
297,52	76,02
298,054	73,76
298,588	77,2
299,121	78,38
299,655	69,81
300,188	72,88
300,721	85,71
301,254	80,72
301,787	76,32
302,32	74,79
302,853	76,6
303,385	79,22
303,918	75,56
304,45	84,28
304,982	74,8
305,514	74,39
306,046	80,53
306,578	77,59
307,11	79,17
307,641	83,61
308,173	76,52
308,704	80,89
309,236	73,04
309,767	67,08
310,298	74,8
310,829	76,74
311,359	82,3
311,89	71,92
312,421	63,27
312,951	72,38
313,481	79,62
314,012	70,93
314,542	68,92
315,072	70,39
315,601	76,21
316,131	74,68
316,661	77,61
317,19	67,76
317,72	72,46
318,249	76,61
318,778	74,9
319,307	76,21
319,836	70
320,365	83,4
320,893	78,74
321,422	78,48
321,95	76,09
322,479	68,27
323,007	70,12
323,535	76,98
324,063	74,32
324,591	86,21
325,118	70,13
325,646	74,57
326,173	75
326,701	70,12
327,228	80
327,755	69,05
328,282	80
328,809	71,49
329,336	81,7
329,862	70,07
330,389	76,65
330,915	69,77
331,441	78,48
331,968	62,55
332,494	83,11
333,02	72,8
333,545	67,61
334,071	72,69
334,597	71,9
335,122	77,48
335,648	70,4
336,173	74,58
336,698	75,54
337,223	76,53
337,748	70,2
338,272	72,53
338,797	80,08
339,322	76,92
339,846	67,47
340,37	75,55
340,894	80,17
341,419	66,53
341,942	72,87
342,466	68,58
342,99	70,34
343,514	75,3
344,037	69,55
344,56	74,1
345,084	79,66
345,607	69,81
346,13	71,37
346,653	59,78
347,175	73,31
347,698	73,63
348,221	74,09
348,743	75,47
349,265	74,29
349,787	72,47
350,309	63,87
350,831	65,14
351,353	66,53
351,875	70,7
352,397	63,73
352,918	72,51
353,439	68,53
353,961	69,58
354,482	66,11
355,003	69,4
355,524	63,85
356,044	64,36
356,565	63,19
357,086	59,74
357,606	64,67
358,126	65,55
358,646	59,66
359,167	59,47
359,687	62,05
360,206	76,04
360,726	62,15
361,246	63,78
361,765	60,84
362,285	61,74
362,804	60,98
363,323	59,46
363,842	62,38
364,361	60,37
364,88	62,46
365,398	58,61
365,917	60,65
366,435	59,5
366,954	59,88
367,472	60,66
367,99	54,39
368,508	56,97
369,026	53,54
369,544	65,51
370,061	54,42
370,579	57,18
371,096	51,31
371,613	50,67
372,131	56,14
372,648	54,57
373,165	56,46
373,681	53,93
374,198	55,19
374,715	44,07
375,231	49,63
375,747	51,11
376,264	52,67
376,78	48,82
377,296	48,81
377,812	51,62
378,327	53,52
378,843	49,88
379,359	48,02
379,874	44,49
380,389	44,52
380,905	49,68
381,42	46,53
381,935	48,92
382,449	45,31
382,964	42,34
383,479	45,93
383,993	46,6
384,508	41,92
385,022	44,82
385,536	40,52
386,05	43,41
386,564	41,58
387,078	46,07
387,592	42,46
388,105	42,05
388,619	40,23
389,132	44,09
389,645	37,63
390,158	38,74
390,671	39,06
391,184	38,54
391,697	38,55
392,21	36,54
392,722	39,13
393,235	36,26
393,747	35,96
394,259	38,07
394,771	36,23
395,283	33,51
395,795	36,93
396,307	36,69
396,818	32,46
397,33	32,86
397,841	33,68
398,353	32,13
398,864	32,1
399,375	32,88
399,886	30,78
400,397	29,67
400,907	30,85
401,418	29,78
401,928	28,67
402,439	28,69
402,949	25,85
403,459	28,25
403,969	25,48
404,479	28,82
404,989	26,67
405,498	24,63
406,008	25,99
406,517	24,41
407,027	22,16
407,536	23,16
408,045	20,21
408,554	20,18
409,063	19,86
409,572	19,45
410,08	18,39
410,589	18,61
411,097	18,29
411,606	17,43
412,114	14,72
412,622	15,46
413,13	16,26
413,638	15,68
414,145	14,86
414,653	12,39
415,16	14,88
415,668	14,21
416,175	13,43
416,682	12,32
417,189	12,19
417,696	12,54
418,203	12,45
418,71	12,03
419,216	11,33
419,723	12,18
420,229	11,6
420,735	11,65
421,242	11,75
421,748	11,38
422,254	11,61
422,759	11,5
423,265	9,89
423,771	10,06
424,276	10,15
424,781	10,38
425,287	10,51
425,792	9,75
426,297	10,37
426,802	9,99
427,306	10,26
427,811	9,66
428,316	9,91
428,82	9,03
429,324	9,08
429,829	9,98
430,333	9,38
430,837	9,39
431,34	9,06
431,844	8,3
432,348	10,01
432,851	9,76
433,355	8,91
433,858	9,01
434,361	8,58
434,864	8,49
435,367	9,54
435,87	9,1
436,373	8,24
436,876	9,22
437,378	8,23
437,88	8,33
438,383	9,19
438,885	8,27
439,387	8,35
439,889	7,86
440,391	8,36
440,892	8,68
441,394	8,41
441,896	8,33
442,397	8,32
442,898	7,75
443,399	8,19
443,9	7,93
444,401	8,02
444,902	8,33
445,403	8,03
445,903	8,13
446,404	8,78
446,904	7,88
447,405	8,4
447,905	7,53
448,405	8,06
448,905	7,99
449,404	8,29
449,904	8,11
450,404	8,21
450,903	8,54
451,403	7,73
451,902	8,33
452,401	7,77
452,9	7,89
453,399	8,12
453,898	7,86
454,396	8,39
454,895	8,63
455,393	8,23
455,892	8,28
456,39	7,9
456,888	8,31
457,386	8
457,884	7,95
458,382	8,02
458,879	8,31
459,377	8,16
459,874	8,09
460,372	8,12
460,869	8,19
461,366	7,87
461,863	8,26
462,36	8
462,857	7,95
463,353	7,82
463,85	7,5
464,346	7,8
464,843	8,04
465,339	8,54
465,835	8,2
466,331	7,94
466,827	7,66
467,323	7,74
467,818	7,49
468,314	7,74
468,809	7,71
469,305	7,68
469,8	8,38
470,295	8,19
470,79	7,77
471,285	8,22
471,78	7,46
472,274	7,78
472,769	7,88
473,263	7,57
473,758	8,04
474,252	7,29
474,746	7,5
475,24	7,94
475,734	7,94
476,228	7,6
476,721	7,94
477,215	7,9
477,708	7,7
478,202	7,56
478,695	7,63
479,188	7,89
479,681	7,65
480,174	7,77
480,667	7,95
481,159	7,63
481,652	7,72
482,144	7,92
482,637	7,62
483,129	7,53
483,621	8,18
484,113	7,71
484,605	7,6
485,097	7,97
485,588	8,24
486,08	8,09
486,571	8,21
487,063	8,21
487,554	8,33
488,045	7,97
488,536	7,86
489,027	8,27
489,518	8,03
490,008	7,9
490,499	8,78
490,989	7,9
491,48	8,29
491,97	8,31
492,46	8,02
492,95	8,32
493,44	8,52
493,93	8,63
494,419	8,78
494,909	8,53
495,398	8,56
495,888	8,57
496,377	8,69
496,866	9,06
497,355	8,59
497,844	9,05
498,333	8,88
498,821	9,06
499,31	9,37
499,798	9,71
500,287	9,64
500,775	9,81
501,263	9,62
501,751	10,05
502,239	10,19
502,727	9,85
503,215	10,38
503,702	10,7
504,19	10,18
504,677	10,9
505,164	10,76
505,651	11,45
506,139	11,65
506,625	11,49
507,112	11,73
507,599	12,29
508,086	12,5
508,572	12,43
509,058	13,08
509,545	13,09
510,031	13,28
510,517	13,22
511,003	13,47
511,489	14,07
511,974	14,47
512,46	15,24
512,946	15,21
513,431	14,96
513,916	16,18
514,401	16,49
514,887	16,68
515,371	16,75
515,856	17,43
516,341	17,59
516,826	17,54
517,31	18,17
517,795	18,81
518,279	18,87
518,763	19,68
519,247	19,41
519,731	20,41
520,215	20,32
520,699	20,52
521,182	21,17
521,666	21,44
522,149	22,17
522,633	22,45
523,116	22,57
523,599	23,73
524,082	23,41
524,565	23,94
525,048	24,16
525,53	24,71
526,013	25,68
526,495	25,29
526,978	25,72
527,46	26,57
527,942	26,56
528,424	26,49
528,906	27,04
529,388	27,14
529,87	27,73
530,351	27,66
530,833	27,92
531,314	28,34
531,795	28,21
532,277	28,54
532,758	28,75
533,238	29,37
533,719	28,77
534,2	29,51
534,681	29,71
535,161	29,74
535,642	29,6
536,122	30,39
536,602	29,83
537,082	30,01
537,562	30,17
538,042	30,17
538,522	30,44
539,001	30,37
539,481	30,38
539,96	30,87
540,44	29,98
540,919	30,8
541,398	30,83
541,877	30,83
542,356	31,16
542,835	30,64
543,313	30,34
543,792	30,8
544,27	31,09
544,749	31,52
545,227	31,3
545,705	31,46
546,183	31,22
546,661	31,74
547,139	31,14
547,616	31,72
548,094	31,71
548,571	31,42
549,049	31,96
549,526	31,88
550,003	31,6
550,48	31,8
550,957	31,45
551,434	32,2
551,911	32,04
552,387	32,32
552,864	32,16
553,34	31,9
553,817	31,74
554,293	32,07
554,769	31,89
555,245	32,4
555,721	32,9
556,197	31,47
556,672	30,94
557,148	31,88
557,623	31,58
558,099	31,76
558,574	31,62
559,049	31,48
559,524	31,58
559,999	31,29
560,474	31,68
560,948	31,16
561,423	30,88
561,897	31,03
562,372	30,57
562,846	30,97
563,32	30,9
563,794	30,32
564,268	30,34
564,742	30,28
565,216	29,73
565,69	29,47
566,163	29,73
566,636	29,73
567,11	28,99
567,583	29,01
568,056	28,31
568,529	28,43
569,002	28,43
569,475	28,31
569,947	27,77
570,42	27,72
570,892	27,31
571,365	27,43
571,837	26,79
572,309	26,64
572,781	26,78
573,253	26,33
573,725	26,32
574,197	26,29
574,668	26,01
575,14	25,36
575,611	24,93
576,082	24,83
576,554	25,06
577,025	24,81
577,496	24,55
577,967	24,41
578,437	24,23
578,908	23,92
579,379	23,62
579,849	23,42
580,319	23,36
580,79	22,93
581,26	23,19
581,73	22,78
582,2	22,91
582,669	23,1
583,139	22,56
583,609	22,51
584,078	22,43
584,548	22,36
585,017	22,52
585,486	21,53
585,955	21,57
586,424	21,35
586,893	21,49
587,362	21,6
587,83	21,1
588,299	21,3
588,767	21,03
589,236	21,05
589,704	20,8
590,172	20,83
590,64	21,07
591,108	20,76
591,576	20,7
592,043	20,23
592,511	20,37
592,978	20,58
593,446	20,3
593,913	20,27
594,38	20,37
594,847	20,14
595,314	20,04
595,781	20,04
596,248	20,04
596,715	19,98
597,181	19,88
597,647	19,99
598,114	19,15
598,58	19,62
599,046	19,83
599,512	19,61
599,978	19,53
600,444	19,65
600,91	19,4
601,375	19,53
601,841	19,37
602,306	19,4
602,771	19,17
603,236	19,09
603,702	18,99
604,167	18,69
604,631	19
605,096	18,9
605,561	18,72
606,025	18,68
606,49	18,38
606,954	18,81
607,418	18,66
607,882	18,46
608,347	18,22
608,81	17,99
609,274	17,93
609,738	17,94
610,202	17,46
610,665	17,47
611,128	17,47
611,592	17,09
612,055	17,06
612,518	17,25
612,981	16,68
613,444	16,78
613,907	16,97
614,369	16,65
614,832	16,48
615,294	16,47
615,757	16,27
616,219	16,16
616,681	16,14
617,143	16,23
617,605	15,86
618,067	15,86
618,529	15,86
618,99	15,67
619,452	15,43
619,913	15,51
620,375	15,41
620,836	15,16
621,297	15,17
621,758	15,09
622,219	14,82
622,68	14,97
623,14	14,82
623,601	14,9
624,061	14,86
624,522	14,69
624,982	14,58
625,442	14,71
625,902	14,79
626,362	14,77
626,822	14,78
627,282	14,88
627,742	14,64
628,201	14,74
628,661	14,59
629,12	14,54
629,579	14,56
630,038	14,55
630,497	14,51
630,956	14,59
631,415	14,71
631,874	14,26
632,332	14,36
632,791	14,28
633,249	14,1
633,708	14,17
634,166	13,99
634,624	14,04
635,082	13,73
635,54	13,83
635,998	13,62
636,455	13,67
636,913	13,6
637,37	13,54
637,828	13,51
638,285	13,38
638,742	13,44
639,199	12,85
639,656	12,88
640,113	12,7
640,57	12,59
641,027	12,5
641,483	12,59
641,94	12,21
642,396	12,2
642,852	11,99
643,309	11,74
643,765	11,63
644,221	11,42
644,676	11,45
645,132	11,28
645,588	11,05
646,043	10,9
646,499	10,8
646,954	10,75
647,409	10,59
647,864	10,41
648,319	10,35
648,774	10,14
649,229	10,11
649,684	10,18
650,139	10
650,593	9,89
651,047	9,7
651,502	9,76
651,956	9,48
652,41	9,42
652,864	9,62
653,318	9,31
653,772	9,39
654,225	9,26
654,679	9,28
655,133	9,24
655,586	9,18
656,039	9,19
656,492	9,09
656,946	8,98
657,399	8,79
657,851	8,9
658,304	8,71
658,757	8,58
659,209	8,71
659,662	8,36
660,114	8,45
660,567	8,1
661,019	8,26
661,471	8,22
661,923	8,16
662,375	7,86
662,826	7,76
663,278	7,59
663,73	7,74
664,181	7,56
664,632	7,48
665,084	7,44
665,535	7,49
665,986	7,53
666,437	7,26
666,888	7,28
667,338	7,42
667,789	7,28
668,24	7,39
668,69	7,31
669,14	7,13
669,591	7,25
670,041	7,34
670,491	7,36
670,941	7,21
671,391	7,39
671,84	7,49
672,29	7,56
672,74	7,39
673,189	7,43
673,638	7,55
674,088	7,65
674,537	7,58
674,986	7,74
675,435	7,87
675,883	7,87
676,332	8,09
676,781	7,9
677,229	8,11
677,678	8,36
678,126	8,35
678,574	8,52
679,022	8,61
679,47	8,63
679,918	8,74
680,366	8,83
680,814	8,8
681,261	9,1
681,709	9,16
682,156	9,22
682,604	9,51
683,051	9,59
683,498	9,77
683,945	9,81
684,392	9,85
684,839	10,18
685,286	10,17
685,732	10,52
686,179	10,44
686,625	10,67
687,071	10,9
687,518	11,3
687,964	11,53
688,41	11,92
688,856	12,14
689,301	12,59
689,747	12,68
690,193	13,18
690,638	13,89
691,084	13,89
691,529	14,59
691,974	15,12
692,419	15,61
692,864	16,23
693,309	16,82
693,754	17,49
694,199	18,16
694,643	18,57
695,088	19,06
695,532	20,17
695,977	20,78
696,421	21,33
696,865	22,05
697,309	22,68
697,753	23,79
698,197	24,54
698,64	25,03
699,084	26,16
699,527	26,92
699,971	27,11
700,414	28,04
700,857	28,54
701,3	29,8
701,743	30,27
702,186	31,42
702,629	31,71
703,072	32,44
703,515	33,08
703,957	33,61
704,399	34,46
704,842	35,16
705,284	35,6
705,726	36,41
706,168	37,01
706,61	37,39
707,052	38,4
707,494	38,34
707,935	39,33
708,377	40,15
708,818	39,81
709,26	41,26
709,701	41,54
710,142	42,53
710,583	42,86
711,024	43,27
711,465	44,44
711,905	44,4
712,346	44,86
712,787	45,13
713,227	46,3
713,667	46,24
714,108	46,63
714,548	47,42
714,988	47,96
715,428	48,3
715,868	48,52
716,307	49,03
716,747	49,43
717,186	49,8
717,626	50,57
718,065	50,96
718,504	51,22
718,944	51,55
719,383	51,83
719,822	52,37
720,261	52,95
720,699	53,11
721,138	53,67
721,576	53,91
722,015	54,31
722,453	54,33
722,892	55,3
723,33	55,06
723,768	55,19
724,206	55,65
724,644	55,62
725,081	55,8
725,519	56,41
725,957	56,6
726,394	57,05
726,832	57,26
727,269	57,69
727,706	58,01
728,143	58,6
728,58	58,2
729,017	58,51
729,454	58,21
729,89	58,31
730,327	59,17
730,764	58,94
731,2	59,54
731,636	59,91
732,072	59,61
732,509	59,7
732,945	60,21
733,38	60,18
733,816	60,38
734,252	60,49
734,688	60,5
735,123	60,74
735,559	60,63
735,994	60,99
736,429	61,1
736,864	61,26
737,299	60,75
737,734	60,87
738,169	61,5
738,604	61,1
739,038	61,2
739,473	61,43
739,907	61,53
740,342	61,61
740,776	61,91
741,21	61,79
741,644	62,12
742,078	61,77
742,512	61,96
742,946	61,76
743,379	62,27
743,813	62,11
744,246	62,51
744,68	61,92
745,113	62,76
745,546	61,71
745,979	61,85
746,412	62,23
746,845	61,72
747,278	61,92
747,711	62,08
748,143	62,34
748,576	62,14
749,008	61,43
749,441	62,15
749,873	62,21
750,305	61,59
750,737	61,95
751,169	62,27
751,601	61,66
752,032	62,01
752,464	61,88
752,896	61,93
753,327	62,91
753,758	62,03
754,19	62,1
754,621	62,38
755,052	61,81
755,483	61,7
755,914	61,41
756,344	61,82
756,775	61,76
757,206	61,59
757,636	61,52
758,066	61,32
758,497	61,46
758,927	61,76
759,357	61,92
759,787	61,45
760,217	61,57
760,647	61,54
761,076	61,49
761,506	61,48
761,935	61,55
762,365	61,36
762,794	61,4
763,223	60,87
763,653	61,28
764,082	61,69
764,51	61,37
764,939	61,39
765,368	61,4
765,797	61,48
766,225	60,68
766,654	60,73
767,082	60,81
767,51	61,09
767,938	60,7
768,367	61,13
768,795	61
769,222	60,66
769,65	61,25
770,078	60,9
770,505	60,73
770,933	60,78
771,36	60,54
771,788	60,69
772,215	60,97
772,642	60,93
773,069	60,37
773,496	60,68
773,923	60,62
774,349	60,53
774,776	60,56
775,203	61,2
775,629	60,93
776,055	60,74
776,482	60,82
776,908	60,72
777,334	60,43
777,76	60,84
778,186	60,12
778,611	60,56
779,037	60,52
779,463	60,52
779,888	60,3
780,314	60,23
780,739	60,43
781,164	60,44
781,589	60,52
782,014	60,19
782,439	60,5
782,864	60,19
783,289	60,5
783,713	59,98
784,138	60,59
784,562	60,39
784,987	60,37
785,411	60,11
785,835	60,69
786,259	60,62
786,683	60,48
787,107	60,38
787,531	60,37
787,954	60,07
788,378	60,39
788,802	60,29
789,225	60,27
789,648	60,27
790,071	60,47
790,495	60,02
790,918	60,25
791,34	60,14
791,763	59,95
792,186	60,02
792,609	59,95
793,031	59,95
793,454	60,31
793,876	60,47
794,298	60,33
794,721	60,17
795,143	59,99
795,565	60,16
795,986	59,78
796,408	59,99
796,83	60,13
797,252	60,17
797,673	59,82
798,094	60,4
798,516	59,93
798,937	60,25
799,358	60,2
799,779	60,46
800,2	60,04
800,621	59,76
801,042	60,37
801,462	59,68
801,883	59,66
802,303	59,38
802,724	59,76
803,144	60,33
803,564	59,86
803,984	59,91
804,404	59,63
804,824	59,83
805,244	60,63
805,664	59,92
806,084	59,83
806,503	59,49
806,923	59,54
807,342	60
807,761	59,87
808,18	60,33
808,599	60,34
809,018	60,08
809,437	59,81
809,856	59,43
810,275	60,25
810,693	59,3
811,112	60,07
811,53	59,97
811,949	60,02
812,367	60,24
812,785	59,94
813,203	59,29
813,621	59,67
814,039	59,95
814,457	59,76
814,874	59,72
815,292	60
815,709	59,42
816,127	60,21
816,544	59,58
816,961	59,99
817,378	59,73
817,795	59,6
818,212	59,92
818,629	60,05
819,046	59,84
819,462	59,85
819,879	59,32
820,295	59,51
820,712	59,49
821,128	59,84
821,544	59,61
821,96	59,89
822,376	60,33
822,792	59,64
823,208	59,57
823,624	59,77
824,039	60,01
824,455	59,36
824,87	59,35
825,286	59,81
825,701	59,3
826,116	59,63
826,531	59,69
826,946	59,79
827,361	60,11
827,776	59,62
828,19	59,58
828,605	59,07
829,02	59,82
829,434	59,29
829,848	59,91
830,263	59,42
830,677	59,81
831,091	59,37
831,505	59,37
831,919	59,77
832,332	59,29
832,746	60,01
833,16	59,61
833,573	59,41
833,987	59,34
834,4	59,4
834,813	59,34
835,226	59,2
835,639	59,37
836,052	59,82
836,465	59,69
836,878	59,62
837,29	59,36
837,703	59,56
838,116	59,96
838,528	59,88
838,94	59,4
839,352	59,49
839,765	59,54
840,177	59,55
840,589	59,94
841	59,3
841,412	59,89
841,824	59,76
842,235	59,35
842,647	59,39
843,058	59,85
843,47	59,56
843,881	59,6
844,292	59,18
844,703	59,14
845,114	58,89
845,525	59,46
845,935	59,2
846,346	59,56
846,757	59,55
847,167	59,46
847,577	59,41
847,988	59,6
848,398	59,09
848,808	59,93
849,218	59,39
849,628	59,84
850,038	59,15
850,448	59,57
850,857	59,55
851,267	60,32
851,676	59,62
852,086	59,48
852,495	59,17
852,904	59,47
853,313	59,54
853,722	59,12
854,131	59,38
854,54	59,7
854,949	59,37
855,357	59,62
855,766	59,26
856,174	59,48
856,583	59,29
856,991	59,47
857,399	59,3
857,807	59,32
858,215	59,02
858,623	59,48
859,031	59,22
859,439	59,39
859,846	59,87
860,254	59,64
860,661	59,56
861,069	59,87
861,476	59,76
861,883	59,22
862,29	59,37
862,697	59,88
863,104	59,4
863,511	59,67
863,918	59,31
864,325	59,52
864,731	59,24
865,138	60,1
865,544	59,46
865,95	60,23
866,357	59,87
866,763	59
867,169	59,76
867,575	59,44
867,98	59,4
868,386	59,58
868,792	59,6
869,197	59,64
869,603	59,74
870,008	59,19
870,414	59,57
870,819	60,2
871,224	59,15
871,629	59,6
872,034	59,14
872,439	59,16
872,844	58,87
873,248	59,7
873,653	59,44
874,057	59,26
874,462	59,44
874,866	59,42
875,27	59,82
875,674	59,72
876,078	59,3
876,482	58,81
876,886	59,38
877,29	59,27
877,694	59,71
878,097	59,44
878,501	59,46
878,904	59,15
879,308	59,15
879,711	59,15
880,114	58,87
880,517	59,43
880,92	58,71
881,323	59,32
881,726	59,43
882,128	59,33
882,531	59,42
882,934	60,23
883,336	59,5
883,738	59,21
884,141	59,11
884,543	59,63
884,945	59,54
885,347	59,51
885,749	59,15
886,151	59,72
886,552	58,83
886,954	58,93
887,355	59,07
887,757	59,17
888,158	59,88
888,56	59,57
888,961	59,19
889,362	59,31
889,763	59,28
890,164	59,22
890,565	59,4
890,965	58,9
891,366	59,28
891,767	59,81
892,167	59,07
892,567	59,52
892,968	59,23
893,368	59,37
893,768	59,38
894,168	59,14
894,568	58,9
894,968	59,61
895,368	58,92
895,767	59,3
896,167	59,19
896,566	59,49
896,966	59,1
897,365	58,93
897,764	59,95
898,164	59,06
898,563	59,04
898,962	59,36
899,361	59,27
899,759	59,48
900,158	59,17
900,557	59,51
900,955	59,6
901,354	59,3
901,752	59,18
902,15	59,63
902,548	59,58
902,947	59,19
903,345	59,2
903,742	59,31
904,14	58,44
904,538	59,46
904,936	59,25
905,333	59,64
905,731	59,43
906,128	59,08
906,525	58,82
906,923	59,72
907,32	58,9
907,717	59,2
908,114	59,51
908,511	59,36
908,907	59,21
909,304	59,21
909,701	59,39
910,097	58,73
910,494	59,78
910,89	59,22
911,286	59,16
911,682	59,66
912,078	59,4
912,474	59,42
912,87	58,97
913,266	58,89
913,662	59,43
914,058	59
914,453	58,98
914,849	59,1
915,244	59,59
915,639	59,09
916,034	59,68
916,43	58,61
916,825	59,02
917,22	59,31
917,614	59,22
918,009	59,19
918,404	59,23
918,798	59,09
919,193	59,47
919,587	59,27
919,982	59,1
920,376	59,27
920,77	59,75
921,164	59,44
921,558	59,65
921,952	59,74
922,346	58,89
922,74	59,81
923,133	59,61
923,527	59,09
923,92	58,79
924,314	58,53
924,707	59,42
925,1	59,02
925,493	59,43
925,886	59,12
926,279	58,17
926,672	58,67
927,065	59,46
927,457	58,94
927,85	58,09
928,243	59,47
928,635	58,93
929,027	59,03
929,42	59,17
929,812	58,97
930,204	59,41
930,596	59,49
930,988	58,82
931,379	59,36
931,771	58,72
932,163	59,17
932,554	58,54
932,946	58,91
933,337	58,84
933,729	58,09
934,12	59,25
934,511	58,28
934,902	58,93
935,293	58,98
935,684	59,1
936,075	58,95
936,465	59,8
936,856	58,93
937,246	59,46
937,637	59,65
938,027	59,9
938,417	58,99
938,808	58,59
939,198	59,02
939,588	59,31
939,978	59,51
940,368	58,85
940,757	58,26
941,147	58,46
941,537	58,37
941,926	59,22
942,315	58,44
942,705	59,18
943,094	58,97
943,483	59,82
943,872	58,73
944,261	58,33
944,65	58,94
945,039	58,48
945,428	58,88
945,816	58,56
946,205	59,09
946,593	59,06
946,982	58,02
947,37	58,81
947,758	58,09
948,146	58,47
948,534	58,16
948,922	58,25
949,31	59,27
949,698	57,64
950,086	58,92
950,473	58,88
950,861	57,48
951,248	57,72
951,636	57,4
952,023	57,78
952,41	56,93
952,797	57,65
953,184	57,8
953,571	58,09
953,958	57,31
954,345	58,67
954,731	56,79
955,118	56,77
955,505	57,68
955,891	58,75
956,277	57,42
956,664	57,95
957,05	58,34
957,436	57,69
957,822	57,53
958,208	57,34
958,594	57,46
958,979	57,65
959,365	58,28
959,751	58,67
960,136	57,52
960,522	57,81
960,907	57,62
961,292	57,85
961,677	57,38
962,062	56,88
962,447	57,42
962,832	56,76
963,217	57,56
963,602	56,78
963,986	57,9
964,371	57,34
964,756	57,15
965,14	57,06
965,524	56,95
965,908	56,81
966,293	56,08
966,677	56,87
967,061	57,46
967,445	56,86
967,828	57,33
968,212	56,96
968,596	57,1
968,979	57,15
969,363	57,73
969,746	57,29
970,129	57,32
970,513	57,33
970,896	56,77
971,279	57,23
971,662	57,36
972,045	56,09
972,428	57,99
972,81	57,68
973,193	57,53
973,575	57,61
973,958	57,39
974,34	56,94
974,723	57,06
975,105	56,97
975,487	56,85
975,869	57,04
976,251	56,97
976,633	57,42
977,015	57,41
977,396	56,66
977,778	57,04
978,16	57,36
978,541	57,37
978,922	57,16
979,304	57,48
979,685	56,8
980,066	57,42
980,447	57,38
980,828	57,07
981,209	56,93
981,59	57,6
981,97	56,67
982,351	56,26
982,732	56,38
983,112	57,55
983,493	57,54
983,873	57,15
984,253	57,47
984,633	58,1
985,013	57,07
985,393	57,53
985,773	57,66
986,153	57,76
986,533	57,33
986,912	56,6
987,292	57,09
987,671	57,27
988,051	57,45
988,43	57,41
988,809	58,31
989,188	58,37
989,567	57,25
989,946	57,63
990,325	57,19
990,704	57
991,083	57,44
991,461	57,7
991,84	57,84
992,218	57,27
992,597	57,8
992,975	57,47
993,353	57,28
993,732	57,73
994,11	57,74
994,488	57,74
994,866	57,86
995,243	57,13
995,621	57,53
995,999	58,18
996,376	58,2
996,754	56,74
997,131	57,49
997,509	58,01
997,886	57,02
998,263	57,16
998,64	57,69
999,017	58,06
999,394	58,26
999,771	58,1
1000,148	58,24
1000,524	58,96
1000,901	58,22
1001,277	59,35
1001,654	58,33
1002,03	58,02
1002,406	57,93
1002,783	58
1003,159	57,9
1003,535	57,8
1003,911	57,33
1004,286	58,1
1004,662	58,85
1005,038	58,46
1005,414	57,97
1005,789	57,75
1006,164	58,25
1006,54	57,71
1006,915	58,82
1007,29	58,4
1007,665	58,11
1008,04	58,98
1008,415	57,93
1008,79	58,6
1009,165	57,87
1009,54	56,71
1009,914	58,34
1010,289	57,91
1010,663	58,51
1011,038	57,98
1011,412	59,23
1011,786	58,08
1012,16	59,04
1012,535	58,13
1012,909	58,72
1013,282	58,09
1013,656	57,79
1014,03	59,23
1014,404	58,05
1014,777	58,77
1015,151	58,9
1015,524	57,98
1015,897	58,38
1016,271	58,51
1016,644	57,94
1017,017	59,05
1017,39	58,14
1017,763	58,89
1018,136	58,44
1018,508	59,58
1018,881	58,88
1019,254	57,95
1019,626	58,17
1019,999	58,32
1020,371	58,93
1020,743	59,14
1021,116	58,68
1021,488	58,25
1021,86	58,84
1022,232	59,6
1022,604	59,19
1022,975	58,81
1023,347	58,84
1023,719	59,77
1024,09	59,29
1024,462	58,69
1024,833	58,58
1025,204	58,67
1025,576	58,67
1025,947	59,47
1026,318	58,02
1026,689	58,26
1027,06	59,1
1027,431	58,53
1027,801	60,14
1028,172	58,06
1028,543	58,44
1028,913	58,58
1029,284	59,58
1029,654	59,3
1030,024	58,74
1030,394	59,4
1030,764	58,32
1031,135	60,13
1031,504	58,73
1031,874	59,04
1032,244	59,78
1032,614	59,38
1032,983	59,46
1033,353	58,85
1033,722	59,8
1034,092	59,97
1034,461	59,75
1034,83	60,03
1035,2	58,14
1035,569	59,01
1035,938	59,39
1036,307	59,75
1036,675	60,18
1037,044	59,44
1037,413	59,69
1037,781	59,26
1038,15	60,01
1038,518	60,01
1038,887	59,67
1039,255	58,62
1039,623	59,22
1039,991	59,67
1040,359	59,68
1040,727	60,33
1041,095	58,06
1041,463	59,91
1041,831	59,94
1042,198	59,26
1042,566	58,58
1042,933	60,11
1043,301	59,3
1043,668	61,21
1044,035	61,37
1044,402	60,39
1044,77	59,1
1045,137	58,92
1045,503	59,27
1045,87	59,88
1046,237	60,33
1046,604	61,29
1046,97	58,86
1047,337	59,3
1047,703	60,33
1048,07	60,27
1048,436	60,04
1048,802	58,29
1049,168	60,27
1049,534	58,84
1049,9	60,86
1050,266	59,41
1050,632	60,39
1050,998	59,74
1051,364	60,19
1051,729	60,44
1052,095	60,17
1052,46	59,73
1052,825	60,5
1053,191	59,75
1053,556	61,8
1053,921	62,06
1054,286	60,76
1054,651	61,81
1055,016	60,51
1055,381	60,18
1055,745	59,28
1056,11	59,53
1056,475	60,96
1056,839	61,43
1057,203	59,56
1057,568	60,38
1057,932	62,39
1058,296	61,73
1058,66	59,87
1059,024	60,48
1059,388	58,85
1059,752	61,51
1060,116	60,55
1060,48	60,78
1060,843	59,97
1061,207	59,39
1061,57	59,78
1061,934	62,3
1062,297	60,3
1062,66	60,3
1063,023	60,76
1063,386	63,2
1063,749	62,81
1064,112	60,28
1064,475	59,31
1064,838	60,51
1065,201	59,7
1065,563	61,2
1065,926	61,42
1066,288	61,34
1066,651	59,28
1067,013	58,51
1067,375	61,22
1067,737	60,83
1068,099	59,05
1068,461	62,01
1068,823	62,35
1069,185	61,75
1069,547	61,23
1069,909	61,5
1070,27	59,71
1070,632	62,19
1070,993	59,42
1071,355	62,3
1071,716	60,85
1072,077	60,5
1072,438	60,83
1072,799	60,83
1073,16	61,81
1073,521	60,67
1073,882	59,63
1074,243	60,67
1074,603	62,46
1074,964	60,59
1075,325	61,04
1075,685	62,59
1076,045	61,58
1076,406	60,53
1076,766	62,7
1077,126	61,84
1077,486	63,77
1077,846	61,71
1078,206	59,13
1078,566	62,77
1078,925	61,92
1079,285	62,34
1079,645	62,08
1080,004	62,11
1080,364	59,86
1080,723	62,31
1081,082	61,87
1081,442	60,71
1081,801	61,53
1082,16	62,34
1082,519	61,72
1082,878	59,29
1083,237	62,58
1083,595	63,07
1083,954	61,69
1084,313	60,81
1084,671	61,65
1085,03	61,96
1085,388	63,92
1085,746	64,29
1086,104	62,63
1086,463	63,08
1086,821	63,72
1087,179	61,76
1087,537	63,33
1087,894	61,59
1088,252	63,23
1088,61	63,29
1088,967	63,61
1089,325	61,44
1089,682	64,54
1090,04	61,96
1090,397	64,41
1090,754	61,43
1091,111	60,35
1091,469	60,68
1091,826	66,19
1092,182	59,95
1092,539	61,06
1092,896	63,26
1093,253	63,27
1093,609	60,89
1093,966	65,46
1094,322	64,55
1094,679	66,16
1095,035	63,79
1095,391	64,35
1095,748	62,44
1096,104	64,46
1096,46	61,32
1096,816	61,9
1097,171	64,03
1097,527	60,66
1097,883	66,81
1098,239	65,76
1098,594	64,95
1098,95	61,41
1099,305	62,03
1099,66	61,74
1100,016	62,42
1100,371	64,16
1100,726	65,59
1101,081	62,89
1101,436	65,33
1101,791	62,66
1102,146	67,52
1102,5	62,33
1102,855	63,14
1103,21	66,55
1103,564	64,26
1103,918	67,94
1104,273	63,12
1104,627	66,25
1104,981	66,21
1105,335	62,77
1105,69	62,63
1106,043	64,65
1106,397	63,4
1106,751	63,2
1107,105	67,41
1107,459	62,16
1107,812	66,67
1108,166	67,2
1108,519	65,37
1108,873	65,94
1109,226	65,15
1109,579	69,17
1109,932	62,94
1110,285	65,72
1110,638	64,79
1110,991	65,26
1111,344	62,39
1111,697	66,59
1112,05	66,83
1112,402	65,57
1112,755	68,48
1113,107	67,99
1113,46	71,37
1113,812	68,63
1114,164	66,09
1114,517	69,05
1114,869	98,01
1115,221	85,42
1115,573	89,78
1115,924	83,77
