Data from I_2_Relative__11__00187.txt Node

Date: Tue Jan 30 10:14:43 CET 2024
User: diatiterra
Spectrometer: HDX00911
Trigger mode: 0
Integration Time (sec): 6,000000E-3
Scans to average: 2
Nonlinearity correction enabled: false
Boxcar width: 0
Storing dark spectrum: false
XAxis mode: Wavelengths
Number of Pixels in Spectrum: 2068
>>>>>Begin Spectral Data<<<<<
194,468	102,21
195,025	104,84
195,581	102,27
196,138	91,08
196,694	93,03
197,251	81,94
197,807	87,08
198,363	83,61
198,919	88,51
199,474	85,17
200,03	80,71
200,586	89,87
201,141	84,03
201,696	84,87
202,251	87,06
202,806	82,55
203,361	84,15
203,916	82,57
204,471	87,13
205,025	79,08
205,58	82,95
206,134	82,07
206,688	85,41
207,242	88,29
207,796	86,44
208,35	96,35
208,904	86,29
209,457	80,62
210,011	86,03
210,564	86,04
211,117	87,66
211,67	78,14
212,223	75,7
212,776	86,44
213,329	81,01
213,881	89,18
214,434	79,92
214,986	82,14
215,538	83,46
216,09	85,14
216,642	86,78
217,194	98,56
217,746	82,47
218,297	77,31
218,849	78,71
219,4	83,98
219,951	96,46
220,502	87,94
221,053	91,53
221,604	89,37
222,155	88,98
222,705	88,94
223,256	79,78
223,806	88,33
224,356	97,06
224,906	94,71
225,456	81,93
226,006	89,73
226,556	85,84
227,106	87,97
227,655	94,42
228,204	97,29
228,754	84,81
229,303	90,09
229,852	91,7
230,401	88,79
230,949	78,01
231,498	88,39
232,047	83,61
232,595	94,38
233,143	90,79
233,691	79,15
234,239	76,72
234,787	82,06
235,335	78,79
235,883	93,24
236,43	81,36
236,978	99,57
237,525	84,26
238,072	86,34
238,619	82,51
239,166	75,43
239,713	86,08
240,26	77,42
240,806	81,47
241,353	86,32
241,899	83,54
242,445	80,33
242,991	84,43
243,537	86,58
244,083	81,9
244,629	81,06
245,174	81,28
245,72	80,69
246,265	87,78
246,81	92,89
247,355	90,51
247,9	80,42
248,445	79,37
248,99	83,83
249,534	82,26
250,079	93,06
250,623	87,17
251,168	86,53
251,712	75,98
252,256	78,1
252,8	86,73
253,343	87,04
253,887	91,77
254,43	85,93
254,974	76,4
255,517	89,42
256,06	71,31
256,603	84,77
257,146	83,46
257,689	73,31
258,232	90,95
258,774	78,85
259,317	81,47
259,859	90,95
260,401	85,51
260,943	76,76
261,485	87,27
262,027	81,7
262,569	82,41
263,11	87,17
263,652	83,19
264,193	87,44
264,734	91,2
265,275	81,55
265,816	75,64
266,357	82,16
266,898	83,76
267,438	82,13
267,979	79,74
268,519	88,94
269,059	68,38
269,6	81,42
270,14	80,17
270,68	79,51
271,219	87,83
271,759	85,59
272,298	80,8
272,838	85,26
273,377	87,84
273,916	85,21
274,455	75,38
274,994	85,71
275,533	82,51
276,072	80,85
276,61	89,47
277,149	80,42
277,687	92,37
278,225	69,55
278,763	75,57
279,301	79,59
279,839	82,38
280,377	75,92
280,914	85,65
281,452	81,71
281,989	89,67
282,526	69,17
283,064	82,76
283,601	85
284,137	84,44
284,674	78,66
285,211	90,39
285,747	87,01
286,284	89,22
286,82	86,69
287,356	79,11
287,892	80,25
288,428	78,11
288,964	88,38
289,5	84,65
290,035	80,08
290,571	83,66
291,106	89,14
291,641	79,04
292,176	78,8
292,711	84,91
293,246	83,14
293,781	79,13
294,315	82,79
294,85	73,31
295,384	81,13
295,918	84,8
296,453	85,02
296,987	79,24
297,52	86,43
298,054	85,07
298,588	78,4
299,121	89,19
299,655	85,38
300,188	83,05
300,721	85,71
301,254	85,2
301,787	82,46
302,32	83,76
302,853	88,09
303,385	81,96
303,918	86,67
304,45	87,77
304,982	84,4
305,514	79,27
306,046	88,94
306,578	80,5
307,11	77,27
307,641	83,19
308,173	86,52
308,704	85,77
309,236	87,39
309,767	78,75
310,298	77,6
310,829	78,29
311,359	89,82
311,89	82,31
312,421	74,29
312,951	79,92
313,481	89,57
314,012	80,23
314,542	77,48
315,072	75,97
315,601	83,47
316,131	87,98
316,661	81,47
317,19	69,8
317,72	86,02
318,249	78,44
318,778	91,36
319,307	83,47
319,836	78
320,365	78,72
320,893	83,07
321,422	83,86
321,95	86,09
322,479	77,91
323,007	77,29
323,535	86,04
324,063	77,82
324,591	77,78
325,118	71,86
325,646	75,43
326,173	83,48
326,701	73,71
327,228	80
327,755	79,52
328,282	81,36
328,809	73,25
329,336	84,68
329,862	80,66
330,389	82,82
330,915	74,03
331,441	84,39
331,968	77,69
332,494	84,89
333,02	72,38
333,545	78,54
334,071	84,03
334,597	80,58
335,122	87,39
335,648	76,4
336,173	76,69
336,698	81,55
337,223	81,22
337,748	74,51
338,272	78,11
338,797	80,88
339,322	91,45
339,846	80,72
340,37	86,46
340,894	81,01
341,419	78,63
341,942	79,07
342,466	77,43
342,99	74,52
343,514	81,78
344,037	74,81
344,56	74,1
345,084	78,39
345,607	78,11
346,13	77,02
346,653	66,05
347,175	80,08
347,698	82,05
348,221	78,95
348,743	86,04
349,265	80,41
349,787	74,91
350,309	71,9
350,831	73,24
351,353	81,63
351,875	77,66
352,397	74,58
352,918	82,07
353,439	78,49
353,961	75,52
354,482	82,21
355,003	67,19
355,524	72,97
356,044	76,73
356,565	72,22
357,086	66,56
357,606	66,67
358,126	75,59
358,646	66,21
359,167	68,77
359,687	70,3
360,206	74,76
360,726	73,82
361,246	67,8
361,765	70,55
362,285	73,15
362,804	68,6
363,323	73,27
363,842	69,97
364,361	65,63
364,88	70,27
365,398	64,35
365,917	68,34
366,435	62,81
366,954	67,17
367,472	68,17
367,99	63,46
368,508	70,3
369,026	77,62
369,544	73,62
370,061	64,08
370,579	71,27
371,096	66,75
371,613	62,47
372,131	66,32
372,648	71,57
373,165	73,88
373,681	66,49
374,198	67,59
374,715	60,31
375,231	63,7
375,747	65,43
376,264	64,81
376,78	68,72
377,296	63,57
377,812	63,59
378,327	61,5
378,843	64,27
379,359	59,91
379,874	61,33
380,389	56,16
380,905	64,97
381,42	59,39
381,935	67,03
382,449	60,16
382,964	54,82
383,479	56,16
383,993	61,4
384,508	54,62
385,022	57,63
385,536	56,69
386,05	55,29
386,564	49,12
387,078	57,24
387,592	52,46
388,105	51,99
388,619	50,4
389,132	55,74
389,645	50,69
390,158	55,12
390,671	49,19
391,184	53,87
391,697	48,93
392,21	48,04
392,722	47,12
393,235	48,35
393,747	46,49
394,259	48,74
394,771	51,93
395,283	44,46
395,795	44,67
396,307	45,7
396,818	41,72
397,33	46,62
397,841	40,6
398,353	42,97
398,864	44,4
399,375	37,61
399,886	39,66
400,397	40,88
400,907	40,5
401,418	39,5
401,928	38,34
402,439	39,4
402,949	35,02
403,459	34,81
403,969	34,36
404,479	34,79
404,989	34,44
405,498	33,42
406,008	33,68
406,517	31,61
407,027	31,27
407,536	29,06
408,045	25,65
408,554	27,37
409,063	26,86
409,572	25,94
410,08	24,82
410,589	24,24
411,097	22,77
411,606	22,56
412,114	20,88
412,622	20,8
413,13	22,16
413,638	20,63
414,145	20,03
414,653	18,54
415,16	18,41
415,668	18,44
416,175	18,24
416,682	17,07
417,189	16,09
417,696	16,26
418,203	16,91
418,71	15,8
419,216	16,89
419,723	16,25
420,229	16,16
420,735	15,23
421,242	15,04
421,748	15
422,254	16,25
422,759	13,54
423,265	13,45
423,771	14,22
424,276	13,78
424,781	14,17
425,287	13,7
425,792	13,25
426,297	13,27
426,802	13,89
427,306	13,4
427,811	12,79
428,316	13,14
428,82	13,66
429,324	13,17
429,829	12,89
430,333	13,4
430,837	13,11
431,34	12,45
431,844	12,6
432,348	13,21
432,851	12,58
433,355	12,15
433,858	12,81
434,361	12,14
434,864	12,04
435,367	12,15
435,87	11,86
436,373	12,03
436,876	12,07
437,378	12,58
437,88	12,03
438,383	11,85
438,885	11,74
439,387	11,56
439,889	11,21
440,391	12,41
440,892	11,53
441,394	12,16
441,896	12,09
442,397	11,47
442,898	11,79
443,399	11,39
443,9	11,14
444,401	11,9
444,902	11,12
445,403	12,25
445,903	12,37
446,404	12,14
446,904	11,94
447,405	11,59
447,905	11,71
448,405	11,92
448,905	11,83
449,404	11,61
449,904	12
450,404	11,71
450,903	12,53
451,403	11,36
451,902	11,96
452,401	12,25
452,9	12,09
453,399	12,55
453,898	12,49
454,396	11,97
454,895	12
455,393	12,8
455,892	12,74
456,39	12,16
456,888	12,74
457,386	12,1
457,884	12,43
458,382	12,25
458,879	12,38
459,377	12,42
459,874	12,69
460,372	12,68
460,869	12,35
461,366	12,5
461,863	12,79
462,36	12,29
462,857	12,7
463,353	12,47
463,85	12,25
464,346	11,81
464,843	12,48
465,339	13,05
465,835	12,26
466,331	12,04
466,827	12,81
467,323	12,59
467,818	12,56
468,314	11,9
468,809	12,23
469,305	12,22
469,8	12,65
470,295	12,38
470,79	12,34
471,285	12,83
471,78	12,11
472,274	12,57
472,769	12,02
473,263	12,52
473,758	12,6
474,252	12,57
474,746	11,75
475,24	12,66
475,734	12,09
476,228	12,62
476,721	12,31
477,215	12,21
477,708	12,41
478,202	12,36
478,695	12,16
479,188	13,05
479,681	12,47
480,174	12,31
480,667	12,71
481,159	13,18
481,652	12,65
482,144	12,7
482,637	12,36
483,129	12,38
483,621	12,56
484,113	12,38
484,605	13,05
485,097	12,84
485,588	12,93
486,08	12,9
486,571	13,19
487,063	13,51
487,554	12,77
488,045	12,68
488,536	13,08
489,027	12,98
489,518	13,11
490,008	13,34
490,499	13,2
490,989	13,09
491,48	13,51
491,97	13,44
492,46	13,01
492,95	13,28
493,44	13,81
493,93	13,92
494,419	13,56
494,909	14,29
495,398	14,25
495,888	14,19
496,377	14,15
496,866	14,15
497,355	14,66
497,844	14,43
498,333	14,81
498,821	15,28
499,31	14,98
499,798	15,22
500,287	15,54
500,775	15,84
501,263	15,75
501,751	15,87
502,239	16,4
502,727	16,71
503,215	17,51
503,702	17,23
504,19	16,98
504,677	17,41
505,164	17,52
505,651	18,33
506,139	18,29
506,625	18,63
507,112	19,06
507,599	19,51
508,086	19,76
508,572	19,95
509,058	20,16
509,545	20,16
510,031	20,4
510,517	21,39
511,003	21,39
511,489	21,88
511,974	22,39
512,46	23,05
512,946	22,89
513,431	22,91
513,916	23,84
514,401	24,04
514,887	24,07
515,371	24,93
515,856	25,34
516,341	26,22
516,826	26,69
517,31	26,77
517,795	27,74
518,279	27,63
518,763	28,56
519,247	28,39
519,731	28,94
520,215	29,03
520,699	29,96
521,182	31,31
521,666	30,3
522,149	31,19
522,633	31,31
523,116	31,55
523,599	32,63
524,082	32,4
524,565	32,89
525,048	33,98
525,53	33,62
526,013	35,02
526,495	35,09
526,978	35,17
527,46	35,2
527,942	35,81
528,424	36,69
528,906	36,16
529,388	36,5
529,87	36,47
530,351	36,52
530,833	36,92
531,314	38,8
531,795	37,63
532,277	38,32
532,758	38,06
533,238	38,62
533,719	38,18
534,2	38,76
534,681	38,96
535,161	39,28
535,642	38,79
536,122	39,51
536,602	38,99
537,082	39,84
537,562	39,2
538,042	39,88
538,522	39,58
539,001	39,47
539,481	39,89
539,96	39,22
540,44	39,45
540,919	40,14
541,398	39,06
541,877	39,22
542,356	40,34
542,835	39,09
543,313	39,73
543,792	40,01
544,27	40,44
544,749	40,32
545,227	39,99
545,705	40,3
546,183	40,6
546,661	40,64
547,139	40,18
547,616	40,41
548,094	40,93
548,571	40,79
549,049	40,44
549,526	40,86
550,003	40,59
550,48	41,03
550,957	40,69
551,434	40,8
551,911	41,09
552,387	41,38
552,864	41,13
553,34	41,32
553,817	41
554,293	41,04
554,769	40,91
555,245	41,35
555,721	40,88
556,197	40,62
556,672	40,8
557,148	40,33
557,623	40,6
558,099	39,97
558,574	40,56
559,049	40,79
559,524	41,28
559,999	40,06
560,474	40,46
560,948	40,47
561,423	40,45
561,897	40,17
562,372	39,95
562,846	39,42
563,32	40,04
563,794	40,35
564,268	39,99
564,742	39,31
565,216	39,02
565,69	39,07
566,163	39,6
566,636	39,19
567,11	38,37
567,583	38,85
568,056	37,91
568,529	38,3
569,002	37,47
569,475	37,47
569,947	37,02
570,42	36,9
570,892	36,82
571,365	37,01
571,837	36,29
572,309	36,21
572,781	35,95
573,253	35,76
573,725	35,65
574,197	35,3
574,668	35,11
575,14	34,55
575,611	34,49
576,082	33,96
576,554	34,24
577,025	33,56
577,496	33,4
577,967	33,57
578,437	33,78
578,908	33,32
579,379	32,85
579,849	32,56
580,319	32,86
580,79	32,49
581,26	32,24
581,73	32,45
582,2	31,92
582,669	32,02
583,139	31,79
583,609	32,25
584,078	31,17
584,548	32,02
585,017	31,07
585,486	30,53
585,955	30,54
586,424	31,02
586,893	30,58
587,362	30,52
587,83	30,07
588,299	30,74
588,767	30,2
589,236	30,19
589,704	29,8
590,172	29,45
590,64	29,48
591,108	29,7
591,576	29,43
592,043	29,36
592,511	29,49
592,978	29,39
593,446	29,13
593,913	29,17
594,38	28,83
594,847	28,94
595,314	29,02
595,781	29,16
596,248	28,66
596,715	28,87
597,181	28,89
597,647	28,81
598,114	28,5
598,58	28,71
599,046	28,5
599,512	28,47
599,978	28,22
600,444	28,33
600,91	28,28
601,375	28,05
601,841	28,07
602,306	28,13
602,771	28,02
603,236	27,82
603,702	27,6
604,167	27,73
604,631	27,56
605,096	27,27
605,561	27,33
606,025	27,07
606,49	26,99
606,954	27,2
607,418	27,18
607,882	26,89
608,347	27,21
608,81	26,66
609,274	26,76
609,738	26,68
610,202	26,27
610,665	26,2
611,128	26,23
611,592	26,15
612,055	25,72
612,518	25,57
612,981	25,49
613,444	25,6
613,907	25,51
614,369	25,32
614,832	24,94
615,294	24,86
615,757	24,95
616,219	24,52
616,681	24,94
617,143	24,44
617,605	23,91
618,067	23,99
618,529	24,26
618,99	23,96
619,452	23,85
619,913	23,67
620,375	23,53
620,836	23,44
621,297	23,49
621,758	23,26
622,219	23,12
622,68	22,94
623,14	22,97
623,601	23,07
624,061	23,21
624,522	23,28
624,982	22,79
625,442	23,05
625,902	22,8
626,362	23,01
626,822	22,71
627,282	22,91
627,742	22,58
628,201	22,65
628,661	22,96
629,12	22,85
629,579	22,47
630,038	22,6
630,497	22,38
630,956	22,64
631,415	22,39
631,874	22,26
632,332	22,41
632,791	22,13
633,249	21,87
633,708	22,1
634,166	21,98
634,624	21,85
635,082	22,06
635,54	21,65
635,998	21,5
636,455	21,38
636,913	21,26
637,37	21,16
637,828	21,15
638,285	20,93
638,742	21,06
639,199	20,32
639,656	20,12
640,113	20,1
640,57	19,54
641,027	19,93
641,483	19,5
641,94	19,54
642,396	19,03
642,852	18,96
643,309	18,38
643,765	18,53
644,221	18,24
644,676	18,07
645,132	18
645,588	17,41
646,043	17,39
646,499	17,26
646,954	17,1
647,409	17,19
647,864	16,86
648,319	16,72
648,774	16,44
649,229	16,25
649,684	16,39
650,139	16,17
650,593	16,11
651,047	16,05
651,502	15,82
651,956	15,75
652,41	15,76
652,864	15,46
653,318	15,57
653,772	15,49
654,225	15,21
654,679	15,33
655,133	15,24
655,586	15,19
656,039	15,18
656,492	14,9
656,946	14,9
657,399	14,6
657,851	14,87
658,304	14,5
658,757	13,92
659,209	14,63
659,662	14,18
660,114	13,98
660,567	13,66
661,019	13,85
661,471	13,61
661,923	13,37
662,375	13,18
662,826	12,88
663,278	13
663,73	12,79
664,181	12,93
664,632	12,72
665,084	12,45
665,535	12,28
665,986	12,29
666,437	12,2
666,888	12,12
667,338	11,99
667,789	11,88
668,24	11,99
668,69	11,68
669,14	11,9
669,591	11,83
670,041	11,75
670,491	11,73
670,941	11,92
671,391	11,72
671,84	11,76
672,29	11,92
672,74	11,84
673,189	11,85
673,638	11,93
674,088	12,2
674,537	12,14
674,986	12,26
675,435	12,27
675,883	12,51
676,332	12,26
676,781	12,69
677,229	12,68
677,678	12,81
678,126	12,91
678,574	12,91
679,022	13,42
679,47	13,39
679,918	13,4
680,366	13,57
680,814	13,72
681,261	13,96
681,709	14,15
682,156	14,37
682,604	14,58
683,051	14,57
683,498	14,98
683,945	15,27
684,392	15,34
684,839	15,82
685,286	15,97
685,732	16,14
686,179	16,55
686,625	17,17
687,071	17,49
687,518	17,56
687,964	18,31
688,41	18,62
688,856	18,99
689,301	19,69
689,747	20,2
690,193	20,89
690,638	21,3
691,084	21,61
691,529	22,78
691,974	23,16
692,419	23,96
692,864	24,55
693,309	25,51
693,754	26,03
694,199	26,84
694,643	27,65
695,088	28
695,532	29,04
695,977	30,14
696,421	30,53
696,865	31,13
697,309	32,19
697,753	32,8
698,197	33,66
698,64	34,25
699,084	35,24
699,527	35,96
699,971	36,46
700,414	37,33
700,857	37,65
701,3	38,25
701,743	39,07
702,186	39,79
702,629	40,12
703,072	41,06
703,515	41,2
703,957	42
704,399	42,51
704,842	43,27
705,284	43,29
705,726	44,43
706,168	44,84
706,61	45,07
707,052	45,51
707,494	45,94
707,935	46,87
708,377	47,14
708,818	47,38
709,26	48,21
709,701	48,41
710,142	49,23
710,583	49,35
711,024	50,03
711,465	50,57
711,905	50,58
712,346	50,68
712,787	51,28
713,227	51,9
713,667	51,72
714,108	52,66
714,548	52,89
714,988	53,38
715,428	53,01
715,868	53,63
716,307	53,57
716,747	54,64
717,186	55,31
717,626	55,08
718,065	55,32
718,504	55,54
718,944	55,7
719,383	55,91
719,822	56,18
720,261	56,63
720,699	57,09
721,138	57,55
721,576	57,2
722,015	57,75
722,453	58,28
722,892	58,77
723,33	58,49
723,768	58,77
724,206	58,58
724,644	59,15
725,081	58,78
725,519	59,38
725,957	59,24
726,394	59,78
726,832	59,74
727,269	59,88
727,706	60,11
728,143	60,25
728,58	60,41
729,017	60,7
729,454	60,81
729,89	60,38
730,327	61,25
730,764	60,99
731,2	61,46
731,636	61,21
732,072	61,18
732,509	61,63
732,945	61,74
733,38	61,83
733,816	61,53
734,252	61,61
734,688	61,53
735,123	62,25
735,559	61,79
735,994	62,18
736,429	61,85
736,864	61,89
737,299	62,45
737,734	62,2
738,169	62,91
738,604	62,14
739,038	62,54
739,473	62,76
739,907	62,81
740,342	62,46
740,776	62,6
741,21	62,45
741,644	62,89
742,078	62,56
742,512	62,48
742,946	62,56
743,379	62,98
743,813	63,08
744,246	62,75
744,68	62,54
745,113	62,5
745,546	62,19
745,979	62,63
746,412	62,36
746,845	62,53
747,278	62,36
747,711	62,34
748,143	62,47
748,576	62,47
749,008	61,79
749,441	62,27
749,873	62,26
750,305	62,44
750,737	62,21
751,169	62,15
751,601	61,79
752,032	61,63
752,464	61,79
752,896	61,89
753,327	62,16
753,758	62,07
754,19	62,17
754,621	61,97
755,052	61,54
755,483	61,88
755,914	61,57
756,344	61,57
756,775	61,81
757,206	61,36
757,636	61,06
758,066	61,11
758,497	61,1
758,927	61,5
759,357	61,78
759,787	61,14
760,217	61,48
760,647	60,87
761,076	60,85
761,506	61,07
761,935	61,41
762,365	61
762,794	60,86
763,223	60,72
763,653	61,04
764,082	60,87
764,51	60,76
764,939	61,13
765,368	61
765,797	60,88
766,225	60,26
766,654	60,85
767,082	60,6
767,51	60,98
767,938	59,99
768,367	60,61
768,795	60,78
769,222	60,29
769,65	59,93
770,078	60,6
770,505	60,15
770,933	60,07
771,36	60,16
771,788	60,43
772,215	60,59
772,642	59,88
773,069	59,9
773,496	59,95
773,923	60,17
774,349	59,95
774,776	60,03
775,203	60,21
775,629	59,9
776,055	60,05
776,482	60,14
776,908	60,25
777,334	59,87
777,76	59,81
778,186	59,75
778,611	60,01
779,037	60,11
779,463	60,01
779,888	59,68
780,314	60,05
780,739	59,8
781,164	59,49
781,589	59,82
782,014	59,15
782,439	59,64
782,864	59,87
783,289	59,76
783,713	59,24
784,138	59,99
784,562	59,43
784,987	59,75
785,411	59
785,835	59,75
786,259	59,65
786,683	60,17
787,107	59,53
787,531	59,57
787,954	59,82
788,378	59,64
788,802	59,57
789,225	59,31
789,648	59,21
790,071	59,92
790,495	59,5
790,918	59,55
791,34	59,06
791,763	58,99
792,186	59,4
792,609	59,55
793,031	59,11
793,454	59,24
793,876	59,56
794,298	59,58
794,721	59,03
795,143	59,01
795,565	59,51
795,986	58,9
796,408	59,18
796,83	59,64
797,252	58,84
797,673	59,27
798,094	59,44
798,516	59,17
798,937	58,88
799,358	59,23
799,779	59,22
800,2	59,23
800,621	58,76
801,042	59,09
801,462	58,85
801,883	58,79
802,303	58,62
802,724	58,94
803,144	59,18
803,564	58,66
803,984	58,96
804,404	58,66
804,824	59,4
805,244	59,43
805,664	59,14
806,084	59,18
806,503	59
806,923	58,95
807,342	59,26
807,761	58,83
808,18	59,14
808,599	59,22
809,018	59,11
809,437	58,88
809,856	58,93
810,275	59,27
810,693	58,85
811,112	59,12
811,53	59,41
811,949	59,31
812,367	58,9
812,785	58,78
813,203	58,53
813,621	59,01
814,039	58,87
814,457	59,14
814,874	58,86
815,292	58,7
815,709	58,53
816,127	59,12
816,544	58,98
816,961	58,52
817,378	58,84
817,795	58,87
818,212	59,04
818,629	58,79
819,046	58,73
819,462	58,91
819,879	58,78
820,295	58,85
820,712	58,88
821,128	58,95
821,544	58,78
821,96	58,86
822,376	59,25
822,792	58,93
823,208	59,09
823,624	59,07
824,039	58,45
824,455	59,05
824,87	58,99
825,286	58,74
825,701	58,58
826,116	58,59
826,531	59
826,946	58,49
827,361	58,39
827,776	59,3
828,19	58,45
828,605	58,63
829,02	58,6
829,434	58,61
829,848	58,51
830,263	58,53
830,677	58,17
831,091	58,6
831,505	58,65
831,919	58,77
832,332	58,45
832,746	58,62
833,16	58,5
833,573	58,5
833,987	58,2
834,4	58,41
834,813	58,23
835,226	58,34
835,639	58,77
836,052	58,34
836,465	58,44
836,878	58,82
837,29	58,56
837,703	58,42
838,116	58,92
838,528	58,72
838,94	58,27
839,352	58,47
839,765	58,68
840,177	58,38
840,589	58,42
841	58,35
841,412	59,11
841,824	58,87
842,235	58,4
842,647	58,14
843,058	58,46
843,47	58,34
843,881	58,78
844,292	58,26
844,703	57,96
845,114	58,27
845,525	58,7
845,935	58,25
846,346	58,61
846,757	58,71
847,167	58,32
847,577	58,39
847,988	58,84
848,398	58,19
848,808	58,57
849,218	57,95
849,628	58,57
850,038	58,25
850,448	58,3
850,857	58,48
851,267	58,67
851,676	58,81
852,086	58,76
852,495	58,32
852,904	58,44
853,313	58,21
853,722	58,1
854,131	58,21
854,54	58,39
854,949	58,26
855,357	58,22
855,766	58,83
856,174	58,73
856,583	58,53
856,991	58,35
857,399	58,44
857,807	58,39
858,215	58,53
858,623	58,1
859,031	58,29
859,439	58,05
859,846	58,84
860,254	58,66
860,661	58,19
861,069	58,42
861,476	58,43
861,883	58,5
862,29	58,32
862,697	58,32
863,104	58,16
863,511	58,31
863,918	58,19
864,325	58,16
864,731	58,35
865,138	58,59
865,544	58,79
865,95	58,39
866,357	58,19
866,763	57,62
867,169	58,66
867,575	58,57
867,98	58,57
868,386	58,11
868,792	58,15
869,197	58,27
869,603	58,11
870,008	58,38
870,414	58,64
870,819	58,45
871,224	57,81
871,629	58,53
872,034	58,08
872,439	57,73
872,844	58,11
873,248	58,55
873,653	58,2
874,057	57,75
874,462	58,22
874,866	58,38
875,27	58,7
875,674	58,43
876,078	58,57
876,482	57,91
876,886	58,04
877,29	58,3
877,694	58,18
878,097	58,46
878,501	58,66
878,904	57,81
879,308	58,23
879,711	58,17
880,114	58,13
880,517	58,46
880,92	58,46
881,323	58,38
881,726	58,47
882,128	58,63
882,531	58,45
882,934	58,59
883,336	58,32
883,738	58,23
884,141	57,95
884,543	58,23
884,945	58,37
885,347	58,24
885,749	58
886,151	58,37
886,552	57,76
886,954	57,79
887,355	58,19
887,757	57,67
888,158	58,51
888,56	58,05
888,961	58,34
889,362	57,94
889,763	57,91
890,164	58,28
890,565	58,08
890,965	58,3
891,366	58,48
891,767	58,63
892,167	57,84
892,567	58,28
892,968	58,46
893,368	57,65
893,768	57,87
894,168	57,85
894,568	57,73
894,968	58,3
895,368	58,19
895,767	58
896,167	58,3
896,566	58,32
896,966	58,09
897,365	57,94
897,764	58,38
898,164	57,61
898,563	58,21
898,962	57,77
899,361	58,77
899,759	58,07
900,158	57,87
900,557	58,13
900,955	57,97
901,354	58,41
901,752	58,5
902,15	58,16
902,548	58,03
902,947	57,86
903,345	58,32
903,742	57,72
904,14	57,58
904,538	57,9
904,936	57,85
905,333	58,46
905,731	58,94
906,128	57,84
906,525	58,35
906,923	58,14
907,32	58,1
907,717	57,87
908,114	58,44
908,511	57,98
908,907	58,18
909,304	58,31
909,701	57,88
910,097	57,96
910,494	57,75
910,89	59,18
911,286	57,94
911,682	58,48
912,078	58,77
912,474	58,16
912,87	57,56
913,266	58,19
913,662	58,1
914,058	58,04
914,453	58,2
914,849	58,23
915,244	59,1
915,639	58,33
916,034	58,43
916,43	58,37
916,825	58,23
917,22	57,48
917,614	57,88
918,009	57,95
918,404	58,44
918,798	58,24
919,193	58,25
919,587	57,99
919,982	58,54
920,376	58,25
920,77	58,41
921,164	58,11
921,558	58,55
921,952	58,09
922,346	57,79
922,74	58,55
923,133	58,71
923,527	57,45
923,92	57,88
924,314	57,74
924,707	58,31
925,1	57,32
925,493	58,23
925,886	58,51
926,279	57,82
926,672	57,66
927,065	58,44
927,457	58,22
927,85	57,97
928,243	58,69
928,635	57,98
929,027	57,92
929,42	58,3
929,812	57,8
930,204	57,78
930,596	58,59
930,988	57,89
931,379	57,17
931,771	57,92
932,163	57,93
932,554	57,86
932,946	57,74
933,337	57,47
933,729	57,61
934,12	58,17
934,511	57,54
934,902	58,3
935,293	58,04
935,684	58,57
936,075	57,83
936,465	59,15
936,856	58,14
937,246	58,84
937,637	58,59
938,027	58,6
938,417	57,78
938,808	57,86
939,198	58,6
939,588	58,13
939,978	58,37
940,368	58,43
940,757	57,51
941,147	57,81
941,537	57,92
941,926	58,54
942,315	58,15
942,705	57,94
943,094	58,38
943,483	59,22
943,872	58,27
944,261	57,28
944,65	57,66
945,039	57,76
945,428	58,02
945,816	57,64
946,205	57,82
946,593	58,62
946,982	57,53
947,37	58,92
947,758	59,39
948,146	58,18
948,534	57,13
948,922	58
949,31	57,68
949,698	57,41
950,086	58,05
950,473	57,4
950,861	57,76
951,248	57,42
951,636	57,39
952,023	56,59
952,41	56,46
952,797	56,9
953,184	57,38
953,571	57,86
953,958	57,45
954,345	57,61
954,731	57,53
955,118	56,86
955,505	56,61
955,891	57,57
956,277	56,9
956,664	57,71
957,05	56,86
957,436	57,17
957,822	55,56
958,208	57,11
958,594	56,59
958,979	56,47
959,365	57,63
959,751	57,16
960,136	57,49
960,522	57,44
960,907	57,36
961,292	57,2
961,677	56,71
962,062	56,64
962,447	56,98
962,832	56,34
963,217	57,46
963,602	56,5
963,986	56,79
964,371	56,99
964,756	55,95
965,14	56,3
965,524	56,78
965,908	56,93
966,293	56,48
966,677	56,49
967,061	57,19
967,445	56,75
967,828	56,87
968,212	57,32
968,596	56,66
968,979	56,81
969,363	56,91
969,746	56,91
970,129	56,67
970,513	57,25
970,896	56,47
971,279	56,65
971,662	56,53
972,045	56,29
972,428	56,11
972,81	56,93
973,193	56,36
973,575	56,86
973,958	56,23
974,34	56,71
974,723	56,4
975,105	56,23
975,487	57,14
975,869	56,45
976,251	56,68
976,633	57,7
977,015	56,63
977,396	56,84
977,778	55,86
978,16	58,07
978,541	56,75
978,922	56,4
979,304	57,33
979,685	55,6
980,066	56,9
980,447	56,12
980,828	56,86
981,209	56,95
981,59	57,16
981,97	55,97
982,351	56,81
982,732	56,52
983,112	57,06
983,493	57,27
983,873	56,57
984,253	57,61
984,633	56,61
985,013	57,44
985,393	57,48
985,773	56,46
986,153	57,38
986,533	56,27
986,912	56,29
987,292	57,34
987,671	56,22
988,051	56,77
988,43	56,94
988,809	57,9
989,188	56,18
989,567	56,8
989,946	56,51
990,325	56,66
990,704	56,46
991,083	57,27
991,461	57,22
991,84	56,92
992,218	55,81
992,597	56,55
992,975	56,36
993,353	57,15
993,732	56,99
994,11	57,21
994,488	57,13
994,866	57,92
995,243	57,73
995,621	57,85
995,999	57,81
996,376	57,5
996,754	55,34
997,131	57,57
997,509	56,99
997,886	57,08
998,263	56,39
998,64	57,74
999,017	57,67
999,394	56,53
999,771	57,71
1000,148	56,91
1000,524	57,38
1000,901	57,15
1001,277	58,11
1001,654	56,94
1002,03	57,85
1002,406	57,74
1002,783	57,35
1003,159	57,68
1003,535	56,53
1003,911	56,85
1004,286	56,78
1004,662	58,03
1005,038	58,18
1005,414	57,19
1005,789	57,04
1006,164	57,27
1006,54	57,46
1006,915	57,89
1007,29	57,38
1007,665	57,9
1008,04	58,48
1008,415	56,19
1008,79	56,97
1009,165	57,04
1009,54	57,25
1009,914	57,72
1010,289	57,54
1010,663	57,31
1011,038	57,59
1011,412	58,62
1011,786	56,87
1012,16	57,99
1012,535	57,64
1012,909	57,42
1013,282	57,62
1013,656	57,72
1014,03	57,73
1014,404	58,36
1014,777	56,93
1015,151	57,77
1015,524	56,98
1015,897	58,3
1016,271	57,07
1016,644	57,49
1017,017	58,27
1017,39	57,93
1017,763	58,75
1018,136	57,34
1018,508	58,36
1018,881	57,09
1019,254	58,21
1019,626	57,77
1019,999	57,83
1020,371	56,62
1020,743	58,15
1021,116	57,97
1021,488	58,64
1021,86	57,42
1022,232	58,22
1022,604	58,8
1022,975	57,73
1023,347	59,43
1023,719	58,16
1024,09	59,3
1024,462	58,52
1024,833	57,61
1025,204	59,14
1025,576	57,87
1025,947	58,37
1026,318	58,07
1026,689	58,6
1027,06	57,58
1027,431	58,28
1027,801	58,74
1028,172	58,45
1028,543	58,06
1028,913	57,47
1029,284	58,18
1029,654	58,97
1030,024	58
1030,394	59,01
1030,764	57,51
1031,135	58,88
1031,504	59,37
1031,874	58,42
1032,244	58,34
1032,614	59,14
1032,983	58,65
1033,353	58,7
1033,722	59,48
1034,092	58,01
1034,461	58
1034,83	58,9
1035,2	58,4
1035,569	58,58
1035,938	59,37
1036,307	59,42
1036,675	58,74
1037,044	58,29
1037,413	58,63
1037,781	57,44
1038,15	58,32
1038,518	58,08
1038,887	59,17
1039,255	58,38
1039,623	57,03
1039,991	57,91
1040,359	59,87
1040,727	59,23
1041,095	58,07
1041,463	58,95
1041,831	58,94
1042,198	57,1
1042,566	57,98
1042,933	60,21
1043,301	58,2
1043,668	59,82
1044,035	59,15
1044,402	59,52
1044,77	60,23
1045,137	58,44
1045,503	59,15
1045,87	58,26
1046,237	58,76
1046,604	60,95
1046,97	58,29
1047,337	59,25
1047,703	58,36
1048,07	59,57
1048,436	58,34
1048,802	58,56
1049,168	58,16
1049,534	59,63
1049,9	59,94
1050,266	59,63
1050,632	59,82
1050,998	61,29
1051,364	58,19
1051,729	59,35
1052,095	59,73
1052,46	58,47
1052,825	58,75
1053,191	59,13
1053,556	60,15
1053,921	59,8
1054,286	59,25
1054,651	59,91
1055,016	59,91
1055,381	60,29
1055,745	58,79
1056,11	58,69
1056,475	58,85
1056,839	59,76
1057,203	60,31
1057,568	59,4
1057,932	60,98
1058,296	62,08
1058,66	59,37
1059,024	60,36
1059,388	58,65
1059,752	59,47
1060,116	59,18
1060,48	59,52
1060,843	59,4
1061,207	57,55
1061,57	59,86
1061,934	61,13
1062,297	59,51
1062,66	58,97
1063,023	59,27
1063,386	59,59
1063,749	59,85
1064,112	60,4
1064,475	59,52
1064,838	60,42
1065,201	59,46
1065,563	60,17
1065,926	61,8
1066,288	60,8
1066,651	60,36
1067,013	57,59
1067,375	59,61
1067,737	59,38
1068,099	59,21
1068,461	60,81
1068,823	60,87
1069,185	58,65
1069,547	60,86
1069,909	59,48
1070,27	60,84
1070,632	61,29
1070,993	59,66
1071,355	62,73
1071,716	60,85
1072,077	61,54
1072,438	60,06
1072,799	59,8
1073,16	59,99
1073,521	61,16
1073,882	58,49
1074,243	59,53
1074,603	60,76
1074,964	59,28
1075,325	62,53
1075,685	61,49
1076,045	60,32
1076,406	62,22
1076,766	60,53
1077,126	60,84
1077,486	61,48
1077,846	59,32
1078,206	59,69
1078,566	61,14
1078,925	60,01
1079,285	59,64
1079,645	59,45
1080,004	61,3
1080,364	60,39
1080,723	60,75
1081,082	62,43
1081,442	60,39
1081,801	59,95
1082,16	62,68
1082,519	61,63
1082,878	59,1
1083,237	61,05
1083,595	60,44
1083,954	59,91
1084,313	60,46
1084,671	60
1085,03	60,75
1085,388	62,53
1085,746	62,65
1086,104	61,59
1086,463	62,61
1086,821	62,87
1087,179	61,93
1087,537	63,22
1087,894	60,19
1088,252	59,87
1088,61	62,89
1088,967	60,37
1089,325	61,17
1089,682	59,78
1090,04	61,79
1090,397	62
1090,754	62,61
1091,111	59,01
1091,469	60,5
1091,826	61,81
1092,182	60,67
1092,539	61,67
1092,896	61,89
1093,253	62,5
1093,609	60,95
1093,966	62,43
1094,322	61,01
1094,679	60,82
1095,035	62,45
1095,391	64,22
1095,748	63,72
1096,104	60,94
1096,46	62,5
1096,816	62,23
1097,171	63,75
1097,527	59,87
1097,883	63,58
1098,239	64,39
1098,594	63,7
1098,95	60,23
1099,305	63,58
1099,66	63,26
1100,016	64,77
1100,371	62,76
1100,726	65,27
1101,081	62,19
1101,436	61,71
1101,791	61,78
1102,146	64,47
1102,5	64,44
1102,855	61,97
1103,21	62,14
1103,564	61,51
1103,918	65,42
1104,273	63,82
1104,627	65,62
1104,981	64,64
1105,335	61,52
1105,69	61,48
1106,043	65,01
1106,397	63,4
1106,751	62,56
1107,105	61,43
1107,459	62,74
1107,812	64,72
1108,166	62,9
1108,519	67,26
1108,873	67,92
1109,226	63,4
1109,579	66,67
1109,932	60,72
1110,285	64,24
1110,638	62,58
1110,991	68
1111,344	66,36
1111,697	60,29
1112,05	65,97
1112,402	70,78
1112,755	66,93
1113,107	69,4
1113,46	68,25
1113,812	69,06
1114,164	68,54
1114,517	71,39
1114,869	95,36
1115,221	93,75
1115,573	93,43
1115,924	88,31
