Data from H1__Relative__2__00026.txt Node

Date: Fri Feb 02 12:35:59 CET 2024
User: diatiterra
Spectrometer: HDX00911
Trigger mode: 0
Integration Time (sec): 6,000000E-3
Scans to average: 2
Nonlinearity correction enabled: false
Boxcar width: 0
Storing dark spectrum: false
XAxis mode: Wavelengths
Number of Pixels in Spectrum: 2068
>>>>>Begin Spectral Data<<<<<
194,468	120,63
195,025	89,66
195,581	103,77
196,138	98,48
196,694	86,93
197,251	89,34
197,807	80,44
198,363	78,12
198,919	75
199,474	71,25
200,03	70,29
200,586	70,35
201,141	73,02
201,696	75,78
202,251	73,98
202,806	63,69
203,361	72,5
203,916	69,53
204,471	73,95
205,025	68,34
205,58	69,79
206,134	73,48
206,688	77,82
207,242	69,75
207,796	76,69
208,35	68,09
208,904	70,95
209,457	68,83
210,011	73,7
210,564	75,08
211,117	79
211,67	68,86
212,223	71,61
212,776	66,46
213,329	70,74
213,881	65,77
214,434	75,45
214,986	73,16
215,538	69,71
216,09	69,07
216,642	70,2
217,194	71,95
217,746	71,52
218,297	74,74
218,849	67,87
219,4	73,57
219,951	70,27
220,502	78,11
221,053	77,86
221,604	75,82
222,155	72,9
222,705	67,09
223,256	68,86
223,806	75,57
224,356	80,35
224,906	65,82
225,456	68,11
226,006	65,82
226,556	66,35
227,106	66,56
227,655	70,06
228,204	66,86
228,754	73,5
229,303	70,33
229,852	75,18
230,401	73,82
230,949	69,16
231,498	81,31
232,047	76,69
232,595	70,96
233,143	68,26
233,691	66,67
234,239	80,55
234,787	82,13
235,335	62,42
235,883	80,62
236,43	65,03
236,978	79,28
237,525	68,55
238,072	67,8
238,619	67,5
239,166	64,08
239,713	68,75
240,26	74,53
240,806	69,13
241,353	75,91
241,899	76,6
242,445	74,66
242,991	76,3
243,537	72,28
244,083	70,42
244,629	62,5
245,174	69,55
245,72	76,55
246,265	81,54
246,81	75,91
247,355	75,08
247,9	74,75
248,445	66,45
248,99	83,33
249,534	77,74
250,079	74,01
250,623	73,4
251,168	78,23
251,712	75,97
252,256	67,45
252,8	69,06
253,343	73,5
253,887	67,82
254,43	70,86
254,974	70,39
255,517	72,67
256,06	67,67
256,603	79,05
257,146	70,26
257,689	69,15
258,232	88,89
258,774	79,79
259,317	69,81
259,859	78,67
260,401	79,61
260,943	70,65
261,485	80,07
262,027	69,35
262,569	73,93
263,11	70,13
263,652	77,82
264,193	82,59
264,734	80,42
265,275	75,09
265,816	75
266,357	77,05
266,898	79,87
267,438	78,55
267,979	73,08
268,519	80,84
269,059	75,43
269,6	70,67
270,14	70,31
270,68	80,63
271,219	76,17
271,759	75,75
272,298	71,25
272,838	74,28
273,377	75,68
273,916	81,57
274,455	68,64
274,994	79,63
275,533	74,56
276,072	80,24
276,61	76,45
277,149	83,04
277,687	66,78
278,225	67,25
278,763	73,01
279,301	65,83
279,839	73,33
280,377	71,28
280,914	77,39
281,452	78,38
281,989	85,17
282,526	74,11
283,064	79,57
283,601	68,63
284,137	74,66
284,674	73,38
285,211	62,31
285,747	70,79
286,284	80,14
286,82	72,35
287,356	76,51
287,892	69,45
288,428	64,08
288,964	69,31
289,5	72,57
290,035	72,64
290,571	62,33
291,106	73,24
291,641	74,83
292,176	73,54
292,711	65,77
293,246	65,29
293,781	74,2
294,315	83,91
294,85	66,56
295,384	69,89
295,918	65,2
296,453	68,06
296,987	70
297,52	68,98
298,054	78,45
298,588	68,84
299,121	70,77
299,655	72,31
300,188	77,5
300,721	62,63
301,254	82,87
301,787	70,14
302,32	79,38
302,853	77,36
303,385	79,5
303,918	78,67
304,45	75,56
304,982	72,7
305,514	74,52
306,046	72,91
306,578	78,8
307,11	80,81
307,641	71,77
308,173	74,09
308,704	80,68
309,236	75,77
309,767	69,18
310,298	63,81
310,829	70,4
311,359	74,18
311,89	73,45
312,421	70,81
312,951	64,67
313,481	82,77
314,012	73,82
314,542	68,62
315,072	65,5
315,601	65,06
316,131	71,48
316,661	76,51
317,19	73,03
317,72	64,38
318,249	71,88
318,778	74,2
319,307	71,34
319,836	67,03
320,365	72,53
320,893	68,55
321,422	65,67
321,95	71,72
322,479	70,03
323,007	70,49
323,535	69,58
324,063	65,18
324,591	76,22
325,118	72,67
325,646	80,58
326,173	69,9
326,701	77,11
327,228	76,16
327,755	66,56
328,282	69,51
328,809	65,62
329,336	72,22
329,862	69,91
330,389	61,18
330,915	67,79
331,441	62,07
331,968	69,46
332,494	67,21
333,02	71,09
333,545	64,53
334,071	65,09
334,597	67,63
335,122	68,67
335,648	69,81
336,173	68,08
336,698	60,63
337,223	65,16
337,748	69,23
338,272	60,31
338,797	70,92
339,322	48,62
339,846	63,93
340,37	59,78
340,894	55,35
341,419	59,24
341,942	66,24
342,466	59,2
342,99	52,13
343,514	54,44
344,037	55,34
344,56	58,77
345,084	53,63
345,607	49,47
346,13	59,48
346,653	53,74
347,175	53,02
347,698	59,38
348,221	57,82
348,743	48,92
349,265	51,47
349,787	52,11
350,309	57,3
350,831	50
351,353	53,32
351,875	49,87
352,397	50,38
352,918	50,82
353,439	48,64
353,961	45,19
354,482	46,43
355,003	52,15
355,524	48,59
356,044	48,6
356,565	52,49
357,086	47,88
357,606	44,8
358,126	47,89
358,646	49,52
359,167	47,52
359,687	40,63
360,206	43,64
360,726	43,67
361,246	45,36
361,765	44,49
362,285	42,13
362,804	45,06
363,323	43,51
363,842	39,26
364,361	41,65
364,88	39,96
365,398	43,94
365,917	46,75
366,435	37,15
366,954	35,64
367,472	39,17
367,99	40
368,508	41,18
369,026	40,87
369,544	37,5
370,061	35,94
370,579	40,62
371,096	35,92
371,613	39,5
372,131	35,6
372,648	32,77
373,165	35,39
373,681	38,71
374,198	32,86
374,715	34,66
375,231	32,28
375,747	32,9
376,264	32,06
376,78	35,55
377,296	31,94
377,812	30,97
378,327	32,8
378,843	30,48
379,359	30,48
379,874	31,96
380,389	32,15
380,905	29,06
381,42	25,82
381,935	31
382,449	29,08
382,964	28,16
383,479	26,81
383,993	24,33
384,508	26,33
385,022	23,94
385,536	27,08
386,05	23,95
386,564	26,1
387,078	26,36
387,592	23,15
388,105	25,25
388,619	25,1
389,132	23,09
389,645	22,36
390,158	21,51
390,671	23,32
391,184	22,86
391,697	22,98
392,21	22,87
392,722	21,47
393,235	21,9
393,747	21,84
394,259	23,24
394,771	20,48
395,283	19,59
395,795	21,58
396,307	19,9
396,818	20,39
397,33	21,15
397,841	20,07
398,353	19,96
398,864	18,51
399,375	16,98
399,886	17,39
400,397	15,33
400,907	16,06
401,418	15,99
401,928	15,21
402,439	17,53
402,949	14,48
403,459	16,68
403,969	15,17
404,479	15,19
404,989	14,65
405,498	13,66
406,008	13,35
406,517	13,84
407,027	13,45
407,536	13,68
408,045	12,71
408,554	11,66
409,063	11,69
409,572	11,59
410,08	11,34
410,589	9,52
411,097	10,3
411,606	9,66
412,114	9,44
412,622	8,57
413,13	8,86
413,638	8,84
414,145	7,88
414,653	7,88
415,16	7,69
415,668	7,82
416,175	7,81
416,682	7,26
417,189	6,92
417,696	7,35
418,203	6,81
418,71	6,74
419,216	6,89
419,723	6,54
420,229	6,4
420,735	6,37
421,242	6,51
421,748	6,55
422,254	5,79
422,759	6,04
423,265	5,6
423,771	6,11
424,276	6,18
424,781	5,85
425,287	4,97
425,792	6,01
426,297	5,33
426,802	5,22
427,306	5,29
427,811	5,63
428,316	5,92
428,82	5,19
429,324	5,72
429,829	5,69
430,333	5,29
430,837	5,11
431,34	5,16
431,844	5,35
432,348	4,77
432,851	4,9
433,355	4,99
433,858	5
434,361	5,2
434,864	5,06
435,367	4,77
435,87	5,21
436,373	5,15
436,876	4,83
437,378	4,8
437,88	4,81
438,383	4,98
438,885	4,81
439,387	4,97
439,889	4,81
440,391	4,81
440,892	4,43
441,394	4,44
441,896	4,83
442,397	4,81
442,898	4,66
443,399	4,6
443,9	4,85
444,401	4,64
444,902	4,59
445,403	4,62
445,903	4,65
446,404	4,79
446,904	4,41
447,405	4,72
447,905	4,8
448,405	5
448,905	4,83
449,404	5,03
449,904	4,68
450,404	4,65
450,903	4,69
451,403	4,86
451,902	4,96
452,401	5,11
452,9	4,6
453,399	5,1
453,898	4,95
454,396	4,99
454,895	5,15
455,393	5,07
455,892	5,12
456,39	5,19
456,888	5,24
457,386	5,07
457,884	5,11
458,382	5,22
458,879	5,13
459,377	5,03
459,874	5,09
460,372	5,13
460,869	4,86
461,366	5,09
461,863	5,06
462,36	5,06
462,857	5,07
463,353	5,22
463,85	5,35
464,346	5,16
464,843	5,14
465,339	5,31
465,835	4,87
466,331	5,04
466,827	5,24
467,323	5,18
467,818	4,88
468,314	5,05
468,809	4,8
469,305	5,05
469,8	4,84
470,295	4,94
470,79	5,01
471,285	5,11
471,78	4,77
472,274	5,1
472,769	5,03
473,263	4,85
473,758	5,05
474,252	5
474,746	4,86
475,24	4,92
475,734	4,92
476,228	4,85
476,721	5,15
477,215	4,63
477,708	4,96
478,202	4,85
478,695	5,02
479,188	5,15
479,681	5,01
480,174	4,92
480,667	4,97
481,159	5,19
481,652	5,23
482,144	5,09
482,637	5,16
483,129	5,22
483,621	5,15
484,113	5,18
484,605	5,17
485,097	5,28
485,588	5,32
486,08	5,24
486,571	5,2
487,063	5,28
487,554	4,97
488,045	5,18
488,536	5,38
489,027	5,35
489,518	5,29
490,008	5,5
490,499	5,2
490,989	5,36
491,48	5,61
491,97	5,5
492,46	5,71
492,95	5,65
493,44	5,72
493,93	5,73
494,419	5,68
494,909	5,62
495,398	5,74
495,888	5,91
496,377	5,87
496,866	5,96
497,355	6,11
497,844	6,1
498,333	6,18
498,821	6,4
499,31	6,29
499,798	6,33
500,287	6,49
500,775	6,49
501,263	6,51
501,751	6,57
502,239	6,72
502,727	7,05
503,215	6,73
503,702	7,18
504,19	7,28
504,677	7,36
505,164	7,43
505,651	7,65
506,139	7,75
506,625	7,82
507,112	8,09
507,599	8,21
508,086	8,29
508,572	8,37
509,058	8,64
509,545	8,73
510,031	9,2
510,517	8,98
511,003	9,32
511,489	9,58
511,974	10,11
512,46	10,19
512,946	10,29
513,431	10,53
513,916	10,65
514,401	10,84
514,887	11,31
515,371	11,23
515,856	11,78
516,341	11,81
516,826	12,04
517,31	12,43
517,795	12,53
518,279	12,96
518,763	13,1
519,247	13,44
519,731	13,69
520,215	13,85
520,699	14,39
521,182	14,68
521,666	14,88
522,149	15,05
522,633	15,59
523,116	15,86
523,599	16,18
524,082	16,71
524,565	16,72
525,048	16,94
525,53	17,08
526,013	17,36
526,495	18,2
526,978	18,09
527,46	18,19
527,942	18,54
528,424	18,82
528,906	18,95
529,388	19,24
529,87	19,51
530,351	19,87
530,833	19,83
531,314	20,17
531,795	20,47
532,277	20,83
532,758	20,77
533,238	21,05
533,719	20,88
534,2	21,2
534,681	21,16
535,161	21,46
535,642	21,48
536,122	21,65
536,602	21,73
537,082	22,11
537,562	21,98
538,042	22,14
538,522	22,29
539,001	22,29
539,481	22,22
539,96	22,28
540,44	22,46
540,919	22,62
541,398	22,56
541,877	22,68
542,356	22,73
542,835	22,59
543,313	22,92
543,792	22,97
544,27	22,87
544,749	22,85
545,227	23,04
545,705	22,97
546,183	22,92
546,661	23,19
547,139	23,02
547,616	23,46
548,094	23,3
548,571	23,17
549,049	23,3
549,526	23,63
550,003	23,34
550,48	23,74
550,957	23,69
551,434	23,47
551,911	23,31
552,387	23,61
552,864	23,53
553,34	23,57
553,817	23,59
554,293	23,7
554,769	23,78
555,245	23,79
555,721	23,75
556,197	23,2
556,672	23,42
557,148	23,74
557,623	23,44
558,099	23,65
558,574	23,42
559,049	23,28
559,524	23,28
559,999	23,19
560,474	23,49
560,948	23,11
561,423	23,04
561,897	22,9
562,372	22,77
562,846	22,92
563,32	22,43
563,794	22,49
564,268	22,04
564,742	22,12
565,216	21,79
565,69	21,7
566,163	21,76
566,636	21,59
567,11	21,13
567,583	21,08
568,056	20,99
568,529	20,96
569,002	20,71
569,475	20,5
569,947	20,55
570,42	20,31
570,892	20,23
571,365	19,94
571,837	19,62
572,309	19,51
572,781	19,61
573,253	18,97
573,725	18,85
574,197	18,91
574,668	18,67
575,14	18,59
575,611	18,18
576,082	18,23
576,554	17,92
577,025	17,97
577,496	17,42
577,967	17,57
578,437	17,58
578,908	17,34
579,379	16,94
579,849	17,13
580,319	17,11
580,79	16,79
581,26	16,7
581,73	16,63
582,2	16,51
582,669	16,5
583,139	16,54
583,609	16,18
584,078	16,12
584,548	15,98
585,017	15,85
585,486	15,72
585,955	15,57
586,424	15,61
586,893	15,56
587,362	15,4
587,83	15,12
588,299	15,32
588,767	15,24
589,236	15,15
589,704	15,18
590,172	14,97
590,64	14,99
591,108	14,8
591,576	14,83
592,043	14,76
592,511	14,55
592,978	14,47
593,446	14,38
593,913	14,62
594,38	14,45
594,847	14,46
595,314	14,53
595,781	14,45
596,248	14,35
596,715	14,26
597,181	14,29
597,647	14,35
598,114	14,14
598,58	14,09
599,046	14,23
599,512	13,95
599,978	14,06
600,444	14,17
600,91	14,03
601,375	13,95
601,841	14,05
602,306	14,04
602,771	13,86
603,236	13,95
603,702	13,71
604,167	13,64
604,631	13,86
605,096	13,7
605,561	13,52
606,025	13,53
606,49	13,5
606,954	13,37
607,418	13,29
607,882	13,3
608,347	12,97
608,81	12,94
609,274	13,04
609,738	13,07
610,202	12,74
610,665	12,75
611,128	12,65
611,592	12,67
612,055	12,45
612,518	12,42
612,981	12,32
613,444	12,32
613,907	12,28
614,369	11,97
614,832	12,1
615,294	11,85
615,757	11,77
616,219	11,81
616,681	11,78
617,143	11,78
617,605	11,63
618,067	11,5
618,529	11,56
618,99	11,46
619,452	11,3
619,913	11,41
620,375	11,21
620,836	11,22
621,297	11,03
621,758	11,09
622,219	10,91
622,68	10,98
623,14	11,07
623,601	10,87
624,061	10,97
624,522	10,9
624,982	10,95
625,442	10,73
625,902	10,81
626,362	10,94
626,822	10,63
627,282	10,79
627,742	10,82
628,201	10,58
628,661	10,6
629,12	10,7
629,579	10,7
630,038	10,61
630,497	10,53
630,956	10,57
631,415	10,6
631,874	10,49
632,332	10,62
632,791	10,37
633,249	10,44
633,708	10,39
634,166	10,35
634,624	10,39
635,082	10,26
635,54	10,21
635,998	10,21
636,455	9,99
636,913	9,99
637,37	9,93
637,828	9,82
638,285	9,71
638,742	9,68
639,199	9,59
639,656	9,44
640,113	9,43
640,57	9,21
641,027	9,09
641,483	9,13
641,94	9,01
642,396	8,9
642,852	8,71
643,309	8,66
643,765	8,51
644,221	8,54
644,676	8,36
645,132	8,23
645,588	8,15
646,043	8,16
646,499	7,93
646,954	7,87
647,409	7,77
647,864	7,74
648,319	7,58
648,774	7,62
649,229	7,45
649,684	7,4
650,139	7,32
650,593	7,36
651,047	7,31
651,502	7,26
651,956	7,17
652,41	7,01
652,864	7
653,318	7,03
653,772	7,07
654,225	6,97
654,679	7,07
655,133	6,95
655,586	6,9
656,039	6,9
656,492	6,86
656,946	6,78
657,399	6,74
657,851	6,78
658,304	6,62
658,757	6,56
659,209	6,45
659,662	6,38
660,114	6,42
660,567	6,23
661,019	6,22
661,471	6,16
661,923	6,06
662,375	6,08
662,826	6
663,278	5,86
663,73	5,78
664,181	5,74
664,632	5,81
665,084	5,7
665,535	5,7
665,986	5,66
666,437	5,63
666,888	5,53
667,338	5,37
667,789	5,42
668,24	5,55
668,69	5,48
669,14	5,45
669,591	5,47
670,041	5,5
670,491	5,45
670,941	5,49
671,391	5,51
671,84	5,5
672,29	5,55
672,74	5,59
673,189	5,49
673,638	5,56
674,088	5,65
674,537	5,7
674,986	5,67
675,435	5,74
675,883	5,89
676,332	5,87
676,781	6,02
677,229	5,96
677,678	6,12
678,126	6,14
678,574	6,24
679,022	6,37
679,47	6,45
679,918	6,49
680,366	6,57
680,814	6,69
681,261	6,8
681,709	6,83
682,156	6,98
682,604	7,01
683,051	7,17
683,498	7,28
683,945	7,42
684,392	7,38
684,839	7,58
685,286	7,76
685,732	7,91
686,179	8,07
686,625	8,05
687,071	8,28
687,518	8,48
687,964	8,6
688,41	8,82
688,856	9,1
689,301	9,34
689,747	9,55
690,193	9,9
690,638	10,06
691,084	10,42
691,529	10,79
691,974	11,06
692,419	11,5
692,864	11,82
693,309	12,47
693,754	12,81
694,199	13,29
694,643	13,68
695,088	14,24
695,532	14,71
695,977	15,37
696,421	15,78
696,865	16,36
697,309	16,99
697,753	17,56
698,197	18,17
698,64	18,74
699,084	19,33
699,527	19,89
699,971	20,71
700,414	21,16
700,857	21,89
701,3	22,66
701,743	23,34
702,186	23,93
702,629	24,7
703,072	25,47
703,515	26,06
703,957	26,79
704,399	27,37
704,842	28,05
705,284	28,83
705,726	29,58
706,168	30,18
706,61	30,55
707,052	31,33
707,494	32,15
707,935	32,91
708,377	33,63
708,818	34,41
709,26	34,92
709,701	35,74
710,142	36,38
710,583	37,17
711,024	37,79
711,465	38,61
711,905	39,35
712,346	39,94
712,787	40,74
713,227	41,34
713,667	41,95
714,108	42,89
714,548	43,38
714,988	44,38
715,428	45,05
715,868	45,8
716,307	46,17
716,747	46,97
717,186	47,65
717,626	48,37
718,065	49,09
718,504	49,86
718,944	50,45
719,383	51,03
719,822	51,88
720,261	52,56
720,699	53
721,138	53,79
721,576	54,23
722,015	54,89
722,453	55,57
722,892	56,08
723,33	56,53
723,768	57,12
724,206	57,81
724,644	58,5
725,081	59,33
725,519	59,34
725,957	59,86
726,394	60,59
726,832	61,12
727,269	61,58
727,706	62,05
728,143	62,52
728,58	63,24
729,017	63,42
729,454	63,76
729,89	64,58
730,327	64,89
730,764	65,17
731,2	65,6
731,636	66,19
732,072	66,46
732,509	66,68
732,945	67,09
733,38	67,45
733,816	67,6
734,252	68,2
734,688	68,14
735,123	68,53
735,559	69,15
735,994	69,54
736,429	69,57
736,864	69,53
737,299	70,06
737,734	70,58
738,169	70,3
738,604	70,63
739,038	71,24
739,473	71,13
739,907	71,3
740,342	71,64
740,776	71,66
741,21	71,57
741,644	71,69
742,078	72,25
742,512	72,24
742,946	72,48
743,379	73,01
743,813	72,95
744,246	72,85
744,68	73,2
745,113	73,02
745,546	73,04
745,979	73,55
746,412	73,14
746,845	73,94
747,278	73,36
747,711	73,54
748,143	73,47
748,576	73,74
749,008	73,82
749,441	73,72
749,873	73,92
750,305	73,84
750,737	73,92
751,169	74,2
751,601	74,04
752,032	74,16
752,464	74,1
752,896	74,32
753,327	74
753,758	74,23
754,19	74,56
754,621	74,46
755,052	74,36
755,483	74,2
755,914	73,94
756,344	74,39
756,775	74,57
757,206	74,2
757,636	74,33
758,066	74,36
758,497	74,08
758,927	74,64
759,357	74,9
759,787	74,32
760,217	74,44
760,647	74,37
761,076	74,64
761,506	74,22
761,935	74
762,365	74,4
762,794	74,56
763,223	74,32
763,653	74,51
764,082	74,63
764,51	74,21
764,939	74,24
765,368	74,52
765,797	74,55
766,225	74,39
766,654	74
767,082	74,58
767,51	74,13
767,938	74,25
768,367	74,39
768,795	74,45
769,222	74,19
769,65	74,44
770,078	74,42
770,505	73,9
770,933	74,31
771,36	74,09
771,788	74,61
772,215	74,15
772,642	74,55
773,069	73,98
773,496	74,41
773,923	74,15
774,349	74,56
774,776	74,35
775,203	73,96
775,629	74,14
776,055	74,3
776,482	74,64
776,908	73,84
777,334	74,3
777,76	74,54
778,186	74,06
778,611	74,32
779,037	74,65
779,463	73,83
779,888	73,84
780,314	74,21
780,739	73,95
781,164	74,18
781,589	73,92
782,014	74,19
782,439	74,1
782,864	73,98
783,289	73,96
783,713	74,26
784,138	74,25
784,562	74,24
784,987	74,17
785,411	74,06
785,835	74,23
786,259	73,87
786,683	74,09
787,107	74,14
787,531	74,06
787,954	74,07
788,378	74,3
788,802	74,3
789,225	73,81
789,648	73,76
790,071	74,09
790,495	74,37
790,918	74,42
791,34	74,49
791,763	74,02
792,186	74,46
792,609	74,39
793,031	74,15
793,454	74,11
793,876	73,85
794,298	74,25
794,721	74,46
795,143	73,97
795,565	73,87
795,986	74,01
796,408	73,98
796,83	73,87
797,252	73,87
797,673	74,12
798,094	74,34
798,516	73,75
798,937	74,13
799,358	74,05
799,779	73,94
800,2	73,78
800,621	74,33
801,042	73,98
801,462	73,83
801,883	74,09
802,303	73,88
802,724	73,84
803,144	74,2
803,564	73,84
803,984	74,39
804,404	74,21
804,824	74,55
805,244	74,19
805,664	74,01
806,084	74,4
806,503	74,16
806,923	74,06
807,342	74,28
807,761	73,94
808,18	74,57
808,599	74,08
809,018	74,02
809,437	74,38
809,856	74,26
810,275	73,84
810,693	74,28
811,112	74,11
811,53	74,57
811,949	74,07
812,367	73,92
812,785	74,06
813,203	74,23
813,621	74,17
814,039	74,4
814,457	74,54
814,874	74,07
815,292	74,42
815,709	73,9
816,127	73,99
816,544	74,34
816,961	73,86
817,378	73,92
817,795	73,72
818,212	74,08
818,629	74,14
819,046	74,04
819,462	73,99
819,879	74,11
820,295	73,82
820,712	74,52
821,128	73,91
821,544	73,97
821,96	73,76
822,376	74,63
822,792	73,97
823,208	73,97
823,624	74,35
824,039	74,03
824,455	74,12
824,87	74,26
825,286	74,11
825,701	74,06
826,116	73,85
826,531	74,4
826,946	73,81
827,361	74,18
827,776	74,07
828,19	74,17
828,605	74,15
829,02	74
829,434	74,24
829,848	74,44
830,263	74,33
830,677	74,01
831,091	73,82
831,505	74,12
831,919	74,06
832,332	74,1
832,746	74,08
833,16	73,88
833,573	73,8
833,987	74,1
834,4	74,2
834,813	73,96
835,226	74,14
835,639	74,16
836,052	74,33
836,465	74,53
836,878	73,84
837,29	74,01
837,703	73,97
838,116	74,24
838,528	74,3
838,94	73,94
839,352	74,23
839,765	73,96
840,177	74,34
840,589	73,99
841	73,98
841,412	74,4
841,824	73,72
842,235	74,26
842,647	73,71
843,058	74,28
843,47	73,97
843,881	74,14
844,292	74,15
844,703	73,97
845,114	73,62
845,525	74,05
845,935	74,38
846,346	74,78
846,757	74,65
847,167	74,4
847,577	74,39
847,988	73,93
848,398	74,22
848,808	73,93
849,218	74,32
849,628	73,64
850,038	73,76
850,448	73,95
850,857	74,16
851,267	74,07
851,676	74,48
852,086	74,12
852,495	73,98
852,904	74,05
853,313	74,17
853,722	74,47
854,131	74,53
854,54	73,91
854,949	74
855,357	74,05
855,766	74,01
856,174	74,27
856,583	74,07
856,991	74,37
857,399	73,84
857,807	73,88
858,215	74,09
858,623	74,06
859,031	74,52
859,439	74,05
859,846	73,97
860,254	73,98
860,661	74,06
861,069	73,99
861,476	73,96
861,883	74,47
862,29	74,11
862,697	74,09
863,104	74,17
863,511	73,72
863,918	74,19
864,325	74,03
864,731	74
865,138	74,23
865,544	74,23
865,95	74,6
866,357	73,77
866,763	74,39
867,169	74,09
867,575	73,9
867,98	74,18
868,386	74,32
868,792	73,99
869,197	74,3
869,603	73,98
870,008	74,05
870,414	73,9
870,819	73,91
871,224	74,74
871,629	74,08
872,034	74,33
872,439	74,09
872,844	74,26
873,248	74,61
873,653	74,15
874,057	74,3
874,462	74,08
874,866	74,35
875,27	74,21
875,674	73,95
876,078	74,45
876,482	74,45
876,886	74,43
877,29	74,39
877,694	74,04
878,097	73,82
878,501	74,65
878,904	73,96
879,308	74
879,711	74,17
880,114	74,27
880,517	73,92
880,92	74,14
881,323	74,18
881,726	74,25
882,128	74,19
882,531	74,43
882,934	74,26
883,336	74,03
883,738	73,97
884,141	74,49
884,543	74,26
884,945	73,83
885,347	74,34
885,749	74,21
886,151	74,21
886,552	74,34
886,954	73,97
887,355	74,2
887,757	73,9
888,158	73,97
888,56	74,59
888,961	73,98
889,362	74,19
889,763	74,48
890,164	74,13
890,565	73,8
890,965	74,22
891,366	73,88
891,767	74,16
892,167	73,6
892,567	74,26
892,968	74,32
893,368	74,75
893,768	73,81
894,168	73,96
894,568	74,03
894,968	74,51
895,368	74,24
895,767	74,37
896,167	74,17
896,566	73,5
896,966	74,25
897,365	74,03
897,764	74,54
898,164	74,41
898,563	74,63
898,962	74,42
899,361	74,07
899,759	74,18
900,158	74,35
900,557	74,25
900,955	74,12
901,354	74,47
901,752	73,65
902,15	74,18
902,548	74,57
902,947	74,03
903,345	74,16
903,742	74,32
904,14	74,46
904,538	74,3
904,936	74,18
905,333	74,25
905,731	73,94
906,128	74,83
906,525	73,87
906,923	73,96
907,32	74,08
907,717	74,19
908,114	74,47
908,511	74,12
908,907	74,4
909,304	74,42
909,701	74,23
910,097	74,44
910,494	74,15
910,89	74,28
911,286	74
911,682	74,31
912,078	74,04
912,474	73,78
912,87	74
913,266	74,29
913,662	74,5
914,058	74,23
914,453	73,94
914,849	74,39
915,244	74,14
915,639	74,48
916,034	74
916,43	73,98
916,825	73,45
917,22	74,28
917,614	74,22
918,009	74,48
918,404	74,14
918,798	74,61
919,193	74,28
919,587	74,39
919,982	74,62
920,376	74,27
920,77	74,28
921,164	74,58
921,558	74,09
921,952	73,8
922,346	74,5
922,74	74,32
923,133	74,12
923,527	74
923,92	73,94
924,314	73,91
924,707	74,12
925,1	74,05
925,493	74,33
925,886	73,69
926,279	74,36
926,672	73,92
927,065	73,88
927,457	73,66
927,85	73,84
928,243	74,01
928,635	74,34
929,027	73,94
929,42	74,28
929,812	74,07
930,204	73,48
930,596	73,77
930,988	74,29
931,379	74,32
931,771	74,14
932,163	74,07
932,554	73,75
932,946	73,89
933,337	74,46
933,729	74,15
934,12	73,3
934,511	73,8
934,902	73,33
935,293	74,2
935,684	73,73
936,075	73,78
936,465	74,17
936,856	73,44
937,246	74,11
937,637	73,6
938,027	74,1
938,417	74,29
938,808	73,33
939,198	74,1
939,588	73,27
939,978	73,76
940,368	73,03
940,757	73,59
941,147	73,83
941,537	74,28
941,926	74,18
942,315	73,35
942,705	74,84
943,094	72,98
943,483	74,46
943,872	73,12
944,261	72,96
944,65	73,47
945,039	73,09
945,428	72,48
945,816	73,47
946,205	74,18
946,593	73,34
946,982	73,5
947,37	73,23
947,758	73,52
948,146	73,95
948,534	72,31
948,922	73,58
949,31	73,16
949,698	72,97
950,086	73,12
950,473	73,66
950,861	73,27
951,248	72,86
951,636	73,09
952,023	73,53
952,41	73,26
952,797	72,75
953,184	73,55
953,571	73,36
953,958	72,56
954,345	73,03
954,731	72,98
955,118	73,51
955,505	72,51
955,891	72,67
956,277	73,41
956,664	72,04
957,05	72,5
957,436	72,05
957,822	71,97
958,208	72,57
958,594	72,31
958,979	72,92
959,365	71,77
959,751	73,15
960,136	72,97
960,522	72,41
960,907	72,41
961,292	72,73
961,677	71,84
962,062	72,3
962,447	72,6
962,832	72,62
963,217	73,61
963,602	72,47
963,986	72,05
964,371	72,48
964,756	71,97
965,14	72,54
965,524	72,34
965,908	72,19
966,293	73,2
966,677	72,92
967,061	72,64
967,445	72,27
967,828	73,24
968,212	72,46
968,596	72,67
968,979	72,26
969,363	72,77
969,746	72,19
970,129	72,74
970,513	71,79
970,896	71,91
971,279	72,39
971,662	72,53
972,045	72,05
972,428	72,33
972,81	72,98
973,193	72,28
973,575	72,94
973,958	72,36
974,34	72,91
974,723	72,23
975,105	72,63
975,487	72,39
975,869	71,58
976,251	72,16
976,633	72,77
977,015	72,69
977,396	72,75
977,778	72,53
978,16	72,16
978,541	72,15
978,922	72,34
979,304	72,62
979,685	72,69
980,066	72,17
980,447	73
980,828	71,96
981,209	72,04
981,59	73,08
981,97	72,73
982,351	71,7
982,732	72,41
983,112	72,45
983,493	71,76
983,873	72,44
984,253	72,7
984,633	72,23
985,013	72,6
985,393	72,6
985,773	72,43
986,153	72,46
986,533	73,2
986,912	71,93
987,292	72,08
987,671	72,82
988,051	72,26
988,43	72,29
988,809	72,82
989,188	72,31
989,567	72,67
989,946	72,91
990,325	72,57
990,704	72,28
991,083	72,88
991,461	72,41
991,84	72,87
992,218	72,7
992,597	72,41
992,975	72,67
993,353	73,23
993,732	72,35
994,11	72,91
994,488	72,71
994,866	72,67
995,243	72,04
995,621	72,04
995,999	72,55
996,376	72,9
996,754	72,81
997,131	72,85
997,509	72,83
997,886	72,32
998,263	72,42
998,64	73,33
999,017	73,19
999,394	73,22
999,771	72,35
1000,148	73,22
1000,524	72,75
1000,901	72,36
1001,277	73,06
1001,654	73,37
1002,03	72,72
1002,406	73,53
1002,783	72,73
1003,159	72,82
1003,535	73,3
1003,911	73,43
1004,286	73,64
1004,662	73,08
1005,038	73,66
1005,414	73,47
1005,789	72,78
1006,164	73,98
1006,54	73,22
1006,915	73,63
1007,29	74,24
1007,665	73,48
1008,04	73,68
1008,415	73,4
1008,79	72,62
1009,165	73,02
1009,54	73,89
1009,914	73,55
1010,289	73,27
1010,663	73,77
1011,038	73,89
1011,412	73,65
1011,786	73,1
1012,16	73,49
1012,535	72,41
1012,909	73,6
1013,282	73,89
1013,656	73,96
1014,03	73,08
1014,404	73,72
1014,777	72,99
1015,151	74,16
1015,524	73,23
1015,897	72,89
1016,271	73,97
1016,644	73,94
1017,017	73,44
1017,39	72,88
1017,763	73,35
1018,136	72,86
1018,508	73,35
1018,881	73,06
1019,254	72,95
1019,626	73,24
1019,999	73,18
1020,371	73,59
1020,743	74,21
1021,116	73,48
1021,488	72,93
1021,86	74,2
1022,232	73,77
1022,604	72,93
1022,975	74,02
1023,347	73,3
1023,719	73,18
1024,09	74,54
1024,462	74,08
1024,833	73,37
1025,204	73,68
1025,576	74,27
1025,947	73,47
1026,318	74,13
1026,689	74,07
1027,06	73,47
1027,431	74
1027,801	73,96
1028,172	74,23
1028,543	73,62
1028,913	74,65
1029,284	74,03
1029,654	73,36
1030,024	74,99
1030,394	73,05
1030,764	73,94
1031,135	73,7
1031,504	73,36
1031,874	74,1
1032,244	74,34
1032,614	74,26
1032,983	72,85
1033,353	73,75
1033,722	74,37
1034,092	74,19
1034,461	74,09
1034,83	73,84
1035,2	74,83
1035,569	75,17
1035,938	74,94
1036,307	74,79
1036,675	73,72
1037,044	73,84
1037,413	74,35
1037,781	74,47
1038,15	74,48
1038,518	73,33
1038,887	73,99
1039,255	74,59
1039,623	74,29
1039,991	74,05
1040,359	74,3
1040,727	73,96
1041,095	74,89
1041,463	74,13
1041,831	74,86
1042,198	74,51
1042,566	75,05
1042,933	74,23
1043,301	74,05
1043,668	73,48
1044,035	73,12
1044,402	74,33
1044,77	73,72
1045,137	76,09
1045,503	75,09
1045,87	74,53
1046,237	73,54
1046,604	74,71
1046,97	74,58
1047,337	74,53
1047,703	74,12
1048,07	74,52
1048,436	74,81
1048,802	75,35
1049,168	76,99
1049,534	75,53
1049,9	74
1050,266	75,9
1050,632	74,9
1050,998	75,43
1051,364	74,44
1051,729	75,99
1052,095	75,35
1052,46	74,71
1052,825	74,83
1053,191	74,54
1053,556	74,21
1053,921	75,16
1054,286	73,77
1054,651	75,43
1055,016	73,78
1055,381	74,75
1055,745	75,9
1056,11	75,3
1056,475	75,55
1056,839	74,45
1057,203	75,42
1057,568	76,11
1057,932	75,9
1058,296	74,83
1058,66	75,51
1059,024	74,94
1059,388	74,9
1059,752	75,01
1060,116	76,37
1060,48	75,52
1060,843	74,95
1061,207	75,75
1061,57	76,26
1061,934	76,26
1062,297	74,21
1062,66	74,09
1063,023	74,46
1063,386	75,71
1063,749	76,44
1064,112	76,12
1064,475	76,47
1064,838	75,15
1065,201	75,95
1065,563	74,84
1065,926	76,03
1066,288	75,63
1066,651	73,94
1067,013	76
1067,375	74,86
1067,737	76,34
1068,099	74,54
1068,461	73,28
1068,823	76,4
1069,185	74,14
1069,547	72,76
1069,909	75,16
1070,27	74,13
1070,632	75,91
1070,993	75,23
1071,355	73,86
1071,716	76,65
1072,077	73,39
1072,438	76,66
1072,799	75,18
1073,16	75,39
1073,521	74,16
1073,882	76,21
1074,243	76,1
1074,603	74,38
1074,964	77,25
1075,325	77,21
1075,685	76,16
1076,045	76,6
1076,406	74,35
1076,766	74,75
1077,126	75,11
1077,486	74,4
1077,846	75,68
1078,206	76,4
1078,566	73
1078,925	75,67
1079,285	77,43
1079,645	75,61
1080,004	75,29
1080,364	74,93
1080,723	75,63
1081,082	75,93
1081,442	74,59
1081,801	75,42
1082,16	75,13
1082,519	74,86
1082,878	75,28
1083,237	75,62
1083,595	73,6
1083,954	75,59
1084,313	74,46
1084,671	75,48
1085,03	72,32
1085,388	75,15
1085,746	75,86
1086,104	75,32
1086,463	74,71
1086,821	75,3
1087,179	73,97
1087,537	78,65
1087,894	76,64
1088,252	74,96
1088,61	74,91
1088,967	74,58
1089,325	74,88
1089,682	76,12
1090,04	76,52
1090,397	76,83
1090,754	76,52
1091,111	76,37
1091,469	76,93
1091,826	73,22
1092,182	75,81
1092,539	76,85
1092,896	77,8
1093,253	75,33
1093,609	74,85
1093,966	73,23
1094,322	78,38
1094,679	73,02
1095,035	77,74
1095,391	77,12
1095,748	75,05
1096,104	75,38
1096,46	76,58
1096,816	73,6
1097,171	75,83
1097,527	76,14
1097,883	74,68
1098,239	75,97
1098,594	76,13
1098,95	73,82
1099,305	75,18
1099,66	76,7
1100,016	73,99
1100,371	73,37
1100,726	74,47
1101,081	75,31
1101,436	76,6
1101,791	74,35
1102,146	78,08
1102,5	75,41
1102,855	75,2
1103,21	75,57
1103,564	76,49
1103,918	76,55
1104,273	76,32
1104,627	75,74
1104,981	74,46
1105,335	75,78
1105,69	77,86
1106,043	80,45
1106,397	77,85
1106,751	77,51
1107,105	76,34
1107,459	77,14
1107,812	77,05
1108,166	75,99
1108,519	73,75
1108,873	73,8
1109,226	76,68
1109,579	76,7
1109,932	75,77
1110,285	78,93
1110,638	74,19
1110,991	77,25
1111,344	74,69
1111,697	75,29
1112,05	75,96
1112,402	77,83
1112,755	76,69
1113,107	77,42
1113,46	77,59
1113,812	76,54
1114,164	73,76
1114,517	75,7
1114,869	94,39
1115,221	105,26
1115,573	102,88
1115,924	100
