Data from I4__Relative__0__00033.txt Node

Date: Fri Feb 02 12:36:48 CET 2024
User: diatiterra
Spectrometer: HDX00911
Trigger mode: 0
Integration Time (sec): 6,000000E-3
Scans to average: 2
Nonlinearity correction enabled: false
Boxcar width: 0
Storing dark spectrum: false
XAxis mode: Wavelengths
Number of Pixels in Spectrum: 2068
>>>>>Begin Spectral Data<<<<<
194,468	95,24
195,025	69,66
195,581	95,28
196,138	85,61
196,694	78,89
197,251	82,38
197,807	77,12
198,363	60
198,919	58,86
199,474	64,54
200,03	65,18
200,586	62,15
201,141	65,4
201,696	68,01
202,251	69,91
202,806	63,98
203,361	69,06
203,916	62,43
204,471	71,38
205,025	60,06
205,58	61,03
206,134	64,33
206,688	68,94
207,242	54,94
207,796	60,14
208,35	55,02
208,904	64,53
209,457	60,71
210,011	60,71
210,564	71,52
211,117	57,99
211,67	69,16
212,223	61,61
212,776	64,26
213,329	68,17
213,881	70,13
214,434	61,98
214,986	69,97
215,538	68,4
216,09	68,38
216,642	59,93
217,194	64,33
217,746	62,91
218,297	72,7
218,849	63,93
219,4	70,71
219,951	65,17
220,502	68,01
221,053	75
221,604	72,53
222,155	65,81
222,705	68,35
223,256	74,74
223,806	68,08
224,356	74,39
224,906	62,34
225,456	64,45
226,006	60,76
226,556	70,19
227,106	62,85
227,655	66,67
228,204	56,8
228,754	62,78
229,303	64,33
229,852	78,06
230,401	71,29
230,949	64,17
231,498	69,9
232,047	75,68
232,595	68,98
233,143	59,58
233,691	70,83
234,239	68,39
234,787	73,88
235,335	58,5
235,883	68,17
236,43	73,2
236,978	73,03
237,525	66,67
238,072	61,61
238,619	68,12
239,166	65,05
239,713	67,36
240,26	68,63
240,806	63,99
241,353	71,95
241,899	60,58
242,445	62,67
242,991	70,13
243,537	72,63
244,083	62,06
244,629	58,13
245,174	68,27
245,72	67,1
246,265	73,83
246,81	65,68
247,355	65,66
247,9	63,28
248,445	65,16
248,99	72,55
249,534	73,29
250,079	69,41
250,623	68,35
251,168	73,81
251,712	56,17
252,256	66,44
252,8	65,62
253,343	73,19
253,887	64,98
254,43	63,25
254,974	68,09
255,517	65
256,06	70,67
256,603	71,96
257,146	62,75
257,689	64,75
258,232	81,75
258,774	72,95
259,317	62,66
259,859	70,67
260,401	69,74
260,943	72,01
261,485	83,99
262,027	65,48
262,569	69,31
263,11	62,99
263,652	72,35
264,193	69,62
264,734	74,13
265,275	70,93
265,816	73,65
266,357	60,62
266,898	68,12
267,438	66,78
267,979	73,43
268,519	73,7
269,059	68,17
269,6	76
270,14	67,92
270,68	77,82
271,219	67,11
271,759	69,77
272,298	63,58
272,838	74,92
273,377	69,59
273,916	69,62
274,455	70,38
274,994	72,22
275,533	74,91
276,072	77,47
276,61	67,39
277,149	74,91
277,687	65,45
278,225	70,73
278,763	76,82
279,301	68,35
279,839	75
280,377	65,4
280,914	67,84
281,452	64,53
281,989	79,09
282,526	65,96
283,064	79,93
283,601	61,18
284,137	66,78
284,674	65,26
285,211	67,17
285,747	59,45
286,284	67,81
286,82	69,28
287,356	69,04
287,892	66,55
288,428	60,92
288,964	65,34
289,5	74,65
290,035	65,2
290,571	59,25
291,106	63,88
291,641	68,03
292,176	63,23
292,711	71,48
293,246	65,61
293,781	65,02
294,315	66,67
294,85	68,2
295,384	68,82
295,918	65,54
296,453	63,89
296,987	71
297,52	65,33
298,054	67,14
298,588	69,86
299,121	69,72
299,655	69,38
300,188	66,79
300,721	58,59
301,254	74,1
301,787	67,01
302,32	70,1
302,853	77,36
303,385	74,46
303,918	65,03
304,45	65,27
304,982	65,96
305,514	65,02
306,046	57,86
306,578	64,66
307,11	72,69
307,641	63,61
308,173	68,61
308,704	69,49
309,236	65,87
309,767	64,04
310,298	61,9
310,829	66,79
311,359	62,09
311,89	66,21
312,421	60,4
312,951	61,2
313,481	65,17
314,012	63,64
314,542	67,93
315,072	60,82
315,601	65,38
316,131	69,42
316,661	57,72
317,19	69,41
317,72	58,82
318,249	65,28
318,778	63,25
319,307	57,32
319,836	70,65
320,365	66,3
320,893	70,32
321,422	65
321,95	68,97
322,479	66,2
323,007	71,88
323,535	54,05
324,063	60,06
324,591	72,73
325,118	63,34
325,646	80,22
326,173	75,92
326,701	68,31
327,228	65,89
327,755	67,54
328,282	60,98
328,809	67,01
329,336	67,36
329,862	61,44
330,389	58,88
330,915	63,76
331,441	65,52
331,968	58,39
332,494	59,02
333,02	63,61
333,545	66,36
334,071	62,26
334,597	50,96
335,122	53,48
335,648	55,84
336,173	56,03
336,698	57,14
337,223	56,13
337,748	66,03
338,272	56,56
338,797	58,5
339,322	49,85
339,846	61,07
340,37	58,67
340,894	50
341,419	56,37
341,942	58,6
342,466	55,83
342,99	53,35
343,514	48,89
344,037	45,51
344,56	55,26
345,084	52,79
345,607	51,05
346,13	57,73
346,653	51,15
347,175	48,08
347,698	56,02
348,221	53,63
348,743	51,34
349,265	52,27
349,787	49,01
350,309	50,28
350,831	45,54
351,353	48,72
351,875	50,65
352,397	53,16
352,918	44,96
353,439	40
353,961	50,86
354,482	52,3
355,003	48,61
355,524	51,66
356,044	44,63
356,565	50,75
357,086	48,11
357,606	43,42
358,126	46,01
358,646	49,76
359,167	43,63
359,687	50,32
360,206	43,64
360,726	48,69
361,246	41,98
361,765	48,94
362,285	44,68
362,804	46,67
363,323	46,39
363,842	40,91
364,361	43,6
364,88	40,57
365,398	42,51
365,917	42,8
366,435	40,48
366,954	42,97
367,472	42,37
367,99	39,26
368,508	42,13
369,026	41,43
369,544	40,32
370,061	41,1
370,579	38,04
371,096	37,13
371,613	39,5
372,131	42,04
372,648	40,84
373,165	40,4
373,681	37,26
374,198	34,59
374,715	38,8
375,231	40,16
375,747	41,33
376,264	37,25
376,78	36,28
377,296	35,26
377,812	36,94
378,327	38,07
378,843	34,83
379,359	32,72
379,874	34,22
380,389	38,1
380,905	38,04
381,42	33,54
381,935	34,68
382,449	32,18
382,964	32,99
383,479	34,88
383,993	31,78
384,508	33,96
385,022	30,03
385,536	30,21
386,05	30,02
386,564	32,21
387,078	31,82
387,592	30,86
388,105	30,1
388,619	28,28
389,132	24,23
389,645	26,76
390,158	25,91
390,671	29,7
391,184	27,02
391,697	26,94
392,21	26,98
392,722	27,21
393,235	25
393,747	26,66
394,259	25,46
394,771	25,21
395,283	25,06
395,795	25,38
396,307	25,04
396,818	23,86
397,33	24,95
397,841	23,57
398,353	23,09
398,864	23,36
399,375	22,97
399,886	21,66
400,397	20,47
400,907	20,5
401,418	19,4
401,928	20,72
402,439	21,35
402,949	18,07
403,459	19,76
403,969	18,43
404,479	18,35
404,989	17,43
405,498	18,06
406,008	17,03
406,517	17,72
407,027	16,26
407,536	16,37
408,045	15,44
408,554	15,5
409,063	14,86
409,572	14
410,08	13,17
410,589	12,97
411,097	12,81
411,606	11,82
412,114	12,58
412,622	11,94
413,13	11,49
413,638	11,24
414,145	10,56
414,653	10,33
415,16	10,09
415,668	10,27
416,175	10,24
416,682	9,64
417,189	9,07
417,696	9,1
418,203	8,88
418,71	9,08
419,216	9,07
419,723	8,59
420,229	8,46
420,735	8,19
421,242	8,55
421,748	8,36
422,254	7,89
422,759	8,12
423,265	7,97
423,771	7,72
424,276	7,77
424,781	7,54
425,287	7,2
425,792	8,03
426,297	7,4
426,802	7,36
427,306	7,61
427,811	7,47
428,316	7,22
428,82	7,2
429,324	7,48
429,829	7,18
430,333	7,54
430,837	6,97
431,34	6,98
431,844	6,88
432,348	7,05
432,851	6,9
433,355	6,6
433,858	6,83
434,361	6,7
434,864	7,09
435,367	6,64
435,87	6,77
436,373	6,67
436,876	6,59
437,378	6,57
437,88	6,62
438,383	6,42
438,885	6,55
439,387	6,15
439,889	6,48
440,391	6,85
440,892	6,31
441,394	6,57
441,896	6,72
442,397	6,41
442,898	6,77
443,399	6,49
443,9	6,64
444,401	6,82
444,902	6,58
445,403	6,68
445,903	6,72
446,404	6,68
446,904	6,86
447,405	6,58
447,905	6,53
448,405	6,86
448,905	6,58
449,404	7,03
449,904	6,8
450,404	6,67
450,903	6,47
451,403	7,11
451,902	7,18
452,401	6,58
452,9	6,9
453,399	6,62
453,898	7
454,396	7,05
454,895	7,14
455,393	6,95
455,892	7,23
456,39	6,86
456,888	7,38
457,386	7,01
457,884	6,78
458,382	7,29
458,879	6,93
459,377	6,98
459,874	7,33
460,372	7,21
460,869	7,15
461,366	7,16
461,863	7,38
462,36	7,01
462,857	6,93
463,353	6,94
463,85	7,14
464,346	6,85
464,843	7,01
465,339	7,01
465,835	6,99
466,331	7,24
466,827	7,07
467,323	7,03
467,818	7,16
468,314	6,94
468,809	7,1
469,305	7,09
469,8	7,17
470,295	7,18
470,79	6,89
471,285	6,9
471,78	6,96
472,274	7,28
472,769	6,91
473,263	6,82
473,758	7,05
474,252	7,1
474,746	6,83
475,24	6,97
475,734	6,9
476,228	6,87
476,721	6,86
477,215	6,81
477,708	7,23
478,202	7
478,695	7,08
479,188	6,98
479,681	7,17
480,174	6,69
480,667	7,18
481,159	7,16
481,652	7,08
482,144	7,13
482,637	7,28
483,129	7,4
483,621	7,32
484,113	7,15
484,605	7,29
485,097	7,26
485,588	7,25
486,08	6,81
486,571	7,33
487,063	7,27
487,554	7,26
488,045	7,39
488,536	7,65
489,027	7,6
489,518	7,59
490,008	7,29
490,499	7,61
490,989	7,76
491,48	7,51
491,97	7,46
492,46	7,64
492,95	7,54
493,44	7,97
493,93	7,72
494,419	8,16
494,909	8,09
495,398	8,13
495,888	8,3
496,377	8,12
496,866	8,29
497,355	8,49
497,844	8,56
498,333	8,52
498,821	8,64
499,31	8,49
499,798	8,87
500,287	8,74
500,775	8,74
501,263	9,15
501,751	9,07
502,239	9,09
502,727	9,34
503,215	9,23
503,702	9,6
504,19	9,87
504,677	9,67
505,164	9,73
505,651	9,98
506,139	10,19
506,625	10,07
507,112	10,43
507,599	10,85
508,086	10,52
508,572	10,94
509,058	11,02
509,545	10,96
510,031	11,52
510,517	11,4
511,003	11,81
511,489	12,01
511,974	12,13
512,46	12,47
512,946	12,4
513,431	12,87
513,916	13,02
514,401	13,02
514,887	13,31
515,371	13,79
515,856	14,01
516,341	14,09
516,826	14,46
517,31	14,4
517,795	14,85
518,279	14,8
518,763	15,32
519,247	15,4
519,731	15,6
520,215	16,21
520,699	16,52
521,182	16,64
521,666	16,68
522,149	16,92
522,633	17,26
523,116	17,49
523,599	17,67
524,082	17,83
524,565	18,41
525,048	18,53
525,53	18,86
526,013	19,11
526,495	19,47
526,978	19,5
527,46	19,5
527,942	20,21
528,424	20,2
528,906	20,32
529,388	20,79
529,87	20,65
530,351	20,58
530,833	21,03
531,314	21,03
531,795	21,52
532,277	21,66
532,758	21,68
533,238	21,53
533,719	21,95
534,2	21,76
534,681	21,9
535,161	22,02
535,642	22,07
536,122	22,06
536,602	22,46
537,082	22,23
537,562	22,51
538,042	22,67
538,522	22,51
539,001	22,72
539,481	22,5
539,96	22,94
540,44	22,87
540,919	23,01
541,398	22,77
541,877	23
542,356	23,1
542,835	22,99
543,313	23,17
543,792	23,36
544,27	22,99
544,749	23,11
545,227	23,34
545,705	23,62
546,183	22,73
546,661	23,48
547,139	23,67
547,616	23,3
548,094	23,5
548,571	23,41
549,049	23,37
549,526	23,41
550,003	23,2
550,48	24,2
550,957	23,79
551,434	23,65
551,911	23,67
552,387	24,03
552,864	23,74
553,34	23,94
553,817	24,04
554,293	23,94
554,769	23,77
555,245	24,15
555,721	23,8
556,197	23,58
556,672	23,73
557,148	23,67
557,623	24,19
558,099	23,68
558,574	23,89
559,049	23,68
559,524	23,58
559,999	23,36
560,474	23,55
560,948	23,49
561,423	23,68
561,897	23,16
562,372	23,3
562,846	23,22
563,32	23,38
563,794	22,81
564,268	22,92
564,742	22,78
565,216	22,7
565,69	22,32
566,163	22,63
566,636	22,39
567,11	22,38
567,583	21,93
568,056	22,13
568,529	21,93
569,002	21,69
569,475	21,57
569,947	21,52
570,42	21,36
570,892	21,2
571,365	21,24
571,837	20,88
572,309	20,78
572,781	20,66
573,253	20,42
573,725	20,41
574,197	20,03
574,668	19,79
575,14	20,08
575,611	19,7
576,082	19,74
576,554	19,48
577,025	19,31
577,496	19,28
577,967	19,07
578,437	18,98
578,908	18,96
579,379	18,63
579,849	18,78
580,319	18,79
580,79	18,5
581,26	18,26
581,73	18,39
582,2	18,13
582,669	18,2
583,139	18,02
583,609	17,88
584,078	17,87
584,548	17,79
585,017	17,55
585,486	17,56
585,955	17,45
586,424	17,31
586,893	17,26
587,362	17,35
587,83	17,41
588,299	17,14
588,767	16,97
589,236	17,08
589,704	17
590,172	16,82
590,64	17,06
591,108	16,75
591,576	16,94
592,043	16,79
592,511	16,79
592,978	16,48
593,446	16,46
593,913	16,55
594,38	16,57
594,847	16,31
595,314	16,61
595,781	16,21
596,248	16,39
596,715	16,42
597,181	16,22
597,647	16,25
598,114	16,19
598,58	16,45
599,046	16,27
599,512	16,27
599,978	16,02
600,444	16,12
600,91	16,05
601,375	15,92
601,841	16,08
602,306	16,05
602,771	15,92
603,236	15,85
603,702	15,89
604,167	15,68
604,631	15,77
605,096	15,93
605,561	15,68
606,025	15,56
606,49	15,56
606,954	15,43
607,418	15,51
607,882	15,31
608,347	15,38
608,81	15,04
609,274	15,12
609,738	15,18
610,202	14,92
610,665	15,3
611,128	14,98
611,592	14,94
612,055	15,02
612,518	14,86
612,981	14,56
613,444	14,55
613,907	14,39
614,369	14,43
614,832	14,38
615,294	14,23
615,757	14,29
616,219	14,27
616,681	14,17
617,143	13,98
617,605	13,8
618,067	13,81
618,529	13,71
618,99	13,84
619,452	13,74
619,913	13,61
620,375	13,69
620,836	13,57
621,297	13,64
621,758	13,49
622,219	13,56
622,68	13,29
623,14	13,42
623,601	13,36
624,061	13,25
624,522	13,5
624,982	13,22
625,442	13,22
625,902	13,23
626,362	13,15
626,822	13,19
627,282	13,26
627,742	13,18
628,201	13,15
628,661	13
629,12	13,19
629,579	13,14
630,038	13,16
630,497	12,98
630,956	13,1
631,415	13,05
631,874	13
632,332	12,93
632,791	12,84
633,249	12,86
633,708	12,9
634,166	12,71
634,624	12,67
635,082	12,71
635,54	12,46
635,998	12,52
636,455	12,5
636,913	12,28
637,37	12,21
637,828	12,19
638,285	12,13
638,742	12,1
639,199	11,83
639,656	11,75
640,113	11,72
640,57	11,66
641,027	11,44
641,483	11,53
641,94	11,27
642,396	11,23
642,852	11,13
643,309	11,03
643,765	10,93
644,221	10,77
644,676	10,76
645,132	10,55
645,588	10,41
646,043	10,49
646,499	10,28
646,954	10,16
647,409	10,13
647,864	9,96
648,319	10,01
648,774	9,73
649,229	9,72
649,684	9,68
650,139	9,67
650,593	9,67
651,047	9,62
651,502	9,57
651,956	9,38
652,41	9,41
652,864	9,42
653,318	9,59
653,772	9,45
654,225	9,38
654,679	9,3
655,133	9,39
655,586	9,33
656,039	9,3
656,492	9,2
656,946	9,15
657,399	9,07
657,851	9,02
658,304	9,04
658,757	9,05
659,209	8,84
659,662	8,83
660,114	8,73
660,567	8,69
661,019	8,64
661,471	8,47
661,923	8,42
662,375	8,36
662,826	8,31
663,278	8,15
663,73	8,15
664,181	8,09
664,632	8,03
665,084	7,96
665,535	7,92
665,986	7,95
666,437	7,83
666,888	7,76
667,338	7,66
667,789	7,57
668,24	7,68
668,69	7,67
669,14	7,65
669,591	7,63
670,041	7,56
670,491	7,67
670,941	7,76
671,391	7,61
671,84	7,71
672,29	7,63
672,74	7,65
673,189	7,63
673,638	7,67
674,088	7,73
674,537	7,71
674,986	7,77
675,435	7,76
675,883	7,86
676,332	7,9
676,781	7,93
677,229	7,96
677,678	8,09
678,126	8,09
678,574	8,14
679,022	8,18
679,47	8,27
679,918	8,43
680,366	8,39
680,814	8,58
681,261	8,68
681,709	8,7
682,156	8,78
682,604	9,01
683,051	9,04
683,498	9,12
683,945	9,33
684,392	9,36
684,839	9,48
685,286	9,63
685,732	9,81
686,179	10,04
686,625	10,1
687,071	10,39
687,518	10,5
687,964	10,75
688,41	10,97
688,856	11,28
689,301	11,3
689,747	11,69
690,193	11,95
690,638	12,37
691,084	12,56
691,529	12,97
691,974	13,23
692,419	13,65
692,864	14,08
693,309	14,28
693,754	14,8
694,199	15,24
694,643	15,55
695,088	15,92
695,532	16,56
695,977	16,96
696,421	17,38
696,865	18,02
697,309	18,35
697,753	18,99
698,197	19,45
698,64	19,86
699,084	20,3
699,527	20,91
699,971	21,26
700,414	22,08
700,857	22,56
701,3	22,91
701,743	23,52
702,186	23,93
702,629	24,46
703,072	25,12
703,515	25,66
703,957	25,93
704,399	26,53
704,842	27,17
705,284	27,42
705,726	28,23
706,168	28,65
706,61	28,99
707,052	29,57
707,494	30,05
707,935	30,85
708,377	31,02
708,818	31,62
709,26	32,03
709,701	32,58
710,142	33,14
710,583	33,59
711,024	34,08
711,465	34,76
711,905	35,2
712,346	35,67
712,787	36,16
713,227	36,62
713,667	37,2
714,108	37,79
714,548	38,28
714,988	38,87
715,428	39,37
715,868	39,72
716,307	40,36
716,747	40,86
717,186	41,34
717,626	41,74
718,065	42,21
718,504	42,99
718,944	43,2
719,383	43,66
719,822	44,6
720,261	44,93
720,699	45,29
721,138	45,94
721,576	46,22
722,015	46,61
722,453	47,44
722,892	47,45
723,33	48,06
723,768	48,48
724,206	49,01
724,644	49,64
725,081	50,04
725,519	50,11
725,957	50,67
726,394	51,3
726,832	51,94
727,269	52,34
727,706	52,64
728,143	53,31
728,58	53,63
729,017	54,22
729,454	54,26
729,89	54,72
730,327	55,09
730,764	55,55
731,2	55,8
731,636	56,25
732,072	56,39
732,509	56,75
732,945	57,21
733,38	57,37
733,816	57,79
734,252	57,99
734,688	58,22
735,123	58,36
735,559	59,11
735,994	59,41
736,429	59,28
736,864	59,69
737,299	60,06
737,734	60,25
738,169	60,63
738,604	60,67
739,038	60,96
739,473	61,14
739,907	61,39
740,342	61,35
740,776	61,76
741,21	61,71
741,644	62,11
742,078	62,23
742,512	62,26
742,946	62,57
743,379	63,06
743,813	62,91
744,246	63,06
744,68	63,02
745,113	63,14
745,546	63,49
745,979	63,68
746,412	63,23
746,845	64,27
747,278	63,8
747,711	63,72
748,143	64,02
748,576	63,89
749,008	64,3
749,441	64,37
749,873	64,37
750,305	64,22
750,737	64,36
751,169	64,19
751,601	64,46
752,032	64,64
752,464	64,5
752,896	64,77
753,327	64,55
753,758	64,63
754,19	65,1
754,621	65,01
755,052	65,2
755,483	65,23
755,914	64,64
756,344	65,26
756,775	65,16
757,206	64,97
757,636	65,21
758,066	65,37
758,497	65,03
758,927	65,47
759,357	65,51
759,787	65,26
760,217	64,9
760,647	65,18
761,076	65,58
761,506	65,37
761,935	65,03
762,365	65,14
762,794	65,35
763,223	65,55
763,653	65,56
764,082	65,53
764,51	65,34
764,939	65,29
765,368	65,51
765,797	65,28
766,225	65,2
766,654	65,14
767,082	65,53
767,51	65,14
767,938	65,02
768,367	65,13
768,795	65,32
769,222	65,65
769,65	65,31
770,078	65,27
770,505	64,9
770,933	65,46
771,36	65,46
771,788	65,59
772,215	65,14
772,642	65,52
773,069	65,53
773,496	65,36
773,923	65,3
774,349	65,63
774,776	65,46
775,203	65,43
775,629	65,31
776,055	65,5
776,482	65,79
776,908	65,49
777,334	65,3
777,76	65,4
778,186	65,2
778,611	65,44
779,037	65,63
779,463	65,39
779,888	65,38
780,314	65,36
780,739	65,48
781,164	65,38
781,589	65,03
782,014	65,38
782,439	65,26
782,864	65,37
783,289	65,32
783,713	65,69
784,138	65,51
784,562	65,29
784,987	65,47
785,411	65,6
785,835	65,28
786,259	65,4
786,683	65,5
787,107	65,29
787,531	65,49
787,954	65,35
788,378	65,46
788,802	65,5
789,225	65,21
789,648	65,38
790,071	65,58
790,495	65,8
790,918	65,65
791,34	65,77
791,763	65,56
792,186	65,74
792,609	65,49
793,031	65,6
793,454	65,69
793,876	65,46
794,298	65,8
794,721	65,94
795,143	65,48
795,565	65,39
795,986	65,32
796,408	65,5
796,83	65,69
797,252	65,39
797,673	65,5
798,094	65,83
798,516	65,23
798,937	65,68
799,358	65,72
799,779	65,51
800,2	65,21
800,621	65,85
801,042	65,52
801,462	65,83
801,883	65,7
802,303	65,42
802,724	65,57
803,144	65,41
803,564	65,48
803,984	65,84
804,404	65,64
804,824	66,1
805,244	65,68
805,664	65,85
806,084	65,42
806,503	65,81
806,923	66,08
807,342	65,33
807,761	65,88
808,18	65,98
808,599	65,59
809,018	65,43
809,437	65,99
809,856	65,8
810,275	65,93
810,693	66,09
811,112	65,61
811,53	66,05
811,949	65,69
812,367	65,73
812,785	66,01
813,203	65,87
813,621	65,59
814,039	65,82
814,457	66,06
814,874	66,02
815,292	65,94
815,709	65,74
816,127	66,2
816,544	65,78
816,961	65,77
817,378	65,49
817,795	65,49
818,212	65,9
818,629	65,99
819,046	65,58
819,462	65,57
819,879	65,84
820,295	65,58
820,712	65,9
821,128	65,88
821,544	65,94
821,96	65,87
822,376	65,97
822,792	65,77
823,208	65,71
823,624	65,82
824,039	65,96
824,455	66,07
824,87	65,86
825,286	66,28
825,701	66,06
826,116	65,91
826,531	65,8
826,946	65,66
827,361	65,93
827,776	65,9
828,19	66,03
828,605	65,75
829,02	65,93
829,434	65,92
829,848	66,05
830,263	66,01
830,677	65,89
831,091	66,05
831,505	65,89
831,919	65,88
832,332	65,65
832,746	65,74
833,16	65,88
833,573	65,71
833,987	65,75
834,4	66,15
834,813	65,9
835,226	66,02
835,639	66,34
836,052	65,9
836,465	66,42
836,878	66,34
837,29	65,96
837,703	66,05
838,116	65,94
838,528	65,66
838,94	65,77
839,352	65,68
839,765	65,78
840,177	66,07
840,589	65,96
841	65,69
841,412	66,35
841,824	66,18
842,235	65,79
842,647	65,99
843,058	66,2
843,47	65,78
843,881	66,17
844,292	66,04
844,703	65,91
845,114	65,78
845,525	65,83
845,935	65,8
846,346	66,15
846,757	66,24
847,167	66,18
847,577	66,31
847,988	65,61
848,398	66,04
848,808	66,14
849,218	66,16
849,628	65,93
850,038	65,92
850,448	65,76
850,857	66,18
851,267	65,78
851,676	66,48
852,086	66,25
852,495	66,19
852,904	66,16
853,313	66,17
853,722	66,15
854,131	66,26
854,54	66,2
854,949	65,87
855,357	65,74
855,766	66,15
856,174	65,94
856,583	66,17
856,991	66,28
857,399	66,2
857,807	66,18
858,215	65,99
858,623	66,16
859,031	66,07
859,439	66,28
859,846	65,83
860,254	66,11
860,661	66,05
861,069	66,12
861,476	66,12
861,883	66,12
862,29	66,14
862,697	66,11
863,104	66,14
863,511	65,97
863,918	66,27
864,325	65,94
864,731	65,88
865,138	66,14
865,544	66,22
865,95	66,56
866,357	65,94
866,763	66,1
867,169	65,83
867,575	65,98
867,98	66,37
868,386	66,42
868,792	66,03
869,197	66,37
869,603	66
870,008	66,16
870,414	65,97
870,819	66,4
871,224	66,61
871,629	66,25
872,034	66,12
872,439	65,96
872,844	66,53
873,248	66,35
873,653	66,58
874,057	66,56
874,462	65,95
874,866	66,65
875,27	66,57
875,674	65,87
876,078	66,37
876,482	66,28
876,886	66,21
877,29	66,57
877,694	66,38
878,097	66,23
878,501	66,68
878,904	66,2
879,308	65,96
879,711	66,42
880,114	66,55
880,517	66,1
880,92	66,71
881,323	66,38
881,726	66,26
882,128	66,57
882,531	66,15
882,934	66,86
883,336	65,78
883,738	65,98
884,141	66,81
884,543	66,74
884,945	66,11
885,347	66,39
885,749	66,43
886,151	66,08
886,552	66,48
886,954	65,82
887,355	66,5
887,757	66,61
888,158	66,33
888,56	66,53
888,961	66,43
889,362	66,67
889,763	66,66
890,164	66,36
890,565	66,27
890,965	66,45
891,366	66,54
891,767	66,81
892,167	66,64
892,567	66,19
892,968	66,73
893,368	67
893,768	66,2
894,168	66,68
894,568	66,25
894,968	66,74
895,368	66,59
895,767	66,6
896,167	66,62
896,566	66,39
896,966	66,54
897,365	66,65
897,764	66,55
898,164	66,87
898,563	66,71
898,962	66,57
899,361	66,46
899,759	66,44
900,158	66,54
900,557	66,52
900,955	66,32
901,354	66,54
901,752	66,2
902,15	66,84
902,548	66,52
902,947	66,54
903,345	66,72
903,742	66,65
904,14	67,06
904,538	66,73
904,936	66,41
905,333	66,27
905,731	66,38
906,128	66,95
906,525	66,18
906,923	66,53
907,32	66,94
907,717	66,77
908,114	66,94
908,511	66,51
908,907	67,19
909,304	66,57
909,701	66,35
910,097	66,57
910,494	66,86
910,89	66,77
911,286	66,92
911,682	66,44
912,078	66,32
912,474	66,25
912,87	66,53
913,266	66,67
913,662	66,73
914,058	66,94
914,453	66,26
914,849	66,73
915,244	66,81
915,639	66,85
916,034	66,56
916,43	66,29
916,825	66,37
917,22	66,88
917,614	66,7
918,009	66,65
918,404	66,57
918,798	66,61
919,193	66,58
919,587	66,85
919,982	66,89
920,376	66,73
920,77	66,09
921,164	67,31
921,558	66,7
921,952	66,38
922,346	67,06
922,74	66,83
923,133	66,62
923,527	66,02
923,92	66,4
924,314	66,64
924,707	66,39
925,1	66,27
925,493	66,96
925,886	66,32
926,279	66,33
926,672	66,65
927,065	66,62
927,457	66,44
927,85	66,19
928,243	66,47
928,635	66,72
929,027	66,32
929,42	66,75
929,812	66,57
930,204	66,09
930,596	66,27
930,988	66,49
931,379	66,73
931,771	66,16
932,163	66,45
932,554	65,99
932,946	66,46
933,337	66,16
933,729	66,22
934,12	66,16
934,511	66,42
934,902	65,69
935,293	66
935,684	66,71
936,075	65,18
936,465	66,55
936,856	66,04
937,246	65,81
937,637	65,97
938,027	66,69
938,417	65,9
938,808	66,06
939,198	66,16
939,588	65,39
939,978	65,75
940,368	65,51
940,757	66,01
941,147	66,71
941,537	66,28
941,926	65,88
942,315	65,69
942,705	66,44
943,094	65,98
943,483	65,96
943,872	65,4
944,261	65,13
944,65	65,61
945,039	65,72
945,428	65,01
945,816	66,1
946,205	66,64
946,593	64,88
946,982	65,38
947,37	65,45
947,758	65,38
948,146	66,23
948,534	65,71
948,922	65,22
949,31	64,95
949,698	65,2
950,086	65,08
950,473	65,11
950,861	64,77
951,248	64,98
951,636	65,54
952,023	65,68
952,41	65,11
952,797	64,24
953,184	65,1
953,571	65,46
953,958	64,28
954,345	65,78
954,731	64,77
955,118	65,23
955,505	64,68
955,891	64,32
956,277	64,95
956,664	64,41
957,05	64,14
957,436	63,28
957,822	64,64
958,208	64,69
958,594	63,55
958,979	64,35
959,365	63,76
959,751	64,43
960,136	64,44
960,522	63,95
960,907	64,5
961,292	64,17
961,677	64,2
962,062	64,4
962,447	63,86
962,832	64,5
963,217	64,07
963,602	63,84
963,986	64,31
964,371	64,12
964,756	63,66
965,14	64,42
965,524	63,76
965,908	63,86
966,293	64,16
966,677	63,65
967,061	64,27
967,445	63,13
967,828	64,1
968,212	63,88
968,596	64,26
968,979	63,84
969,363	63,75
969,746	63,82
970,129	64,46
970,513	63,49
970,896	63,77
971,279	63,42
971,662	63,45
972,045	63,95
972,428	63,67
972,81	64,08
973,193	64,23
973,575	63,95
973,958	63,95
974,34	64,55
974,723	63,93
975,105	63,97
975,487	63,59
975,869	63,47
976,251	64,19
976,633	64,28
977,015	63,79
977,396	64,27
977,778	63,75
978,16	64,02
978,541	63,65
978,922	64,32
979,304	64,02
979,685	63,88
980,066	64,21
980,447	64,52
980,828	63,86
981,209	63,84
981,59	64,55
981,97	63,92
982,351	63,6
982,732	64,17
983,112	64,61
983,493	64,6
983,873	63,99
984,253	64,03
984,633	63,88
985,013	63,98
985,393	64,3
985,773	64,15
986,153	64,29
986,533	64,61
986,912	64,43
987,292	63,85
987,671	64,16
988,051	64,14
988,43	64,23
988,809	63,62
989,188	64,65
989,567	64,69
989,946	64,45
990,325	64,08
990,704	63,89
991,083	64,29
991,461	64,32
991,84	64,03
992,218	64,07
992,597	63,6
992,975	64,66
993,353	64,82
993,732	64,12
994,11	64,88
994,488	64,42
994,866	64,53
995,243	64,31
995,621	64,18
995,999	64,23
996,376	64,73
996,754	64,66
997,131	64,15
997,509	64,2
997,886	63,95
998,263	63,97
998,64	65,29
999,017	65,01
999,394	64,93
999,771	64,64
1000,148	64,59
1000,524	64,78
1000,901	64,59
1001,277	64,79
1001,654	64,72
1002,03	65,24
1002,406	65,57
1002,783	65
1003,159	64,58
1003,535	65,35
1003,911	65,03
1004,286	65,22
1004,662	64,59
1005,038	64,63
1005,414	64,85
1005,789	65,14
1006,164	65,55
1006,54	65,2
1006,915	65,04
1007,29	66,22
1007,665	65,28
1008,04	65,21
1008,415	65,22
1008,79	64,8
1009,165	65,55
1009,54	65,33
1009,914	65
1010,289	64,61
1010,663	64,64
1011,038	64,88
1011,412	64,89
1011,786	65,32
1012,16	65,43
1012,535	64,66
1012,909	65,41
1013,282	66,5
1013,656	65,39
1014,03	65,23
1014,404	65,36
1014,777	65,22
1015,151	65,67
1015,524	65,68
1015,897	65,83
1016,271	65,78
1016,644	66,12
1017,017	65,57
1017,39	65,21
1017,763	65,11
1018,136	65,12
1018,508	65,19
1018,881	65,39
1019,254	64,93
1019,626	66,26
1019,999	65,17
1020,371	66,18
1020,743	65,95
1021,116	65,37
1021,488	65,16
1021,86	66,17
1022,232	65,21
1022,604	64,86
1022,975	65,5
1023,347	65,78
1023,719	65,54
1024,09	66,24
1024,462	66,07
1024,833	66,53
1025,204	66,39
1025,576	66,08
1025,947	66,07
1026,318	66,13
1026,689	67,1
1027,06	65,95
1027,431	66,09
1027,801	66,55
1028,172	65,6
1028,543	66,59
1028,913	66,83
1029,284	65,65
1029,654	66,5
1030,024	66,34
1030,394	65,6
1030,764	66,03
1031,135	65,54
1031,504	66,04
1031,874	66,16
1032,244	67,02
1032,614	65,91
1032,983	65,62
1033,353	65,46
1033,722	66,67
1034,092	66,21
1034,461	65,97
1034,83	66,26
1035,2	66,11
1035,569	66,27
1035,938	65,95
1036,307	66,75
1036,675	66,72
1037,044	66,61
1037,413	66,89
1037,781	66,2
1038,15	66,79
1038,518	65,64
1038,887	66,57
1039,255	66,49
1039,623	65,15
1039,991	65,97
1040,359	65,39
1040,727	66,93
1041,095	67,03
1041,463	66,88
1041,831	67,44
1042,198	66,38
1042,566	66,31
1042,933	66,32
1043,301	67,53
1043,668	66,03
1044,035	66,02
1044,402	66,75
1044,77	66,71
1045,137	67,41
1045,503	66,79
1045,87	67,41
1046,237	67,68
1046,604	67,4
1046,97	67,45
1047,337	67,03
1047,703	67,27
1048,07	66,48
1048,436	66,66
1048,802	66,6
1049,168	67,67
1049,534	67,47
1049,9	65,84
1050,266	66,71
1050,632	67,32
1050,998	66,59
1051,364	66,28
1051,729	67,44
1052,095	67,44
1052,46	67,59
1052,825	67,48
1053,191	66,88
1053,556	67,4
1053,921	68,34
1054,286	66,79
1054,651	67,26
1055,016	66,53
1055,381	67,75
1055,745	67,76
1056,11	67,52
1056,475	67,52
1056,839	67,63
1057,203	66,8
1057,568	67,2
1057,932	67,54
1058,296	67,16
1058,66	67,56
1059,024	67,49
1059,388	66,82
1059,752	67,53
1060,116	68,96
1060,48	68,06
1060,843	66,14
1061,207	68,03
1061,57	66,27
1061,934	69,69
1062,297	67,06
1062,66	67,35
1063,023	66,98
1063,386	69,47
1063,749	67,78
1064,112	68,5
1064,475	67,42
1064,838	66,68
1065,201	68,38
1065,563	69,57
1065,926	67,63
1066,288	68,71
1066,651	66,52
1067,013	68,47
1067,375	67,14
1067,737	68
1068,099	67,43
1068,461	66,54
1068,823	67,81
1069,185	66,56
1069,547	65,7
1069,909	67,77
1070,27	68,01
1070,632	67,45
1070,993	67,47
1071,355	66,87
1071,716	68,59
1072,077	67,03
1072,438	68,89
1072,799	67,73
1073,16	67,91
1073,521	66,88
1073,882	67,81
1074,243	69,26
1074,603	67,01
1074,964	69,29
1075,325	69,18
1075,685	68,28
1076,045	68,66
1076,406	66,94
1076,766	69,56
1077,126	68,25
1077,486	66,64
1077,846	66,86
1078,206	68,05
1078,566	66,28
1078,925	68,57
1079,285	67,56
1079,645	67,97
1080,004	67,26
1080,364	67,2
1080,723	66,72
1081,082	67,61
1081,442	70,4
1081,801	69,01
1082,16	67,96
1082,519	66,78
1082,878	65,54
1083,237	67,83
1083,595	67,44
1083,954	68,37
1084,313	65,18
1084,671	67,44
1085,03	66,81
1085,388	67,18
1085,746	66,69
1086,104	68,1
1086,463	66,47
1086,821	68,25
1087,179	64,64
1087,537	68,68
1087,894	67,91
1088,252	67,05
1088,61	68,38
1088,967	67,2
1089,325	67,33
1089,682	66,99
1090,04	69,07
1090,397	67,68
1090,754	70,25
1091,111	68,33
1091,469	67,53
1091,826	66,09
1092,182	66,35
1092,539	69,73
1092,896	68,41
1093,253	68
1093,609	68,28
1093,966	68,84
1094,322	69,93
1094,679	67,74
1095,035	70,88
1095,391	68,15
1095,748	68,21
1096,104	68,06
1096,46	68,17
1096,816	69,61
1097,171	65,82
1097,527	68,96
1097,883	66,98
1098,239	67,27
1098,594	66,95
1098,95	68,88
1099,305	67,34
1099,66	67,68
1100,016	66,53
1100,371	67,05
1100,726	66,6
1101,081	66,61
1101,436	64,91
1101,791	67,5
1102,146	67,02
1102,5	65,64
1102,855	68,95
1103,21	66,35
1103,564	69,23
1103,918	68,87
1104,273	69,31
1104,627	67,57
1104,981	69,67
1105,335	68,74
1105,69	68,31
1106,043	70,38
1106,397	66,76
1106,751	72,79
1107,105	66,18
1107,459	68,2
1107,812	65,94
1108,166	71,57
1108,519	67,86
1108,873	67,83
1109,226	67,84
1109,579	67,77
1109,932	68,5
1110,285	70,63
1110,638	67,19
1110,991	67,03
1111,344	69,65
1111,697	67,02
1112,05	69,35
1112,402	71,88
1112,755	68,33
1113,107	69,7
1113,46	68,71
1113,812	70,95
1114,164	65,3
1114,517	71,63
1114,869	85,05
1115,221	105,26
1115,573	106,73
1115,924	80,67
