Data from A6__Relative__7__00017.txt Node

Date: Wed Jan 31 17:55:28 CET 2024
User: diatiterra
Spectrometer: HDX00911
Trigger mode: 0
Integration Time (sec): 6,000000E-3
Scans to average: 2
Nonlinearity correction enabled: false
Boxcar width: 0
Storing dark spectrum: false
XAxis mode: Wavelengths
Number of Pixels in Spectrum: 2068
>>>>>Begin Spectral Data<<<<<
194,468	81,13
195,025	81,82
195,581	86,59
196,138	108,97
196,694	80,25
197,251	70,2
197,807	68,11
198,363	67,6
198,919	67,24
199,474	70,22
200,03	66,39
200,586	81,7
201,141	59,03
201,696	70,13
202,251	68,56
202,806	58,39
203,361	72,59
203,916	65,28
204,471	69,71
205,025	81,85
205,58	66,07
206,134	76,8
206,688	71,54
207,242	78,76
207,796	75,94
208,35	71,38
208,904	73,79
209,457	60,42
210,011	62,41
210,564	68,31
211,117	71,8
211,67	73,88
212,223	69,52
212,776	70,56
213,329	68,67
213,881	85,78
214,434	67,43
214,986	74,79
215,538	71,69
216,09	65,49
216,642	79,34
217,194	72,35
217,746	73,68
218,297	62,6
218,849	73,53
219,4	79,41
219,951	68,95
220,502	67,91
221,053	76,72
221,604	70,81
222,155	67,06
222,705	60,29
223,256	77,99
223,806	74,02
224,356	72,69
224,906	84,27
225,456	71,32
226,006	73,02
226,556	58,12
227,106	77,42
227,655	67,71
228,204	72,5
228,754	62,32
229,303	65,71
229,852	65,47
230,401	70,52
230,949	73,74
231,498	55,99
232,047	59,09
232,595	67,24
233,143	71,26
233,691	62,02
234,239	61,43
234,787	67,6
235,335	66,42
235,883	65,73
236,43	66,29
236,978	75
237,525	68,61
238,072	65,25
238,619	65,15
239,166	73,4
239,713	63,5
240,26	64,64
240,806	71,53
241,353	65,08
241,899	68,88
242,445	64,6
242,991	78,63
243,537	63,64
244,083	74,05
244,629	66,54
245,174	60,18
245,72	63,7
246,265	66,67
246,81	70
247,355	70,24
247,9	57,46
248,445	72,62
248,99	71,59
249,534	79,57
250,079	77,82
250,623	71,11
251,168	69,42
251,712	73,44
252,256	73,36
252,8	67,31
253,343	62,86
253,887	66,94
254,43	64,89
254,974	68,7
255,517	64,04
256,06	76,15
256,603	61,85
257,146	66,28
257,689	75,2
258,232	77,97
258,774	66,31
259,317	72,03
259,859	80,28
260,401	70,16
260,943	63,83
261,485	68,09
262,027	58,4
262,569	68,66
263,11	63,08
263,652	75,98
264,193	66,94
264,734	70,07
265,275	71,72
265,816	66,03
266,357	59,69
266,898	68,46
267,438	72,44
267,979	69,42
268,519	66,42
269,059	74,3
269,6	66,17
270,14	76,21
270,68	67,03
271,219	75,42
271,759	59,77
272,298	63,53
272,838	66,15
273,377	73,02
273,916	63,67
274,455	72,26
274,994	58,4
275,533	61,23
276,072	71,14
276,61	63,41
277,149	77,08
277,687	65,04
278,225	62
278,763	79,39
279,301	66,67
279,839	71,77
280,377	62,3
280,914	59,09
281,452	64,53
281,989	63,64
282,526	64,17
283,064	73,11
283,601	62,16
284,137	64,05
284,674	72,92
285,211	71,93
285,747	62,5
286,284	80,63
286,82	67,77
287,356	63,49
287,892	68,22
288,428	65,7
288,964	77,31
289,5	72,31
290,035	69,2
290,571	65,97
291,106	75,2
291,641	78,57
292,176	66,02
292,711	69,11
293,246	61,54
293,781	66,94
294,315	51,76
294,85	83,8
295,384	63,93
295,918	65,44
296,453	54,85
296,987	61,57
297,52	67,77
298,054	65,27
298,588	72,08
299,121	57,84
299,655	66,79
300,188	66,25
300,721	67,48
301,254	64,92
301,787	64,45
302,32	75,61
302,853	60
303,385	57,14
303,918	67,83
304,45	71,54
304,982	53,19
305,514	66,28
306,046	58,68
306,578	62,02
307,11	69,38
307,641	70,26
308,173	71,9
308,704	54,13
309,236	59,77
309,767	71,99
310,298	67,74
310,829	71,74
311,359	61,69
311,89	72,27
312,421	63,51
312,951	73,17
313,481	53,1
314,012	68,66
314,542	58,9
315,072	59,92
315,601	62
316,131	70,87
316,661	55,42
317,19	56,67
317,72	74,79
318,249	65,48
318,778	67,19
319,307	62,5
319,836	70,8
320,365	53,04
320,893	58,68
321,422	72,36
321,95	70,3
322,479	62,98
323,007	61,82
323,535	61,07
324,063	70,4
324,591	59,2
325,118	65,33
325,646	71,85
326,173	59,58
326,701	71,54
327,228	67,67
327,755	57,52
328,282	66,41
328,809	72,88
329,336	61,81
329,862	61,03
330,389	57,03
330,915	65,35
331,441	62,98
331,968	73,42
332,494	68,18
333,02	62,5
333,545	63,43
334,071	73,14
334,597	51,41
335,122	59,26
335,648	68,53
336,173	51,52
336,698	54,43
337,223	54,41
337,748	54,86
338,272	58,22
338,797	64,49
339,322	58,03
339,846	50,74
340,37	55,65
340,894	62,5
341,419	63,91
341,942	66,78
342,466	58,97
342,99	59,4
343,514	58,45
344,037	50
344,56	61,11
345,084	61,99
345,607	67,01
346,13	57,75
346,653	65,67
347,175	57,69
347,698	55,66
348,221	55,71
348,743	56,21
349,265	53,96
349,787	45,71
350,309	52,22
350,831	47,53
351,353	52,74
351,875	55,26
352,397	63,64
352,918	60,53
353,439	58,94
353,961	50
354,482	56,43
355,003	56,4
355,524	58,89
356,044	48,86
356,565	60,54
357,086	57,34
357,606	53,02
358,126	56,38
358,646	49,74
359,167	53,51
359,687	54,24
360,206	57,65
360,726	51,42
361,246	53,72
361,765	54,24
362,285	50,5
362,804	53,42
363,323	50,98
363,842	51,92
364,361	52,24
364,88	51,48
365,398	52,84
365,917	48,82
366,435	61,46
366,954	51,56
367,472	46,93
367,99	53,55
368,508	49,8
369,026	55,45
369,544	49,78
370,061	52,31
370,579	48,36
371,096	49,77
371,613	44,83
372,131	50
372,648	51,77
373,165	50,2
373,681	50,42
374,198	52,54
374,715	50,94
375,231	46,4
375,747	46,38
376,264	47,79
376,78	48,38
377,296	49,44
377,812	49,34
378,327	47,52
378,843	49,66
379,359	50
379,874	48,44
380,389	48,58
380,905	48,21
381,42	45,74
381,935	50,3
382,449	47,49
382,964	44,71
383,479	49,28
383,993	48,48
384,508	46,85
385,022	43,65
385,536	45,26
386,05	46,85
386,564	44,78
387,078	45,1
387,592	41,61
388,105	44,09
388,619	40,96
389,132	41,8
389,645	42,87
390,158	41,31
390,671	40,22
391,184	38,16
391,697	41,38
392,21	35,52
392,722	42,66
393,235	40,06
393,747	39,88
394,259	38,01
394,771	36,47
395,283	36,17
395,795	36,75
396,307	40,75
396,818	36,58
397,33	32,65
397,841	34,78
398,353	36,12
398,864	32,01
399,375	31,05
399,886	36,23
400,397	33,07
400,907	33,45
401,418	31,42
401,928	30,92
402,439	33,18
402,949	28,81
403,459	29,62
403,969	29,39
404,479	27,54
404,989	25,91
405,498	25,28
406,008	26,69
406,517	24,89
407,027	23,08
407,536	24,22
408,045	23,41
408,554	22,85
409,063	20,62
409,572	21,88
410,08	20,57
410,589	19,81
411,097	17,68
411,606	19,92
412,114	19,94
412,622	18,42
413,13	17,65
413,638	17,33
414,145	16,35
414,653	15,8
415,16	15,45
415,668	16,2
416,175	15,65
416,682	15,09
417,189	14,61
417,696	14,63
418,203	14,25
418,71	13,86
419,216	14,73
419,723	13,74
420,229	13,17
420,735	12,74
421,242	13,01
421,748	13,22
422,254	13,11
422,759	13,04
423,265	12,94
423,771	13,04
424,276	12,98
424,781	11,66
425,287	11,81
425,792	11,94
426,297	12,05
426,802	12,2
427,306	12,44
427,811	11,96
428,316	11,8
428,82	12,45
429,324	12,09
429,829	11,61
430,333	11,95
430,837	11,66
431,34	11,53
431,844	11,51
432,348	11,26
432,851	11,38
433,355	10,88
433,858	11,04
434,361	10,81
434,864	11,08
435,367	11,57
435,87	12,08
436,373	11,38
436,876	11,53
437,378	11,3
437,88	11,35
438,383	10,91
438,885	10,68
439,387	11,11
439,889	10,86
440,391	11,63
440,892	11,19
441,394	11,39
441,896	10,79
442,397	11,22
442,898	10,78
443,399	10,94
443,9	11,05
444,401	11,44
444,902	11,29
445,403	10,84
445,903	11,5
446,404	11,19
446,904	11,28
447,405	11,23
447,905	11,24
448,405	11,26
448,905	11,33
449,404	11,6
449,904	11,09
450,404	11,27
450,903	11,56
451,403	11,1
451,902	11,55
452,401	11,99
452,9	11,38
453,399	11,41
453,898	11,54
454,396	11,1
454,895	11,52
455,393	11,51
455,892	11,62
456,39	11,15
456,888	11,65
457,386	11,32
457,884	11,97
458,382	11,93
458,879	11,75
459,377	11,96
459,874	11,71
460,372	11,54
460,869	11,31
461,366	11,89
461,863	11,54
462,36	11,96
462,857	11,74
463,353	11,84
463,85	11,71
464,346	11,54
464,843	11,9
465,339	11,55
465,835	11,82
466,331	11,8
466,827	11,59
467,323	11,5
467,818	12,11
468,314	11,88
468,809	11,6
469,305	11,35
469,8	11,89
470,295	11,64
470,79	11,48
471,285	11,54
471,78	11,63
472,274	11,6
472,769	11,77
473,263	11,94
473,758	11,52
474,252	11,43
474,746	12,07
475,24	11,85
475,734	11,4
476,228	11,93
476,721	11,78
477,215	11,85
477,708	11,96
478,202	11,97
478,695	12,02
479,188	11,87
479,681	11,76
480,174	12,57
480,667	11,9
481,159	11,96
481,652	12,36
482,144	11,93
482,637	11,97
483,129	11,71
483,621	12,1
484,113	12,24
484,605	12,16
485,097	12,16
485,588	11,68
486,08	12,13
486,571	12,13
487,063	12,14
487,554	12,51
488,045	12,4
488,536	12,42
489,027	12,35
489,518	12,04
490,008	12,38
490,499	12,45
490,989	12,65
491,48	12,67
491,97	12,79
492,46	12,59
492,95	12,85
493,44	12,75
493,93	12,95
494,419	12,92
494,909	13,12
495,398	12,93
495,888	13,41
496,377	13,05
496,866	13,61
497,355	13,49
497,844	13,23
498,333	13,38
498,821	13,6
499,31	13,67
499,798	14,19
500,287	14,16
500,775	14,52
501,263	14,55
501,751	14,72
502,239	14,55
502,727	14,69
503,215	15,06
503,702	15,23
504,19	14,97
504,677	15,59
505,164	16,02
505,651	15,83
506,139	15,67
506,625	15,91
507,112	16,63
507,599	16,71
508,086	16,84
508,572	17,18
509,058	17,75
509,545	17,53
510,031	17,89
510,517	18,13
511,003	18,31
511,489	19,12
511,974	19,25
512,46	19,48
512,946	19,53
513,431	20,56
513,916	20,48
514,401	21,09
514,887	21,05
515,371	21,59
515,856	22,2
516,341	22,38
516,826	22,65
517,31	23,07
517,795	23,35
518,279	23,99
518,763	24,5
519,247	24,94
519,731	25,29
520,215	25,44
520,699	26,16
521,182	26,76
521,666	26,75
522,149	27,35
522,633	27,87
523,116	28,85
523,599	29,16
524,082	29,02
524,565	29,39
525,048	30,23
525,53	30,19
526,013	30,87
526,495	31,44
526,978	31,64
527,46	31,89
527,942	31,79
528,424	32,7
528,906	32,78
529,388	33,03
529,87	33,91
530,351	33,47
530,833	33,92
531,314	34,57
531,795	34,67
532,277	35,08
532,758	35,41
533,238	34,85
533,719	35,25
534,2	34,97
534,681	35,74
535,161	36,03
535,642	36,46
536,122	35,9
536,602	36,04
537,082	36,53
537,562	36,8
538,042	36,52
538,522	36,8
539,001	36,83
539,481	36,98
539,96	36,92
540,44	37,15
540,919	37,05
541,398	37,23
541,877	37,45
542,356	37,37
542,835	37,15
543,313	37,63
543,792	37,74
544,27	37,57
544,749	37,87
545,227	37,73
545,705	38,03
546,183	38,79
546,661	38,17
547,139	38,02
547,616	37,97
548,094	38,25
548,571	38,3
549,049	38,48
549,526	38,31
550,003	38,55
550,48	38,19
550,957	38,59
551,434	38,42
551,911	38,51
552,387	38,16
552,864	38,51
553,34	39,01
553,817	38,45
554,293	38,89
554,769	38,46
555,245	38,63
555,721	38,69
556,197	38,49
556,672	38,26
557,148	38,44
557,623	38,64
558,099	37,93
558,574	38,34
559,049	37,97
559,524	38,63
559,999	37,98
560,474	37,86
560,948	37,26
561,423	38,09
561,897	37,31
562,372	37,54
562,846	37,33
563,32	37,02
563,794	37,03
564,268	37,05
564,742	36,69
565,216	36,51
565,69	36,05
566,163	36,23
566,636	35,89
567,11	35,65
567,583	35,37
568,056	35,33
568,529	34,96
569,002	34,85
569,475	34,6
569,947	33,75
570,42	34,14
570,892	33,65
571,365	33,29
571,837	33,25
572,309	33,3
572,781	32,64
573,253	32,41
573,725	32,01
574,197	32,44
574,668	31,92
575,14	32,06
575,611	31,66
576,082	30,96
576,554	31,04
577,025	31,08
577,496	30,23
577,967	30,14
578,437	30,32
578,908	29,83
579,379	29,67
579,849	29,68
580,319	29,65
580,79	28,83
581,26	28,89
581,73	28,85
582,2	28,56
582,669	28,63
583,139	28,56
583,609	28,3
584,078	28,48
584,548	27,87
585,017	28,14
585,486	27,38
585,955	27,67
586,424	27,5
586,893	27,31
587,362	27,27
587,83	27,55
588,299	27,03
588,767	27,17
589,236	26,91
589,704	26,64
590,172	26,57
590,64	26,51
591,108	26,34
591,576	26,58
592,043	26,25
592,511	26,03
592,978	26,15
593,446	25,88
593,913	25,77
594,38	26,02
594,847	25,75
595,314	25,61
595,781	25,63
596,248	25,49
596,715	25,8
597,181	25,17
597,647	25,49
598,114	25,6
598,58	25,5
599,046	25,38
599,512	25,34
599,978	25,18
600,444	25,05
600,91	25,05
601,375	25,28
601,841	25,15
602,306	24,97
602,771	24,91
603,236	24,8
603,702	25,2
604,167	24,75
604,631	24,64
605,096	24,55
605,561	24,45
606,025	24,38
606,49	24,08
606,954	24,28
607,418	23,9
607,882	23,89
608,347	23,91
608,81	23,75
609,274	23,52
609,738	23,23
610,202	23,46
610,665	23,29
611,128	22,98
611,592	22,67
612,055	22,91
612,518	22,77
612,981	22,69
613,444	22,49
613,907	22,28
614,369	22,46
614,832	22,38
615,294	22,12
615,757	21,89
616,219	22,25
616,681	21,58
617,143	21,36
617,605	21,68
618,067	21,39
618,529	21,41
618,99	21,16
619,452	20,96
619,913	20,91
620,375	21,04
620,836	21,09
621,297	20,98
621,758	20,71
622,219	20,79
622,68	20,61
623,14	20,26
623,601	20,46
624,061	20,54
624,522	20,47
624,982	20,37
625,442	20,65
625,902	20,37
626,362	20,36
626,822	19,94
627,282	20,51
627,742	20,33
628,201	20,2
628,661	20,07
629,12	20,18
629,579	20,09
630,038	20,23
630,497	20,2
630,956	19,84
631,415	19,96
631,874	19,81
632,332	19,92
632,791	19,9
633,249	19,88
633,708	19,87
634,166	19,5
634,624	19,37
635,082	19,54
635,54	19,53
635,998	19,15
636,455	19,24
636,913	19,14
637,37	19,01
637,828	18,74
638,285	18,83
638,742	18,57
639,199	18,4
639,656	18,24
640,113	18,1
640,57	18,1
641,027	17,82
641,483	17,59
641,94	17,66
642,396	17,36
642,852	17,42
643,309	17,01
643,765	17,11
644,221	16,99
644,676	16,59
645,132	16,65
645,588	16,44
646,043	16,26
646,499	15,95
646,954	15,82
647,409	15,91
647,864	15,62
648,319	15,54
648,774	15,46
649,229	15,34
649,684	15,38
650,139	15,2
650,593	15,08
651,047	15,03
651,502	14,84
651,956	14,92
652,41	14,87
652,864	14,95
653,318	14,72
653,772	14,64
654,225	14,61
654,679	14,65
655,133	14,48
655,586	14,37
656,039	14,26
656,492	14,21
656,946	14,27
657,399	14,12
657,851	14,02
658,304	13,94
658,757	13,94
659,209	13,87
659,662	13,67
660,114	13,49
660,567	13,55
661,019	13,41
661,471	13,13
661,923	13,21
662,375	13,07
662,826	12,91
663,278	12,79
663,73	12,81
664,181	12,94
664,632	12,84
665,084	12,89
665,535	12,87
665,986	12,92
666,437	12,72
666,888	12,72
667,338	12,49
667,789	12,79
668,24	12,69
668,69	12,64
669,14	12,62
669,591	12,59
670,041	12,67
670,491	12,67
670,941	12,83
671,391	12,87
671,84	12,82
672,29	12,87
672,74	12,89
673,189	13,14
673,638	13,05
674,088	13,35
674,537	13,31
674,986	13,38
675,435	13,4
675,883	13,59
676,332	13,64
676,781	13,71
677,229	13,71
677,678	13,81
678,126	14,17
678,574	14,29
679,022	14,25
679,47	14,39
679,918	14,6
680,366	14,72
680,814	14,8
681,261	14,89
681,709	15,08
682,156	15,22
682,604	15,44
683,051	15,42
683,498	15,61
683,945	15,8
684,392	15,84
684,839	16,09
685,286	16,21
685,732	16,08
686,179	16,46
686,625	16,76
687,071	16,78
687,518	17,2
687,964	17,35
688,41	17,61
688,856	17,83
689,301	18,29
689,747	18,46
690,193	18,84
690,638	19,44
691,084	19,64
691,529	20,17
691,974	20,75
692,419	21,24
692,864	22,2
693,309	22,77
693,754	23,11
694,199	23,89
694,643	24,53
695,088	25,29
695,532	25,96
695,977	26,84
696,421	27,61
696,865	28,13
697,309	29
697,753	29,66
698,197	30,78
698,64	31,24
699,084	32,41
699,527	33,05
699,971	33,85
700,414	34,34
700,857	35,4
701,3	36,1
701,743	36,93
702,186	37,85
702,629	38,48
703,072	39,37
703,515	40,18
703,957	40,58
704,399	41,54
704,842	41,99
705,284	42,82
705,726	43,6
706,168	44,36
706,61	45,19
707,052	45,34
707,494	46,42
707,935	47,2
708,377	47,95
708,818	48,37
709,26	48,86
709,701	49,66
710,142	50,39
710,583	50,59
711,024	51,22
711,465	52,15
711,905	52,65
712,346	52,8
712,787	53,66
713,227	54,43
713,667	54,88
714,108	55,24
714,548	56,07
714,988	56,69
715,428	57,34
715,868	57,93
716,307	58,26
716,747	58,54
717,186	59,05
717,626	59,69
718,065	60,5
718,504	60,52
718,944	61,38
719,383	61,7
719,822	62,22
720,261	62,35
720,699	62,8
721,138	63,27
721,576	63,71
722,015	64,41
722,453	64,47
722,892	65,12
723,33	65,52
723,768	66,57
724,206	66,69
724,644	66,08
725,081	66,61
725,519	67,18
725,957	67,37
726,394	67,79
726,832	67,7
727,269	68,11
727,706	68,6
728,143	68,46
728,58	69,49
729,017	68,74
729,454	69,66
729,89	69,99
730,327	69,46
730,764	70,37
731,2	70,31
731,636	70,69
732,072	71,01
732,509	70,93
732,945	71,28
733,38	71,1
733,816	71,7
734,252	71,67
734,688	72
735,123	72,23
735,559	72,15
735,994	71,91
736,429	72,39
736,864	72,92
737,299	72,74
737,734	73,02
738,169	72,54
738,604	73,14
739,038	72,87
739,473	72,98
739,907	73,28
740,342	73,32
740,776	73,41
741,21	73,5
741,644	73,9
742,078	73,69
742,512	73,71
742,946	74
743,379	73,25
743,813	73,37
744,246	73,69
744,68	73,92
745,113	73,41
745,546	73,43
745,979	73,84
746,412	73,41
746,845	73,33
747,278	73,62
747,711	73,28
748,143	73,67
748,576	73,95
749,008	74,16
749,441	73,13
749,873	73,27
750,305	73,76
750,737	73,46
751,169	73,35
751,601	73,33
752,032	73,31
752,464	73,14
752,896	72,72
753,327	73,17
753,758	73,23
754,19	73,01
754,621	72,92
755,052	73,1
755,483	72,89
755,914	73,38
756,344	72,99
756,775	73,42
757,206	73,1
757,636	73,39
758,066	72,97
758,497	72,77
758,927	73,21
759,357	72,82
759,787	72,95
760,217	72,84
760,647	72,62
761,076	72,71
761,506	72,48
761,935	72,63
762,365	72,87
762,794	72,41
763,223	72,67
763,653	72,64
764,082	72,02
764,51	72,76
764,939	72,4
765,368	72,36
765,797	72,38
766,225	72,4
766,654	72,19
767,082	71,83
767,51	72,27
767,938	71,86
768,367	71,76
768,795	71,64
769,222	72,33
769,65	71,96
770,078	71,6
770,505	71,97
770,933	71,69
771,36	72,52
771,788	71,45
772,215	72,01
772,642	71,72
773,069	71,49
773,496	71,41
773,923	71,48
774,349	71,32
774,776	71,61
775,203	71,29
775,629	71,65
776,055	70,75
776,482	70,65
776,908	70,85
777,334	70,68
777,76	71,19
778,186	71,6
778,611	71,74
779,037	71,75
779,463	71,53
779,888	71,13
780,314	71,16
780,739	71,4
781,164	71,1
781,589	70,56
782,014	70,94
782,439	71,11
782,864	71,4
783,289	71,55
783,713	70,65
784,138	71,05
784,562	70,68
784,987	71,01
785,411	70,73
785,835	70,77
786,259	70,62
786,683	70,99
787,107	71,09
787,531	71
787,954	70,82
788,378	70,97
788,802	70,95
789,225	70,57
789,648	71,08
790,071	69,93
790,495	71,17
790,918	70,96
791,34	70,97
791,763	70,57
792,186	70,46
792,609	70,66
793,031	70,51
793,454	70,64
793,876	70,9
794,298	70,55
794,721	70,6
795,143	70,88
795,565	70,53
795,986	70,06
796,408	70,95
796,83	70,53
797,252	70,8
797,673	70,79
798,094	70,92
798,516	70,48
798,937	70,74
799,358	70,34
799,779	70,59
800,2	70,49
800,621	70,39
801,042	70,17
801,462	70,91
801,883	70,48
802,303	70,2
802,724	70,66
803,144	70,46
803,564	70,53
803,984	70,59
804,404	70,68
804,824	70,51
805,244	70,58
805,664	70,69
806,084	70,53
806,503	70,64
806,923	70,67
807,342	70,44
807,761	70,23
808,18	70,44
808,599	70,22
809,018	70,6
809,437	70,36
809,856	70,02
810,275	70,59
810,693	69,69
811,112	70,21
811,53	70,46
811,949	70,67
812,367	70,47
812,785	70,55
813,203	70,68
813,621	70,28
814,039	69,76
814,457	70,43
814,874	70,22
815,292	70,22
815,709	70,34
816,127	70,75
816,544	70,34
816,961	70,36
817,378	70,87
817,795	70,54
818,212	70,24
818,629	70,88
819,046	70,14
819,462	70,17
819,879	70,19
820,295	69,95
820,712	70,39
821,128	70,31
821,544	70,52
821,96	70,67
822,376	70,17
822,792	70,35
823,208	69,96
823,624	70,29
824,039	70,07
824,455	70,58
824,87	69,76
825,286	70,09
825,701	70,12
826,116	70,04
826,531	70,57
826,946	70,13
827,361	70,1
827,776	70,11
828,19	69,94
828,605	69,86
829,02	70,07
829,434	70,13
829,848	70,03
830,263	70,56
830,677	69,71
831,091	69,9
831,505	69,77
831,919	70,32
832,332	70,2
832,746	70,25
833,16	69,62
833,573	70,08
833,987	70,42
834,4	70,03
834,813	69,54
835,226	69,85
835,639	69,9
836,052	69,77
836,465	70,06
836,878	69,79
837,29	69,9
837,703	69,86
838,116	69,58
838,528	70,05
838,94	70,44
839,352	69,91
839,765	70,01
840,177	70,16
840,589	70,23
841	69,82
841,412	70,26
841,824	70,23
842,235	70,04
842,647	70,23
843,058	70,14
843,47	69,91
843,881	70,31
844,292	69,51
844,703	70,22
845,114	69,3
845,525	69,95
845,935	69,98
846,346	69,77
846,757	69,45
847,167	69,79
847,577	69,43
847,988	69,67
848,398	69,64
848,808	70,04
849,218	70,27
849,628	69,81
850,038	70,02
850,448	69,79
850,857	69,96
851,267	69,98
851,676	69,84
852,086	69,87
852,495	69,78
852,904	69,62
853,313	69,45
853,722	69,7
854,131	69,98
854,54	69,69
854,949	69,63
855,357	69,86
855,766	69,82
856,174	69,72
856,583	69,65
856,991	69,77
857,399	70,66
857,807	69,82
858,215	70,42
858,623	70,2
859,031	69,27
859,439	69,84
859,846	69,67
860,254	69,58
860,661	70,33
861,069	69,75
861,476	70,03
861,883	69,49
862,29	69,73
862,697	70,03
863,104	69,42
863,511	69,46
863,918	69,39
864,325	69,93
864,731	69,59
865,138	69,54
865,544	69,39
865,95	69,86
866,357	69,55
866,763	69,89
867,169	70,07
867,575	70,26
867,98	69,79
868,386	69,45
868,792	69,94
869,197	69,53
869,603	69,68
870,008	69,96
870,414	70,41
870,819	69,27
871,224	69,62
871,629	69,96
872,034	69,66
872,439	69,32
872,844	70
873,248	69,98
873,653	69,5
874,057	69,51
874,462	69,71
874,866	69,94
875,27	69,48
875,674	70,26
876,078	69,62
876,482	69,71
876,886	69,51
877,29	69,42
877,694	69,65
878,097	69,83
878,501	69,61
878,904	69,29
879,308	69,79
879,711	69,96
880,114	70,05
880,517	69,81
880,92	69,62
881,323	69,9
881,726	70,19
882,128	70,01
882,531	69,41
882,934	69,63
883,336	69,63
883,738	69,59
884,141	69,87
884,543	69,72
884,945	69,61
885,347	69,49
885,749	69,71
886,151	70,28
886,552	69,71
886,954	69,1
887,355	69,92
887,757	69,39
888,158	69,52
888,56	69,36
888,961	69,61
889,362	69,76
889,763	69,72
890,164	70,07
890,565	69,53
890,965	69,61
891,366	69,55
891,767	69,81
892,167	69,36
892,567	69,77
892,968	69,75
893,368	69,4
893,768	69,47
894,168	69,57
894,568	69,47
894,968	69,62
895,368	69,3
895,767	69,8
896,167	69,46
896,566	69,11
896,966	69,83
897,365	70,26
897,764	70,32
898,164	69,78
898,563	69,46
898,962	69,53
899,361	69,82
899,759	69,43
900,158	69,24
900,557	69,65
900,955	69,51
901,354	69,25
901,752	69,17
902,15	68,58
902,548	69,94
902,947	69,54
903,345	70,33
903,742	69,44
904,14	69,25
904,538	69,53
904,936	70,15
905,333	69,08
905,731	69,77
906,128	68,96
906,525	69,73
906,923	69,63
907,32	69,42
907,717	69,74
908,114	69,63
908,511	69,25
908,907	70,61
909,304	70,06
909,701	69,78
910,097	69,94
910,494	69,19
910,89	70,22
911,286	69,21
911,682	69,67
912,078	70,17
912,474	69,88
912,87	69,56
913,266	69,27
913,662	69,43
914,058	68,67
914,453	68,93
914,849	69,12
915,244	69,02
915,639	70,05
916,034	68,79
916,43	69,78
916,825	69,73
917,22	69,62
917,614	70,06
918,009	69,82
918,404	69,02
918,798	69,28
919,193	69,76
919,587	69,17
919,982	69,43
920,376	68,99
920,77	68,93
921,164	68,96
921,558	69,31
921,952	69,45
922,346	68,99
922,74	69,44
923,133	69,59
923,527	69,29
923,92	68,91
924,314	69,5
924,707	69,15
925,1	69,07
925,493	69,9
925,886	68,52
926,279	68,66
926,672	69,75
927,065	68,3
927,457	69,28
927,85	69,11
928,243	68,57
928,635	69,51
929,027	68,85
929,42	69,63
929,812	68,88
930,204	69,51
930,596	70,04
930,988	68,86
931,379	69,52
931,771	69,98
932,163	68,96
932,554	68,85
932,946	67,87
933,337	69,21
933,729	69,04
934,12	68,78
934,511	68,72
934,902	69,04
935,293	68,36
935,684	69,46
936,075	69,48
936,465	69,79
936,856	69,01
937,246	69,79
937,637	69,23
938,027	68,97
938,417	67,12
938,808	68,52
939,198	67,98
939,588	68,89
939,978	69,51
940,368	67,34
940,757	69,35
941,147	68,66
941,537	68,08
941,926	69,55
942,315	70,03
942,705	67,74
943,094	68,55
943,483	68,39
943,872	68,48
944,261	68,76
944,65	68,09
945,039	68,42
945,428	68,8
945,816	68,6
946,205	67,77
946,593	67,8
946,982	68,29
947,37	67,95
947,758	68,73
948,146	67,67
948,534	68,63
948,922	67,91
949,31	67,05
949,698	68,33
950,086	68,21
950,473	67,84
950,861	68,43
951,248	67,81
951,636	68,43
952,023	67,09
952,41	67,65
952,797	68,03
953,184	67,95
953,571	67,73
953,958	67,05
954,345	67,3
954,731	68,18
955,118	67,53
955,505	67,17
955,891	67,34
956,277	67,89
956,664	67,09
957,05	67,44
957,436	67,46
957,822	67,08
958,208	66,83
958,594	66,88
958,979	66,96
959,365	66,92
959,751	66,96
960,136	67,11
960,522	66,72
960,907	67,32
961,292	66,85
961,677	67,83
962,062	66,72
962,447	67,71
962,832	67,05
963,217	67,6
963,602	67,82
963,986	67,13
964,371	66,83
964,756	66,39
965,14	66,63
965,524	67,58
965,908	67,03
966,293	65,93
966,677	67,14
967,061	68,2
967,445	67,03
967,828	66,66
968,212	67,07
968,596	66,56
968,979	67,02
969,363	67,63
969,746	68,28
970,129	67,29
970,513	67,02
970,896	68,14
971,279	67,31
971,662	66,75
972,045	66,31
972,428	68,14
972,81	67,3
973,193	67,78
973,575	66,99
973,958	66,26
974,34	67,16
974,723	66,79
975,105	67,11
975,487	66,98
975,869	67,22
976,251	67,41
976,633	66,94
977,015	66,87
977,396	67,02
977,778	67,08
978,16	66,71
978,541	66,83
978,922	67,55
979,304	67,7
979,685	67,89
980,066	66,6
980,447	67,01
980,828	67,09
981,209	66,24
981,59	66,9
981,97	66,57
982,351	67,46
982,732	67,52
983,112	67,08
983,493	67,84
983,873	67,07
984,253	67,06
984,633	67,35
985,013	67,32
985,393	68,2
985,773	66,72
986,153	67,09
986,533	67,12
986,912	68,17
987,292	67,56
987,671	67,14
988,051	68,19
988,43	67,2
988,809	67,76
989,188	67,42
989,567	66,94
989,946	67,42
990,325	67,68
990,704	67,37
991,083	67,3
991,461	68,45
991,84	67,68
992,218	67,67
992,597	67,81
992,975	68,2
993,353	67,51
993,732	67,54
994,11	67,2
994,488	67,53
994,866	67,14
995,243	67,72
995,621	67,8
995,999	67,33
996,376	67,38
996,754	67,17
997,131	68,09
997,509	68,39
997,886	66,38
998,263	67,8
998,64	66,73
999,017	67,33
999,394	67,61
999,771	67,9
1000,148	67,63
1000,524	67,21
1000,901	67,1
1001,277	67,29
1001,654	68,06
1002,03	67,75
1002,406	68,02
1002,783	68,03
1003,159	67,64
1003,535	68,52
1003,911	68,18
1004,286	68,34
1004,662	67,75
1005,038	68,67
1005,414	68,46
1005,789	67,38
1006,164	67,41
1006,54	68,79
1006,915	67,77
1007,29	67,07
1007,665	67,73
1008,04	67,54
1008,415	67,79
1008,79	67,77
1009,165	67,88
1009,54	67,94
1009,914	67,13
1010,289	67,63
1010,663	68,1
1011,038	67,94
1011,412	67,45
1011,786	68,66
1012,16	68,57
1012,535	67,92
1012,909	68,68
1013,282	68,33
1013,656	67,82
1014,03	66,95
1014,404	68,34
1014,777	67,73
1015,151	68,32
1015,524	68,33
1015,897	67,57
1016,271	69,13
1016,644	68,57
1017,017	68,58
1017,39	67,81
1017,763	68,44
1018,136	68,21
1018,508	67,73
1018,881	67,59
1019,254	68,23
1019,626	68,16
1019,999	67,55
1020,371	67,81
1020,743	69,13
1021,116	68,54
1021,488	69,23
1021,86	69,7
1022,232	69,28
1022,604	68,46
1022,975	69,38
1023,347	67,56
1023,719	68,79
1024,09	68,85
1024,462	67,68
1024,833	69,11
1025,204	69,42
1025,576	67,96
1025,947	67,14
1026,318	67,58
1026,689	69,28
1027,06	68,41
1027,431	68,4
1027,801	69,45
1028,172	68,71
1028,543	69,31
1028,913	69,05
1029,284	69,18
1029,654	68,58
1030,024	68,75
1030,394	69,05
1030,764	68,84
1031,135	68,43
1031,504	67,7
1031,874	68,67
1032,244	68,24
1032,614	68,35
1032,983	68,28
1033,353	67,72
1033,722	68,73
1034,092	69,72
1034,461	68,76
1034,83	67,79
1035,2	69,59
1035,569	69,64
1035,938	68,32
1036,307	68,37
1036,675	69,03
1037,044	69,64
1037,413	69,35
1037,781	68,41
1038,15	70,17
1038,518	69,17
1038,887	67,92
1039,255	69,05
1039,623	68,49
1039,991	67,97
1040,359	68,08
1040,727	69,62
1041,095	68,87
1041,463	69,81
1041,831	68,63
1042,198	68,77
1042,566	69,95
1042,933	70,42
1043,301	67,98
1043,668	68,29
1044,035	68,48
1044,402	69,9
1044,77	69,44
1045,137	69,15
1045,503	69,09
1045,87	67,71
1046,237	70,06
1046,604	70,18
1046,97	68,08
1047,337	69,57
1047,703	70,07
1048,07	68,61
1048,436	70,82
1048,802	69
1049,168	70,67
1049,534	67,52
1049,9	70,89
1050,266	70,6
1050,632	68,45
1050,998	70,76
1051,364	70,38
1051,729	70,36
1052,095	68,55
1052,46	69,6
1052,825	69,15
1053,191	70,17
1053,556	68,16
1053,921	68,51
1054,286	70,64
1054,651	68,43
1055,016	70,5
1055,381	70,18
1055,745	67,28
1056,11	70,91
1056,475	70,79
1056,839	68,11
1057,203	69,81
1057,568	69,69
1057,932	70,31
1058,296	69,67
1058,66	69,98
1059,024	70,42
1059,388	70,49
1059,752	68,29
1060,116	70,5
1060,48	71,88
1060,843	67,91
1061,207	69,42
1061,57	70,23
1061,934	70,72
1062,297	69,45
1062,66	69,23
1063,023	69,3
1063,386	69,67
1063,749	70,01
1064,112	69,59
1064,475	69,35
1064,838	70,22
1065,201	70,68
1065,563	69,67
1065,926	68,39
1066,288	70,67
1066,651	70,67
1067,013	68,62
1067,375	70,73
1067,737	71,69
1068,099	69,19
1068,461	69,42
1068,823	67,93
1069,185	69,58
1069,547	70,58
1069,909	67,9
1070,27	68,83
1070,632	69,53
1070,993	71,6
1071,355	70,5
1071,716	68,73
1072,077	70,41
1072,438	69,72
1072,799	69,35
1073,16	69,96
1073,521	65,87
1073,882	70,08
1074,243	69,19
1074,603	70,37
1074,964	68,85
1075,325	68,89
1075,685	67,07
1076,045	68,26
1076,406	70,55
1076,766	67,77
1077,126	68,74
1077,486	71,49
1077,846	70,74
1078,206	69,42
1078,566	69,55
1078,925	68,59
1079,285	69,02
1079,645	70,12
1080,004	68,05
1080,364	68,6
1080,723	67,46
1081,082	69,97
1081,442	68,63
1081,801	68,4
1082,16	68,38
1082,519	69,04
1082,878	68,45
1083,237	68,78
1083,595	69,59
1083,954	70,9
1084,313	67,24
1084,671	68,59
1085,03	68,81
1085,388	67,3
1085,746	70,4
1086,104	69,14
1086,463	67
1086,821	71,91
1087,179	71,59
1087,537	70,02
1087,894	71,17
1088,252	68,61
1088,61	69,25
1088,967	69,46
1089,325	67,73
1089,682	71,01
1090,04	72,79
1090,397	68,01
1090,754	69,94
1091,111	67,29
1091,469	72,38
1091,826	67,03
1092,182	71,2
1092,539	67,28
1092,896	70,44
1093,253	69,91
1093,609	68,43
1093,966	68,91
1094,322	68,56
1094,679	69,78
1095,035	69,29
1095,391	67,2
1095,748	68,19
1096,104	67,98
1096,46	70,71
1096,816	68,23
1097,171	67,91
1097,527	67,9
1097,883	73,79
1098,239	70,28
1098,594	68,64
1098,95	69,15
1099,305	69,91
1099,66	68,34
1100,016	64,8
1100,371	69,89
1100,726	67,93
1101,081	68,04
1101,436	68,77
1101,791	69,57
1102,146	65,99
1102,5	70,41
1102,855	68,36
1103,21	68,49
1103,564	68,94
1103,918	68,52
1104,273	69,74
1104,627	68,14
1104,981	64,71
1105,335	67,19
1105,69	68,63
1106,043	67,35
1106,397	69,13
1106,751	67,36
1107,105	69,23
1107,459	67,64
1107,812	68,34
1108,166	73,41
1108,519	72,1
1108,873	70,64
1109,226	74
1109,579	67,11
1109,932	69,24
1110,285	70,75
1110,638	71,66
1110,991	68,6
1111,344	62,6
1111,697	70,56
1112,05	67,09
1112,402	74,95
1112,755	69,39
1113,107	71,22
1113,46	67,74
1113,812	64,81
1114,164	71,62
1114,517	71,48
1114,869	62,96
1115,221	87,72
1115,573	68,18
1115,924	78,3
