Data from A6__Relative__1__00011.txt Node

Date: Wed Jan 31 17:55:07 CET 2024
User: diatiterra
Spectrometer: HDX00911
Trigger mode: 0
Integration Time (sec): 6,000000E-3
Scans to average: 2
Nonlinearity correction enabled: false
Boxcar width: 0
Storing dark spectrum: false
XAxis mode: Wavelengths
Number of Pixels in Spectrum: 2068
>>>>>Begin Spectral Data<<<<<
194,468	67,92
195,025	63,64
195,581	84,15
196,138	84,62
196,694	57,41
197,251	48,99
197,807	44,49
198,363	40
198,919	45,86
199,474	46,69
200,03	45,49
200,586	50
201,141	45,48
201,696	42,28
202,251	42,42
202,806	46,15
203,361	52,22
203,916	46,53
204,471	51,46
205,025	60,48
205,58	46,79
206,134	48,4
206,688	47,31
207,242	43,81
207,796	54,51
208,35	50,36
208,904	45,17
209,457	35,76
210,011	38,65
210,564	48,59
211,117	45,49
211,67	50,75
212,223	49,32
212,776	52,82
213,329	45,33
213,881	52,45
214,434	50,66
214,986	53,31
215,538	54,04
216,09	43,31
216,642	48,76
217,194	50,76
217,746	48,12
218,297	40,46
218,849	52,94
219,4	52,94
219,951	52,42
220,502	52,03
221,053	51,53
221,604	51,34
222,155	46,43
222,705	39,34
223,256	53,73
223,806	48,43
224,356	49,62
224,906	53,63
225,456	52,33
226,006	41,67
226,556	38,96
227,106	47,18
227,655	42,71
228,204	41,25
228,754	45,42
229,303	44,29
229,852	41,37
230,401	47,76
230,949	43,17
231,498	45,77
232,047	46,75
232,595	49,66
233,143	53,15
233,691	45,35
234,239	37,5
234,787	46,8
235,335	44,4
235,883	45,8
236,43	50,76
236,978	49,23
237,525	44,53
238,072	45,74
238,619	54,55
239,166	42,2
239,713	45,99
240,26	41,43
240,806	52,08
241,353	44,84
241,899	47,2
242,445	45,26
242,991	51,91
243,537	43,94
244,083	55,34
244,629	45,38
245,174	44,69
245,72	41,85
246,265	43,25
246,81	51,6
247,355	43,25
247,9	34,7
248,445	48,02
248,99	45,45
249,534	50,43
250,079	49,25
250,623	47,41
251,168	50,83
251,712	45,31
252,256	52,46
252,8	42,69
253,343	45,71
253,887	43,15
254,43	50
254,974	43,51
255,517	41,78
256,06	60
256,603	31,85
257,146	44,96
257,689	46,46
258,232	53,39
258,774	42,2
259,317	53,39
259,859	47,71
260,401	44,96
260,943	42,91
261,485	44,68
262,027	40,4
262,569	49,25
263,11	46,54
263,652	51,97
264,193	49,59
264,734	48,18
265,275	45,08
265,816	40,08
266,357	43,8
266,898	45,77
267,438	51,97
267,979	39,93
268,519	41,04
269,059	50,47
269,6	49,62
270,14	52,02
270,68	43,12
271,219	51,69
271,759	39,85
272,298	45,11
272,838	41,15
273,377	42,46
273,916	40,65
274,455	47,45
274,994	42,4
275,533	43,48
276,072	47,97
276,61	38,77
277,149	51,67
277,687	41,73
278,225	40,33
278,763	54,82
279,301	37,5
279,839	41,53
280,377	46,72
280,914	43,36
281,452	61,97
281,989	42,56
282,526	42,52
283,064	50,42
283,601	48,65
284,137	42,15
284,674	43,75
285,211	46,93
285,747	41,67
286,284	50
286,82	45,87
287,356	44,08
287,892	48,84
288,428	45,45
288,964	58,4
289,5	50,83
290,035	42,4
290,571	47,48
291,106	47,56
291,641	44,64
292,176	44,14
292,711	50
293,246	37,69
293,781	45,45
294,315	35,92
294,85	55,09
295,384	45,49
295,918	37,5
296,453	36,57
296,987	44,21
297,52	46,28
298,054	41,22
298,588	45,83
299,121	43,28
299,655	46,72
300,188	47,5
300,721	41,46
301,254	35,08
301,787	42,58
302,32	52,85
302,853	36
303,385	51,43
303,918	35,66
304,45	41,92
304,982	38,3
305,514	45,74
306,046	36,36
306,578	38,76
307,11	42,25
307,641	39,22
308,173	47,11
308,704	33,47
309,236	35,34
309,767	46,81
310,298	38,71
310,829	49,57
311,359	46,37
311,89	36,13
312,421	47,75
312,951	42,28
313,481	35,86
314,012	46,64
314,542	44,92
315,072	42,75
315,601	44,8
316,131	42,91
316,661	39,58
317,19	44,81
317,72	53,72
318,249	49,21
318,778	50
319,307	41,02
319,836	41,59
320,365	33,04
320,893	45,04
321,422	52,85
321,95	53,01
322,479	43,51
323,007	45,91
323,535	42,5
324,063	48,8
324,591	53,2
325,118	54,01
325,646	48,74
326,173	36,67
326,701	52,85
327,228	39,22
327,755	43,98
328,282	45,42
328,809	50,85
329,336	43,7
329,862	44,12
330,389	44,53
330,915	51,57
331,441	43,13
331,968	53,6
332,494	46,97
333,02	42,92
333,545	45,9
334,071	55,79
334,597	39,79
335,122	47,78
335,648	47,41
336,173	37,88
336,698	36,08
337,223	44,49
337,748	50
338,272	46,58
338,797	51,45
339,322	41,24
339,846	36,76
340,37	42,74
340,894	42,01
341,419	43,98
341,942	42,66
342,466	40,38
342,99	37,92
343,514	42,61
344,037	41,14
344,56	52,96
345,084	39,73
345,607	43,4
346,13	40,85
346,653	44
347,175	44,55
347,698	32,39
348,221	36,79
348,743	44,41
349,265	37,05
349,787	39,88
350,309	37,66
350,831	41,05
351,353	41,16
351,875	42,11
352,397	43,71
352,918	38,16
353,439	48,34
353,961	37,79
354,482	44,15
355,003	42,73
355,524	42,22
356,044	37,78
356,565	45,18
357,086	40,96
357,606	26,65
358,126	42,02
358,646	35,2
359,167	37,84
359,687	40,11
360,206	37,43
360,726	33,65
361,246	39,89
361,765	39,55
362,285	38
362,804	37,89
363,323	33,9
363,842	35,99
364,361	37,06
364,88	37,19
365,398	39,08
365,917	36,56
366,435	38,54
366,954	39,29
367,472	34,43
367,99	41,47
368,508	41,09
369,026	43,18
369,544	35,53
370,061	40,55
370,579	38,52
371,096	38,53
371,613	37,72
372,131	39,37
372,648	35,63
373,165	33,98
373,681	37,34
374,198	37,7
374,715	40,41
375,231	38,64
375,747	39,48
376,264	33,67
376,78	36,15
377,296	37,36
377,812	37,04
378,327	37,91
378,843	38,4
379,359	37,25
379,874	38,06
380,389	35,17
380,905	32,54
381,42	36,63
381,935	34,91
382,449	34,37
382,964	34,43
383,479	34,91
383,993	35,32
384,508	35,04
385,022	34,33
385,536	33,42
386,05	32,68
386,564	34,08
387,078	31,46
387,592	33,7
388,105	33,1
388,619	30,8
389,132	29,21
389,645	32,76
390,158	28,22
390,671	29,02
391,184	29,66
391,697	29,76
392,21	25,32
392,722	28,17
393,235	30,39
393,747	30,16
394,259	26,4
394,771	26,97
395,283	26,19
395,795	25,75
396,307	27,66
396,818	25,79
397,33	25
397,841	25,75
398,353	24,87
398,864	26,12
399,375	24,54
399,886	25,04
400,397	23,18
400,907	23,76
401,418	22,2
401,928	22,14
402,439	22,77
402,949	19,75
403,459	22,08
403,969	22,73
404,479	19,93
404,989	19,46
405,498	19,69
406,008	19,54
406,517	18,54
407,027	16,33
407,536	15,69
408,045	14,89
408,554	15,13
409,063	15,74
409,572	14,69
410,08	15,45
410,589	14,06
411,097	14,3
411,606	14,09
412,114	14,05
412,622	13,49
413,13	13,24
413,638	12,51
414,145	12,45
414,653	12,16
415,16	11,33
415,668	11,61
416,175	10,99
416,682	10,92
417,189	9,73
417,696	10,62
418,203	10,59
418,71	9,96
419,216	10,65
419,723	9,05
420,229	9,9
420,735	9,64
421,242	9,86
421,748	10,22
422,254	9,48
422,759	9,44
423,265	9,48
423,771	8,68
424,276	8,97
424,781	8,83
425,287	9,29
425,792	9,11
426,297	8,7
426,802	8,92
427,306	8,71
427,811	8,98
428,316	8,72
428,82	8,65
429,324	8,95
429,829	8,99
430,333	8,62
430,837	8,87
431,34	7,98
431,844	8,23
432,348	8,47
432,851	8,1
433,355	8,04
433,858	7,91
434,361	7,89
434,864	7,93
435,367	8,18
435,87	8,16
436,373	8,07
436,876	7,86
437,378	8,84
437,88	7,87
438,383	7,96
438,885	8,33
439,387	8,66
439,889	7,83
440,391	8,59
440,892	7,87
441,394	7,97
441,896	7,68
442,397	7,78
442,898	7,78
443,399	7,87
443,9	8,18
444,401	8,09
444,902	8,19
445,403	8,07
445,903	8,31
446,404	8,21
446,904	8,04
447,405	7,62
447,905	8,33
448,405	7,88
448,905	8,3
449,404	8,25
449,904	8,2
450,404	8,34
450,903	8,53
451,403	8,01
451,902	8,34
452,401	8,51
452,9	8,39
453,399	8,26
453,898	7,88
454,396	8,47
454,895	8,27
455,393	8,72
455,892	8,59
456,39	8,49
456,888	8,24
457,386	8,53
457,884	8,79
458,382	8,47
458,879	8,34
459,377	8,54
459,874	8,45
460,372	8,58
460,869	8,55
461,366	8,35
461,863	8,62
462,36	8,68
462,857	8,71
463,353	8,64
463,85	8,48
464,346	8,51
464,843	8,74
465,339	8,41
465,835	8,91
466,331	8,47
466,827	8,47
467,323	8,7
467,818	8,64
468,314	8,72
468,809	8,81
469,305	8,62
469,8	8,71
470,295	8,48
470,79	8,64
471,285	8,32
471,78	8,48
472,274	8,46
472,769	8,73
473,263	8,54
473,758	8,35
474,252	8,75
474,746	8,62
475,24	8,58
475,734	8,68
476,228	8,65
476,721	8,62
477,215	8,52
477,708	8,59
478,202	8,79
478,695	8,55
479,188	8,49
479,681	8,6
480,174	8,82
480,667	8,73
481,159	8,8
481,652	8,92
482,144	9,06
482,637	9,11
483,129	8,82
483,621	8,9
484,113	9
484,605	8,85
485,097	8,97
485,588	8,93
486,08	8,69
486,571	9,09
487,063	8,92
487,554	8,97
488,045	9,1
488,536	9,23
489,027	9,07
489,518	9,27
490,008	9,24
490,499	9,21
490,989	9,21
491,48	9,31
491,97	9,41
492,46	9,04
492,95	9,73
493,44	9,99
493,93	9,73
494,419	9,73
494,909	9,77
495,398	9,84
495,888	9,59
496,377	9,91
496,866	10,39
497,355	10,07
497,844	10,29
498,333	10,73
498,821	10,69
499,31	10,57
499,798	10,97
500,287	11,03
500,775	11,21
501,263	11,23
501,751	11,2
502,239	11,43
502,727	11,8
503,215	11,89
503,702	11,89
504,19	12,29
504,677	12,54
505,164	12,83
505,651	12,98
506,139	12,82
506,625	12,96
507,112	13,51
507,599	13,54
508,086	13,73
508,572	14,22
509,058	14,14
509,545	14,51
510,031	15,07
510,517	15,21
511,003	15,25
511,489	15,84
511,974	15,88
512,46	16,14
512,946	16,31
513,431	16,81
513,916	17,16
514,401	17,66
514,887	17,83
515,371	18,21
515,856	18,84
516,341	18,8
516,826	19,31
517,31	19,51
517,795	20,12
518,279	19,81
518,763	21,01
519,247	21,23
519,731	21,6
520,215	21,74
520,699	22,13
521,182	22,32
521,666	22,62
522,149	23,16
522,633	23,53
523,116	23,9
523,599	24,67
524,082	24,58
524,565	25,06
525,048	25,16
525,53	25,52
526,013	25,99
526,495	26,36
526,978	26,7
527,46	26,92
527,942	26,81
528,424	27,28
528,906	27,47
529,388	27,31
529,87	28,43
530,351	28,04
530,833	28,74
531,314	28,99
531,795	28,62
532,277	29,04
532,758	29,39
533,238	29,29
533,719	29,23
534,2	29,1
534,681	30,08
535,161	29,92
535,642	30,43
536,122	29,64
536,602	30,32
537,082	30,28
537,562	30,6
538,042	30,44
538,522	30,39
539,001	30,55
539,481	30,43
539,96	30,74
540,44	30,91
540,919	30,87
541,398	30,82
541,877	30,82
542,356	30,8
542,835	30,99
543,313	30,84
543,792	31,47
544,27	31,09
544,749	31,19
545,227	31,29
545,705	31,24
546,183	31,81
546,661	31,43
547,139	31,21
547,616	31,07
548,094	31,58
548,571	31,31
549,049	31,93
549,526	31,5
550,003	31,69
550,48	31,56
550,957	31,62
551,434	31,78
551,911	31,58
552,387	31,53
552,864	31,85
553,34	32
553,817	31,56
554,293	31,7
554,769	31,68
555,245	31,72
555,721	31,76
556,197	31,85
556,672	31,62
557,148	31,78
557,623	31,42
558,099	31,98
558,574	31,88
559,049	31,31
559,524	31,61
559,999	31,46
560,474	31,31
560,948	30,98
561,423	31,6
561,897	31,31
562,372	31,23
562,846	31,01
563,32	31,06
563,794	31,25
564,268	31,13
564,742	30,35
565,216	30,39
565,69	30,32
566,163	30,45
566,636	30,04
567,11	29,98
567,583	29,85
568,056	29,73
568,529	29,79
569,002	29,27
569,475	29,47
569,947	28,87
570,42	29,04
570,892	28,53
571,365	28,28
571,837	28,26
572,309	28,11
572,781	28
573,253	28
573,725	27,63
574,197	27,48
574,668	27,18
575,14	26,93
575,611	26,62
576,082	26,46
576,554	26,58
577,025	26,74
577,496	25,73
577,967	25,97
578,437	26,21
578,908	25,48
579,379	25,38
579,849	25,36
580,319	25,12
580,79	24,89
581,26	25,2
581,73	24,83
582,2	24,37
582,669	24,69
583,139	24,6
583,609	24,49
584,078	24,49
584,548	23,95
585,017	24,08
585,486	23,67
585,955	23,87
586,424	23,61
586,893	23,47
587,362	23,27
587,83	23,55
588,299	23,24
588,767	23,2
589,236	23,13
589,704	22,86
590,172	22,99
590,64	22,64
591,108	22,83
591,576	22,75
592,043	22,55
592,511	22,55
592,978	22,45
593,446	22,11
593,913	22,1
594,38	22,18
594,847	22,07
595,314	22,19
595,781	22,22
596,248	21,99
596,715	21,87
597,181	21,82
597,647	21,96
598,114	21,87
598,58	21,48
599,046	21,69
599,512	21,8
599,978	21,69
600,444	21,77
600,91	21,65
601,375	21,53
601,841	21,31
602,306	21,69
602,771	21,28
603,236	21,03
603,702	21,36
604,167	21,3
604,631	21,23
605,096	21,24
605,561	20,92
606,025	21,22
606,49	20,69
606,954	20,64
607,418	20,53
607,882	20,67
608,347	20,56
608,81	20,33
609,274	20,28
609,738	20,15
610,202	20,16
610,665	20,08
611,128	19,8
611,592	19,77
612,055	19,51
612,518	19,75
612,981	19,74
613,444	19,58
613,907	19,25
614,369	19,16
614,832	19,3
615,294	19,29
615,757	19,17
616,219	19,19
616,681	18,79
617,143	18,88
617,605	18,65
618,067	18,37
618,529	18,39
618,99	18,56
619,452	18,12
619,913	18,28
620,375	18,15
620,836	18,26
621,297	18,15
621,758	17,95
622,219	17,75
622,68	17,89
623,14	17,82
623,601	17,53
624,061	17,59
624,522	17,74
624,982	17,67
625,442	17,55
625,902	17,56
626,362	17,74
626,822	17,47
627,282	17,77
627,742	17,44
628,201	17,23
628,661	17,43
629,12	17,45
629,579	17,27
630,038	17,18
630,497	17,17
630,956	17,29
631,415	17
631,874	17,14
632,332	17,23
632,791	17,01
633,249	16,89
633,708	16,89
634,166	16,68
634,624	16,51
635,082	16,76
635,54	16,66
635,998	16,26
636,455	16,18
636,913	16,12
637,37	15,86
637,828	15,74
638,285	15,71
638,742	15,52
639,199	15,3
639,656	15
640,113	15,03
640,57	15,01
641,027	14,54
641,483	14,46
641,94	14,43
642,396	14,28
642,852	14,15
643,309	13,84
643,765	13,67
644,221	13,47
644,676	13,25
645,132	13,23
645,588	13,1
646,043	12,88
646,499	12,85
646,954	12,58
647,409	12,6
647,864	12,34
648,319	12,25
648,774	12,22
649,229	12,05
649,684	11,92
650,139	11,92
650,593	11,8
651,047	11,66
651,502	11,72
651,956	11,7
652,41	11,54
652,864	11,46
653,318	11,51
653,772	11,48
654,225	11,41
654,679	11,48
655,133	11,4
655,586	11,31
656,039	11,27
656,492	11,19
656,946	11,13
657,399	11,07
657,851	11,11
658,304	10,82
658,757	10,88
659,209	10,8
659,662	10,72
660,114	10,57
660,567	10,65
661,019	10,4
661,471	10,32
661,923	10,29
662,375	9,99
662,826	10,07
663,278	9,93
663,73	9,77
664,181	9,89
664,632	9,78
665,084	9,8
665,535	9,68
665,986	9,58
666,437	9,56
666,888	9,64
667,338	9,53
667,789	9,57
668,24	9,41
668,69	9,41
669,14	9,42
669,591	9,41
670,041	9,5
670,491	9,54
670,941	9,36
671,391	9,58
671,84	9,45
672,29	9,41
672,74	9,66
673,189	9,73
673,638	9,75
674,088	9,93
674,537	9,88
674,986	9,85
675,435	9,97
675,883	10,28
676,332	10,3
676,781	10,19
677,229	10,41
677,678	10,59
678,126	10,78
678,574	10,75
679,022	10,85
679,47	10,88
679,918	11,32
680,366	11,06
680,814	11,41
681,261	11,43
681,709	11,71
682,156	11,83
682,604	12,17
683,051	12,18
683,498	12,49
683,945	12,43
684,392	12,54
684,839	12,88
685,286	13,03
685,732	13,3
686,179	13,52
686,625	13,63
687,071	13,92
687,518	14,28
687,964	14,4
688,41	14,78
688,856	15,23
689,301	15,74
689,747	15,83
690,193	16,44
690,638	16,8
691,084	17,27
691,529	17,7
691,974	18,26
692,419	18,79
692,864	19,55
693,309	19,98
693,754	20,55
694,199	21,19
694,643	21,74
695,088	22,32
695,532	23,12
695,977	23,61
696,421	24,33
696,865	24,78
697,309	25,28
697,753	25,6
698,197	26,71
698,64	27,28
699,084	27,67
699,527	28,41
699,971	28,78
700,414	29,59
700,857	29,61
701,3	30,28
701,743	30,86
702,186	31,42
702,629	31,77
703,072	32,41
703,515	32,72
703,957	33,14
704,399	33,6
704,842	34,18
705,284	34,61
705,726	34,81
706,168	35,1
706,61	35,8
707,052	35,85
707,494	36,53
707,935	36,74
708,377	37,18
708,818	37,78
709,26	37,99
709,701	38,14
710,142	38,74
710,583	38,6
711,024	39,1
711,465	39,57
711,905	39,95
712,346	39,91
712,787	40,06
713,227	40,28
713,667	40,97
714,108	40,98
714,548	41,4
714,988	41,77
715,428	42,24
715,868	42,34
716,307	42,74
716,747	42,53
717,186	42,67
717,626	42,81
718,065	43,78
718,504	43,56
718,944	43,82
719,383	44,11
719,822	44,15
720,261	44,05
720,699	44,44
721,138	44,64
721,576	44,88
722,015	44,99
722,453	45,21
722,892	45,55
723,33	45,66
723,768	45,88
724,206	45,89
724,644	45,58
725,081	45,99
725,519	46,13
725,957	46,22
726,394	46,72
726,832	46,18
727,269	46,38
727,706	46,8
728,143	46,71
728,58	46,99
729,017	46,73
729,454	47,05
729,89	47,13
730,327	47,14
730,764	47,62
731,2	47,3
731,636	47,41
732,072	47,55
732,509	47,67
732,945	47,6
733,38	47,48
733,816	47,77
734,252	47,81
734,688	47,95
735,123	47,9
735,559	47,85
735,994	47,66
736,429	48,27
736,864	48
737,299	47,87
737,734	48,44
738,169	47,69
738,604	47,93
739,038	48,04
739,473	48,18
739,907	48,08
740,342	47,89
740,776	48,38
741,21	47,91
741,644	48,16
742,078	48,27
742,512	48,1
742,946	48,13
743,379	48,28
743,813	48,05
744,246	47,9
744,68	48,21
745,113	47,8
745,546	47,6
745,979	47,87
746,412	47,56
746,845	47,54
747,278	48,01
747,711	47,53
748,143	47,97
748,576	47,8
749,008	47,86
749,441	47,55
749,873	47,41
750,305	47,56
750,737	47,44
751,169	47,45
751,601	47,25
752,032	47,04
752,464	47,17
752,896	47,07
753,327	47,26
753,758	46,97
754,19	47,28
754,621	46,96
755,052	46,85
755,483	46,91
755,914	47,16
756,344	46,94
756,775	46,73
757,206	47,11
757,636	46,94
758,066	46,86
758,497	46,67
758,927	47,18
759,357	46,72
759,787	46,78
760,217	46,47
760,647	46,47
761,076	46,53
761,506	46,41
761,935	46,69
762,365	46,31
762,794	46,17
763,223	46,57
763,653	46,54
764,082	46,03
764,51	46,37
764,939	46,27
765,368	45,95
765,797	46,32
766,225	45,92
766,654	46,19
767,082	45,79
767,51	45,93
767,938	45,55
768,367	45,84
768,795	45,54
769,222	46
769,65	45,8
770,078	45,87
770,505	45,86
770,933	45,81
771,36	46,07
771,788	45,92
772,215	45,75
772,642	45,62
773,069	45,67
773,496	45,55
773,923	45,52
774,349	45,52
774,776	45,29
775,203	45,28
775,629	45,48
776,055	45,31
776,482	45,23
776,908	45,08
777,334	45,03
777,76	45,31
778,186	45,19
778,611	45,29
779,037	45,43
779,463	45,25
779,888	45,46
780,314	45,18
780,739	45,2
781,164	45,21
781,589	44,97
782,014	45,19
782,439	45,02
782,864	45,14
783,289	45,43
783,713	44,73
784,138	45,23
784,562	44,66
784,987	44,95
785,411	44,6
785,835	44,79
786,259	44,79
786,683	45,26
787,107	45,05
787,531	44,89
787,954	44,9
788,378	44,93
788,802	44,98
789,225	44,84
789,648	44,9
790,071	44,69
790,495	45,01
790,918	44,96
791,34	44,84
791,763	44,84
792,186	44,64
792,609	44,64
793,031	44,66
793,454	44,67
793,876	45,02
794,298	44,64
794,721	44,63
795,143	44,71
795,565	44,5
795,986	44,57
796,408	44,61
796,83	44,45
797,252	44,51
797,673	44,67
798,094	44,9
798,516	44,71
798,937	44,79
799,358	44,34
799,779	44,65
800,2	44,71
800,621	44,32
801,042	44,17
801,462	44,89
801,883	44,78
802,303	44,15
802,724	44,6
803,144	44,67
803,564	44,63
803,984	44,65
804,404	44,49
804,824	44,63
805,244	44,58
805,664	44,67
806,084	44,69
806,503	44,56
806,923	44,51
807,342	44,37
807,761	44,27
808,18	44,44
808,599	44,29
809,018	44,38
809,437	44,49
809,856	44,18
810,275	44,44
810,693	44,38
811,112	44,76
811,53	44,45
811,949	44,41
812,367	44,62
812,785	44,59
813,203	44,59
813,621	44,34
814,039	44,56
814,457	44,34
814,874	44,08
815,292	44,4
815,709	44,18
816,127	44,38
816,544	44,3
816,961	44,41
817,378	44,68
817,795	44,51
818,212	44,32
818,629	44,31
819,046	44,13
819,462	44,05
819,879	44,19
820,295	44
820,712	44,2
821,128	44,12
821,544	44,19
821,96	44,15
822,376	44,66
822,792	43,95
823,208	44,42
823,624	44,51
824,039	43,95
824,455	44,38
824,87	43,83
825,286	44,19
825,701	44,27
826,116	44,25
826,531	44,49
826,946	44,09
827,361	44,05
827,776	44
828,19	44,14
828,605	43,9
829,02	44,15
829,434	44,22
829,848	43,87
830,263	44,25
830,677	44,1
831,091	43,75
831,505	43,72
831,919	44,12
832,332	44,22
832,746	44,26
833,16	43,89
833,573	43,92
833,987	44,37
834,4	43,79
834,813	43,86
835,226	43,63
835,639	43,77
836,052	43,62
836,465	44,1
836,878	43,79
837,29	43,87
837,703	43,92
838,116	43,86
838,528	43,84
838,94	44,11
839,352	43,74
839,765	43,9
840,177	43,7
840,589	43,72
841	43,54
841,412	44,09
841,824	43,87
842,235	43,76
842,647	43,91
843,058	44,23
843,47	43,89
843,881	44,2
844,292	43,67
844,703	44,28
845,114	43,7
845,525	44,04
845,935	43,8
846,346	43,87
846,757	43,8
847,167	43,66
847,577	43,57
847,988	43,54
848,398	43,84
848,808	43,88
849,218	44,05
849,628	43,68
850,038	43,83
850,448	43,61
850,857	44,03
851,267	43,7
851,676	43,59
852,086	43,93
852,495	43,53
852,904	43,67
853,313	43,65
853,722	43,99
854,131	43,77
854,54	43,63
854,949	43,27
855,357	43,77
855,766	43,67
856,174	43,56
856,583	43,87
856,991	43,58
857,399	44,24
857,807	43,52
858,215	43,83
858,623	44,09
859,031	43,3
859,439	44,04
859,846	43,86
860,254	43,38
860,661	44,18
861,069	43,88
861,476	43,86
861,883	43,44
862,29	43,47
862,697	43,79
863,104	43,54
863,511	43,58
863,918	43,59
864,325	43,61
864,731	43,87
865,138	43,47
865,544	43,18
865,95	43,67
866,357	43,49
866,763	43,54
867,169	43,56
867,575	43,4
867,98	43,36
868,386	43,96
868,792	43,8
869,197	43,06
869,603	43
870,008	43,67
870,414	43,9
870,819	43,73
871,224	43,67
871,629	43,51
872,034	43,39
872,439	43,26
872,844	43,84
873,248	43,48
873,653	43,39
874,057	43,13
874,462	43,57
874,866	43,39
875,27	43,5
875,674	43,98
876,078	43,62
876,482	43,49
876,886	43,28
877,29	43,19
877,694	43,4
878,097	43,68
878,501	43,24
878,904	43,25
879,308	43,37
879,711	43,59
880,114	43,79
880,517	43,53
880,92	43,82
881,323	43,5
881,726	43,59
882,128	43,26
882,531	43,42
882,934	43,54
883,336	43,54
883,738	43,6
884,141	43,37
884,543	43,54
884,945	43,32
885,347	43,18
885,749	43,63
886,151	43,65
886,552	43,38
886,954	43,34
887,355	43,43
887,757	43,23
888,158	43,49
888,56	43,32
888,961	43,69
889,362	43,32
889,763	43,37
890,164	43,6
890,565	43,13
890,965	43,5
891,366	43,58
891,767	43,77
892,167	43,33
892,567	43,5
892,968	43,47
893,368	43,24
893,768	43,42
894,168	43,32
894,568	43,09
894,968	43,38
895,368	43,48
895,767	43,03
896,167	43,11
896,566	43,1
896,966	43,55
897,365	43,12
897,764	43,55
898,164	43,51
898,563	43,54
898,962	43,36
899,361	43,37
899,759	43,16
900,158	42,67
900,557	43,29
900,955	43,17
901,354	43,07
901,752	43,47
902,15	43,13
902,548	43,24
902,947	43,34
903,345	43,48
903,742	42,96
904,14	43,4
904,538	43,14
904,936	43,46
905,333	42,94
905,731	43,11
906,128	43,07
906,525	43,19
906,923	43,37
907,32	43,03
907,717	43,35
908,114	43,71
908,511	43,23
908,907	43,78
909,304	43,52
909,701	43,32
910,097	43,45
910,494	43,23
910,89	43,95
911,286	43,08
911,682	43,48
912,078	43,26
912,474	43,67
912,87	43,46
913,266	42,76
913,662	43,12
914,058	42,93
914,453	43,1
914,849	42,99
915,244	42,77
915,639	43,27
916,034	43,14
916,43	43,34
916,825	43,55
917,22	43,44
917,614	43,41
918,009	43,47
918,404	43,18
918,798	43,32
919,193	43,29
919,587	43,34
919,982	43,12
920,376	43,1
920,77	42,8
921,164	42,87
921,558	42,83
921,952	42,97
922,346	42,76
922,74	43,08
923,133	43,26
923,527	42,98
923,92	42,99
924,314	42,91
924,707	42,78
925,1	43,08
925,493	43,36
925,886	43,04
926,279	42,72
926,672	42,66
927,065	42,89
927,457	42,87
927,85	42,65
928,243	42,84
928,635	43,09
929,027	42,87
929,42	43,23
929,812	42,75
930,204	43,5
930,596	43,23
930,988	43,26
931,379	43,05
931,771	43,08
932,163	43,15
932,554	42,88
932,946	42,46
933,337	42,71
933,729	43,49
934,12	42,65
934,511	43,11
934,902	42,99
935,293	42,4
935,684	43,35
936,075	43,55
936,465	43,07
936,856	42,82
937,246	43,64
937,637	43,07
938,027	42,53
938,417	42,3
938,808	42,73
939,198	41,87
939,588	42,53
939,978	43,05
940,368	42,51
940,757	42,32
941,147	42,59
941,537	42,18
941,926	43,49
942,315	43,42
942,705	42,65
943,094	42,09
943,483	42,92
943,872	42,63
944,261	42,76
944,65	42,16
945,039	43,2
945,428	43,52
945,816	42,59
946,205	43
946,593	42,53
946,982	42,73
947,37	42,49
947,758	42,64
948,146	42,95
948,534	43,09
948,922	42,83
949,31	41,94
949,698	42,42
950,086	42,4
950,473	42,46
950,861	42,55
951,248	42,41
951,636	42,38
952,023	42,07
952,41	41,99
952,797	42,84
953,184	42,15
953,571	42,57
953,958	41,55
954,345	42,38
954,731	42,67
955,118	42,42
955,505	41,77
955,891	41,53
956,277	42,15
956,664	41,97
957,05	41,95
957,436	41,41
957,822	40,99
958,208	41,73
958,594	41,83
958,979	41,96
959,365	41,86
959,751	42,04
960,136	41,82
960,522	42,06
960,907	42,5
961,292	41,91
961,677	41,92
962,062	42,06
962,447	42,25
962,832	42,23
963,217	42,04
963,602	42,7
963,986	41,94
964,371	41,58
964,756	41,37
965,14	41,96
965,524	42,38
965,908	42,8
966,293	41,82
966,677	41,77
967,061	42,28
967,445	42,02
967,828	42,12
968,212	42,24
968,596	41,43
968,979	42,11
969,363	42,26
969,746	42,58
970,129	42,2
970,513	41,94
970,896	42,34
971,279	41,93
971,662	41,78
972,045	41,59
972,428	42,51
972,81	42,21
973,193	42,25
973,575	42,08
973,958	41,5
974,34	42,05
974,723	42,32
975,105	41,64
975,487	41,96
975,869	41,75
976,251	42,57
976,633	41,78
977,015	41,31
977,396	42,06
977,778	41,83
978,16	41,53
978,541	41,98
978,922	42,26
979,304	42,46
979,685	42,5
980,066	42,19
980,447	41,93
980,828	41,73
981,209	42,1
981,59	42,19
981,97	42,28
982,351	41,83
982,732	41,93
983,112	41,95
983,493	42,33
983,873	42,03
984,253	41,57
984,633	42,54
985,013	42,16
985,393	42,12
985,773	42,28
986,153	42,49
986,533	42,83
986,912	42,39
987,292	43,08
987,671	41,82
988,051	42,71
988,43	42,06
988,809	41,82
989,188	42,79
989,567	42,61
989,946	42,13
990,325	42,26
990,704	42,79
991,083	42,15
991,461	42,65
991,84	42,38
992,218	42,18
992,597	42,24
992,975	42,69
993,353	41,95
993,732	42,18
994,11	42,58
994,488	42,94
994,866	41,73
995,243	42,55
995,621	42,31
995,999	41,94
996,376	42,32
996,754	42,35
997,131	41,94
997,509	41,99
997,886	42,08
998,263	42,82
998,64	41,88
999,017	42,51
999,394	42,17
999,771	42,85
1000,148	42,07
1000,524	41,81
1000,901	41,85
1001,277	42,39
1001,654	42,42
1002,03	42,41
1002,406	42,25
1002,783	41,88
1003,159	42,23
1003,535	42,22
1003,911	42,08
1004,286	42,15
1004,662	42,65
1005,038	42,36
1005,414	42,58
1005,789	42,07
1006,164	42,19
1006,54	42,25
1006,915	41,97
1007,29	41,84
1007,665	42,49
1008,04	41,94
1008,415	42,66
1008,79	42,13
1009,165	41,57
1009,54	42,46
1009,914	42,72
1010,289	42,26
1010,663	42,29
1011,038	42,42
1011,412	42,36
1011,786	42,67
1012,16	42,24
1012,535	42,12
1012,909	42,92
1013,282	42,64
1013,656	42,46
1014,03	42,03
1014,404	42,62
1014,777	41,64
1015,151	42,66
1015,524	42,19
1015,897	42,02
1016,271	42,48
1016,644	42,16
1017,017	42,31
1017,39	42,2
1017,763	41,87
1018,136	42,28
1018,508	41,64
1018,881	42,49
1019,254	42,48
1019,626	42,58
1019,999	42,23
1020,371	42,59
1020,743	41,92
1021,116	42,18
1021,488	42,87
1021,86	43,32
1022,232	43,3
1022,604	42,31
1022,975	42,6
1023,347	42,2
1023,719	42,73
1024,09	42,64
1024,462	42,33
1024,833	42,6
1025,204	42,95
1025,576	41,74
1025,947	41,89
1026,318	42,08
1026,689	42,71
1027,06	42,67
1027,431	42,81
1027,801	43,04
1028,172	41,84
1028,543	43,43
1028,913	43,01
1029,284	42,4
1029,654	42,27
1030,024	42,62
1030,394	42,17
1030,764	42,1
1031,135	42,07
1031,504	42,24
1031,874	42,64
1032,244	42,58
1032,614	42,86
1032,983	41,64
1033,353	42,61
1033,722	42,89
1034,092	42,97
1034,461	41,89
1034,83	42,11
1035,2	42,86
1035,569	42,43
1035,938	42,33
1036,307	43,19
1036,675	42,54
1037,044	43,47
1037,413	43,63
1037,781	41,99
1038,15	43,47
1038,518	42,89
1038,887	43,17
1039,255	41,96
1039,623	42,43
1039,991	42,77
1040,359	41,7
1040,727	43,01
1041,095	42,69
1041,463	43,23
1041,831	43,21
1042,198	42,17
1042,566	43,89
1042,933	42,5
1043,301	42,59
1043,668	42,63
1044,035	41,2
1044,402	42,51
1044,77	42,32
1045,137	43,2
1045,503	42,91
1045,87	42,56
1046,237	42,07
1046,604	43,26
1046,97	42,01
1047,337	43,05
1047,703	43,16
1048,07	42,79
1048,436	42,83
1048,802	43,83
1049,168	44,17
1049,534	42,24
1049,9	43,45
1050,266	43,25
1050,632	42,29
1050,998	43,08
1051,364	42,67
1051,729	43,3
1052,095	43,46
1052,46	42,82
1052,825	42,79
1053,191	42,51
1053,556	41,61
1053,921	41,52
1054,286	42,88
1054,651	42,51
1055,016	44,56
1055,381	42,9
1055,745	41,55
1056,11	43,61
1056,475	43,34
1056,839	42,65
1057,203	42,66
1057,568	42,97
1057,932	43,89
1058,296	42,14
1058,66	42,98
1059,024	42,99
1059,388	43,86
1059,752	42,55
1060,116	43,18
1060,48	45,52
1060,843	41,68
1061,207	43,56
1061,57	41,74
1061,934	43,49
1062,297	42,41
1062,66	42,73
1063,023	43,21
1063,386	43,87
1063,749	43,72
1064,112	41,98
1064,475	43,79
1064,838	42,97
1065,201	41,97
1065,563	43,35
1065,926	41,87
1066,288	44,14
1066,651	43,31
1067,013	43,55
1067,375	43,05
1067,737	43,45
1068,099	43,18
1068,461	43,77
1068,823	42,87
1069,185	43,35
1069,547	42,51
1069,909	40,86
1070,27	42,9
1070,632	42,37
1070,993	44,22
1071,355	42,91
1071,716	42,72
1072,077	42,9
1072,438	42,87
1072,799	42,42
1073,16	42,63
1073,521	42,58
1073,882	43,64
1074,243	43,44
1074,603	43,15
1074,964	42,38
1075,325	41
1075,685	41,71
1076,045	41,67
1076,406	43,6
1076,766	41,28
1077,126	43,45
1077,486	43,09
1077,846	42,98
1078,206	43,05
1078,566	42,99
1078,925	42,54
1079,285	42,36
1079,645	43,34
1080,004	41,14
1080,364	42,87
1080,723	42,42
1081,082	43,57
1081,442	41,85
1081,801	42,22
1082,16	41,63
1082,519	41,08
1082,878	43,13
1083,237	41,67
1083,595	43,44
1083,954	42,78
1084,313	40,64
1084,671	41,96
1085,03	42,56
1085,388	41,68
1085,746	43,58
1086,104	41,63
1086,463	43,49
1086,821	43,1
1087,179	42,48
1087,537	43,09
1087,894	42,53
1088,252	40,28
1088,61	40,74
1088,967	41,23
1089,325	41,87
1089,682	41,82
1090,04	42,99
1090,397	42,24
1090,754	42,51
1091,111	43,27
1091,469	43,67
1091,826	41,88
1092,182	44,91
1092,539	41,75
1092,896	43,02
1093,253	41,79
1093,609	42,93
1093,966	42,6
1094,322	41,95
1094,679	41,67
1095,035	43,02
1095,391	41,45
1095,748	43,03
1096,104	40,73
1096,46	42,54
1096,816	42,36
1097,171	42,89
1097,527	43,25
1097,883	43,58
1098,239	40,51
1098,594	42
1098,95	43,55
1099,305	41,91
1099,66	40,22
1100,016	39,41
1100,371	45,27
1100,726	42,55
1101,081	40,16
1101,436	43,34
1101,791	43,13
1102,146	42,2
1102,5	43,59
1102,855	41,93
1103,21	41,22
1103,564	43,05
1103,918	43,04
1104,273	43,48
1104,627	42,79
1104,981	40,18
1105,335	42,54
1105,69	44,5
1106,043	41,68
1106,397	39,75
1106,751	41,32
1107,105	43,14
1107,459	41,91
1107,812	43,6
1108,166	43,21
1108,519	41,52
1108,873	40,53
1109,226	45,61
1109,579	40,3
1109,932	43,38
1110,285	40,84
1110,638	46,62
1110,991	43,39
1111,344	39,71
1111,697	42,83
1112,05	41,84
1112,402	44,73
1112,755	41,91
1113,107	43,31
1113,46	40,83
1113,812	41,49
1114,164	42,68
1114,517	43,06
1114,869	50,93
1115,221	47,37
1115,573	47,73
1115,924	60,38
