Data from C4___Relative__0__00033.txt Node

Date: Wed Jan 31 18:20:52 CET 2024
User: diatiterra
Spectrometer: HDX00911
Trigger mode: 0
Integration Time (sec): 6,000000E-3
Scans to average: 2
Nonlinearity correction enabled: false
Boxcar width: 0
Storing dark spectrum: false
XAxis mode: Wavelengths
Number of Pixels in Spectrum: 2068
>>>>>Begin Spectral Data<<<<<
194,468	239,62
195,025	154,55
195,581	212,2
196,138	239,74
196,694	148,15
197,251	121,72
197,807	109,45
198,363	116
198,919	100
199,474	101,84
200,03	112,7
200,586	120,54
201,141	94,52
201,696	108,05
202,251	104,92
202,806	99,65
203,361	104,44
203,916	101,74
204,471	106,57
205,025	117,34
205,58	100,36
206,134	114,4
206,688	106,92
207,242	126,99
207,796	113,53
208,35	101,81
208,904	108,97
209,457	95,14
210,011	98,94
210,564	105,28
211,117	105,26
211,67	110,82
212,223	95,21
212,776	112,5
213,329	103
213,881	130,88
214,434	101,64
214,986	109,5
215,538	113,6
216,09	90,14
216,642	120,66
217,194	113,64
217,746	105,26
218,297	104,58
218,849	102,57
219,4	116,81
219,951	116,94
220,502	107,43
221,053	112,6
221,604	113,76
222,155	111,9
222,705	104,78
223,256	102,24
223,806	114,57
224,356	111,15
224,906	121,37
225,456	114,73
226,006	107,94
226,556	88,31
227,106	117,34
227,655	100,35
228,204	118,75
228,754	95,07
229,303	101,07
229,852	92,81
230,401	111,57
230,949	98,56
231,498	100,35
232,047	91,88
232,595	106,9
233,143	108,66
233,691	109,69
234,239	95,71
234,787	110
235,335	99,63
235,883	97,2
236,43	103,03
236,978	110,38
237,525	100
238,072	93,62
238,619	110,23
239,166	85,11
239,713	101,46
240,26	97,5
240,806	103,12
241,353	108,73
241,899	97,9
242,445	101,09
242,991	108,78
243,537	104,92
244,083	111,83
244,629	106,54
245,174	100,88
245,72	104,07
246,265	98,41
246,81	108
247,355	114,68
247,9	101,49
248,445	109,13
248,99	104,55
249,534	120
250,079	101,88
250,623	101,85
251,168	112,4
251,712	105,86
252,256	112,7
252,8	103,85
253,343	101,43
253,887	105,65
254,43	102,29
254,974	116,03
255,517	97,26
256,06	111,92
256,603	96,3
257,146	99,61
257,689	110,24
258,232	121,19
258,774	100,35
259,317	117,37
259,859	119,27
260,401	111,63
260,943	94,68
261,485	95,74
262,027	111,2
262,569	108,21
263,11	108,08
263,652	125,2
264,193	110,74
264,734	108,39
265,275	112,3
265,816	108,4
266,357	110,08
266,898	108,08
267,438	114,57
267,979	99,64
268,519	97,01
269,059	121,03
269,6	109,4
270,14	125,81
270,68	106,16
271,219	115,68
271,759	96,99
272,298	104,14
272,838	102,31
273,377	115,87
273,916	98,56
274,455	112,04
274,994	109,2
275,533	100,72
276,072	109,76
276,61	102,17
277,149	117,08
277,687	100
278,225	97,33
278,763	122,81
279,301	105,42
279,839	110,48
280,377	107,38
280,914	98,95
281,452	121,37
281,989	111,98
282,526	109,06
283,064	121,01
283,601	95,95
284,137	103,31
284,674	112,92
285,211	122,81
285,747	106,82
286,284	118,47
286,82	100,83
287,356	99,01
287,892	111,24
288,428	109,92
288,964	120,59
289,5	113,64
290,035	112,4
290,571	104,2
291,106	111,79
291,641	125,89
292,176	116,8
292,711	120,73
293,246	102,31
293,781	116,94
294,315	89,79
294,85	128,7
295,384	108,61
295,918	95,59
296,453	97,39
296,987	108,26
297,52	108,26
298,054	95,04
298,588	111,67
299,121	93,66
299,655	102,92
300,188	109,58
300,721	106,1
301,254	108,06
301,787	103,12
302,32	121,14
302,853	105,2
303,385	106,07
303,918	100,39
304,45	105,38
304,982	86,88
305,514	106,98
306,046	100
306,578	103,1
307,11	100,39
307,641	107,33
308,173	102,07
308,704	103,72
309,236	97,74
309,767	99,65
310,298	99,6
310,829	110,87
311,359	107,66
311,89	106,3
312,421	118,92
312,951	113,82
313,481	96,21
314,012	101,49
314,542	111,02
315,072	103,82
315,601	99,6
316,131	114,17
316,661	102,5
317,19	107,04
317,72	109,09
318,249	109,52
318,778	103,91
319,307	95,31
319,836	113,27
320,365	109,13
320,893	103,31
321,422	106,91
321,95	111,28
322,479	107,63
323,007	124,09
323,535	97,14
324,063	115,6
324,591	108
325,118	105,11
325,646	111,76
326,173	107,08
326,701	111,79
327,228	118,53
327,755	98,87
328,282	98,85
328,809	111,02
329,336	109,45
329,862	98,53
330,389	91,02
330,915	100
331,441	104,58
331,968	119,37
332,494	102,27
333,02	102,92
333,545	103,73
334,071	115,29
334,597	90,49
335,122	97,41
335,648	111,64
336,173	103,79
336,698	85,44
337,223	97,06
337,748	90,97
338,272	94,18
338,797	102,9
339,322	87,23
339,846	91,18
340,37	107,66
340,894	96,18
341,419	94,74
341,942	90,21
342,466	84,29
342,99	89,6
343,514	92,25
344,037	85,13
344,56	101,85
345,084	89,04
345,607	90,97
346,13	88,38
346,653	98,33
347,175	94,55
347,698	85,85
348,221	87,5
348,743	84,47
349,265	91,37
349,787	86,81
350,309	84,81
350,831	75,93
351,353	76,83
351,875	82,16
352,397	95,1
352,918	93,09
353,439	87,75
353,961	75,87
354,482	82,75
355,003	83,72
355,524	75,83
356,044	78,69
356,565	90,06
357,086	84,18
357,606	72,53
358,126	74,73
358,646	76,02
359,167	82,7
359,687	77,12
360,206	70,49
360,726	68,25
361,246	78,46
361,765	73,45
362,285	75,25
362,804	82,89
363,323	64,88
363,842	75,27
364,361	69,9
364,88	71,18
365,398	65,72
365,917	69,58
366,435	77,86
366,954	70,76
367,472	67,92
367,99	77,01
368,508	67
369,026	72,05
369,544	64,47
370,061	65,34
370,579	65,78
371,096	73,85
371,613	62,28
372,131	62,6
372,648	62,6
373,165	64,45
373,681	61,81
374,198	67,19
374,715	61,65
375,231	63,45
375,747	56,72
376,264	53,23
376,78	59,89
377,296	62,45
377,812	57,31
378,327	59,77
378,843	57,34
379,359	60,76
379,874	58,48
380,389	60,25
380,905	50,3
381,42	55,17
381,935	54,88
382,449	54,57
382,964	52,57
383,479	48,28
383,993	50,69
384,508	49,21
385,022	48,58
385,536	47,24
386,05	45,67
386,564	50,5
387,078	46,65
387,592	45,74
388,105	47,52
388,619	46,76
389,132	44,83
389,645	42,64
390,158	38,41
390,671	44,6
391,184	42,51
391,697	38,38
392,21	37,34
392,722	40,48
393,235	41,46
393,747	39,2
394,259	38,86
394,771	36,93
395,283	36,17
395,795	36,85
396,307	36,64
396,818	36,84
397,33	33,67
397,841	36,28
398,353	33,99
398,864	33,25
399,375	33,72
399,886	33,79
400,397	31,03
400,907	31,87
401,418	29,51
401,928	27,8
402,439	29,45
402,949	25,56
403,459	28,77
403,969	27,52
404,479	25,94
404,989	25,03
405,498	24,83
406,008	24,44
406,517	23,27
407,027	21,67
407,536	21,25
408,045	20,57
408,554	20,29
409,063	20,27
409,572	18,33
410,08	17,69
410,589	17,57
411,097	17,76
411,606	18,1
412,114	16,8
412,622	15,33
413,13	16,03
413,638	15,98
414,145	14,12
414,653	14,51
415,16	14,38
415,668	13,41
416,175	13,09
416,682	12,73
417,189	12,09
417,696	12,14
418,203	12,32
418,71	11,94
419,216	12,07
419,723	11,12
420,229	11,8
420,735	10,49
421,242	10,96
421,748	10,91
422,254	10,66
422,759	10,28
423,265	10,33
423,771	10,75
424,276	10,38
424,781	9,82
425,287	10,26
425,792	9,81
426,297	9,67
426,802	9,26
427,306	9,65
427,811	9,37
428,316	9,25
428,82	9,08
429,324	9,69
429,829	9,46
430,333	9,1
430,837	8,94
431,34	9,17
431,844	8,63
432,348	8,25
432,851	8,39
433,355	8,87
433,858	8,66
434,361	8,24
434,864	8,85
435,367	8,37
435,87	8,64
436,373	8,54
436,876	8,66
437,378	8,49
437,88	8,15
438,383	8,25
438,885	8,06
439,387	8,35
439,889	8,41
440,391	8,55
440,892	8,01
441,394	8,12
441,896	8,22
442,397	8,17
442,898	7,97
443,399	8,21
443,9	7,98
444,401	7,85
444,902	7,73
445,403	8,35
445,903	8,43
446,404	8,34
446,904	8,55
447,405	7,7
447,905	8,18
448,405	8,34
448,905	8,44
449,404	8,88
449,904	8,53
450,404	8,43
450,903	8,8
451,403	8,25
451,902	8,4
452,401	8,74
452,9	9,07
453,399	8,88
453,898	8,53
454,396	8,78
454,895	8,68
455,393	8,67
455,892	8,63
456,39	8,88
456,888	8,82
457,386	8,96
457,884	9,1
458,382	9,42
458,879	8,65
459,377	9,13
459,874	8,91
460,372	8,71
460,869	9,01
461,366	8,78
461,863	8,78
462,36	8,96
462,857	9,02
463,353	8,59
463,85	8,56
464,346	8,93
464,843	8,85
465,339	8,88
465,835	9,25
466,331	8,73
466,827	8,86
467,323	8,67
467,818	9,28
468,314	8,6
468,809	9,08
469,305	8,35
469,8	8,94
470,295	8,45
470,79	8,85
471,285	8,92
471,78	8,72
472,274	8,48
472,769	8,91
473,263	8,64
473,758	8,88
474,252	8,82
474,746	8,89
475,24	9,07
475,734	8,64
476,228	8,81
476,721	8,7
477,215	8,49
477,708	8,76
478,202	8,75
478,695	9,05
479,188	8,78
479,681	8,68
480,174	9,12
480,667	8,7
481,159	9
481,652	8,97
482,144	9,01
482,637	9,09
483,129	8,69
483,621	8,89
484,113	9,4
484,605	9,26
485,097	8,94
485,588	9,3
486,08	9,16
486,571	9,24
487,063	9,07
487,554	9,14
488,045	9,41
488,536	9,43
489,027	9,53
489,518	9,22
490,008	9,27
490,499	9,81
490,989	9,77
491,48	9,44
491,97	9,86
492,46	9,91
492,95	9,95
493,44	10,29
493,93	10,33
494,419	10,04
494,909	10,4
495,398	10,62
495,888	10,65
496,377	10,83
496,866	10,86
497,355	11,09
497,844	11,37
498,333	11,63
498,821	11,6
499,31	11,6
499,798	12,13
500,287	12,26
500,775	12,47
501,263	12,76
501,751	12,93
502,239	13,13
502,727	13,15
503,215	13,39
503,702	13,87
504,19	13,9
504,677	14,65
505,164	14,86
505,651	15,14
506,139	14,99
506,625	15,38
507,112	15,95
507,599	16,39
508,086	16,15
508,572	16,79
509,058	17,05
509,545	17,33
510,031	17,44
510,517	18,21
511,003	18,2
511,489	18,66
511,974	19,58
512,46	19,09
512,946	19,83
513,431	20,46
513,916	20,3
514,401	20,68
514,887	21,53
515,371	21,86
515,856	22,52
516,341	22,63
516,826	23,29
517,31	23,39
517,795	24,08
518,279	24,12
518,763	24,98
519,247	25,42
519,731	26,18
520,215	26,41
520,699	26,39
521,182	26,72
521,666	27,04
522,149	28,26
522,633	28,25
523,116	28,98
523,599	29,65
524,082	29,61
524,565	29,92
525,048	30,19
525,53	30,38
526,013	30,87
526,495	31,37
526,978	31,65
527,46	31,88
527,942	31,9
528,424	32,85
528,906	32,92
529,388	32,67
529,87	33,2
530,351	33,21
530,833	33,64
531,314	34,43
531,795	33,65
532,277	34,42
532,758	35,12
533,238	34,85
533,719	34,82
534,2	35,05
534,681	35,49
535,161	34,96
535,642	35,84
536,122	35,29
536,602	35,12
537,082	35,74
537,562	36,03
538,042	35,81
538,522	35,74
539,001	36,11
539,481	36,8
539,96	35,63
540,44	36,28
540,919	36,55
541,398	36,41
541,877	36,72
542,356	36,13
542,835	36,34
543,313	36,42
543,792	36,59
544,27	36,47
544,749	36,85
545,227	36,78
545,705	37,26
546,183	37,66
546,661	36,79
547,139	36,85
547,616	36,88
548,094	37,09
548,571	37,05
549,049	37,07
549,526	37,18
550,003	37,61
550,48	37,24
550,957	37,38
551,434	37,4
551,911	37,66
552,387	37,13
552,864	37,63
553,34	38,06
553,817	37,31
554,293	37,69
554,769	37,23
555,245	37,47
555,721	37,32
556,197	38,08
556,672	37,49
557,148	37,6
557,623	37,62
558,099	37,14
558,574	37,24
559,049	36,57
559,524	37,32
559,999	37,34
560,474	36,8
560,948	36,56
561,423	36,99
561,897	36,84
562,372	36,94
562,846	36,64
563,32	36,11
563,794	36,55
564,268	36,67
564,742	36,17
565,216	36,06
565,69	35,53
566,163	35,96
566,636	35,37
567,11	35,16
567,583	34,6
568,056	34,77
568,529	34,79
569,002	34,68
569,475	34,24
569,947	33,76
570,42	34,06
570,892	33,44
571,365	33,4
571,837	33,32
572,309	33,12
572,781	32,46
573,253	32,48
573,725	32,29
574,197	31,98
574,668	32,06
575,14	31,58
575,611	31,5
576,082	30,96
576,554	31,04
577,025	31,21
577,496	31,06
577,967	30,7
578,437	30,28
578,908	30,51
579,379	29,89
579,849	29,66
580,319	29,4
580,79	29,5
581,26	29,29
581,73	29,25
582,2	28,81
582,669	28,83
583,139	28,63
583,609	28,56
584,078	28,65
584,548	28,44
585,017	28,16
585,486	28,01
585,955	27,78
586,424	28,29
586,893	27,68
587,362	27,49
587,83	27,32
588,299	27,11
588,767	27,48
589,236	27,28
589,704	27
590,172	26,84
590,64	27,04
591,108	26,84
591,576	26,91
592,043	26,78
592,511	26,27
592,978	26,6
593,446	26,47
593,913	26,21
594,38	25,78
594,847	26,02
595,314	26,21
595,781	25,99
596,248	25,68
596,715	26,03
597,181	25,81
597,647	25,68
598,114	26
598,58	25,3
599,046	25,59
599,512	25,72
599,978	25,39
600,444	25,35
600,91	25,33
601,375	25,47
601,841	25,3
602,306	25,16
602,771	25,16
603,236	25,21
603,702	25,19
604,167	25
604,631	24,88
605,096	25,02
605,561	24,81
606,025	24,57
606,49	24,64
606,954	24,32
607,418	23,88
607,882	24,22
608,347	23,99
608,81	23,97
609,274	23,86
609,738	23,74
610,202	23,73
610,665	23,7
611,128	23,24
611,592	23,12
612,055	23,2
612,518	23,08
612,981	23,02
613,444	22,72
613,907	22,65
614,369	22,45
614,832	22,53
615,294	22,28
615,757	22,24
616,219	22,18
616,681	21,73
617,143	21,76
617,605	21,69
618,067	21,43
618,529	21,35
618,99	21,47
619,452	21,13
619,913	21,45
620,375	21,15
620,836	21,19
621,297	21,08
621,758	20,91
622,219	20,55
622,68	20,67
623,14	20,76
623,601	20,64
624,061	20,55
624,522	20,69
624,982	20,23
625,442	20,4
625,902	20,28
626,362	20,38
626,822	20,12
627,282	20,41
627,742	20,37
628,201	20,2
628,661	20,31
629,12	20,16
629,579	20,05
630,038	20,13
630,497	20,32
630,956	20,02
631,415	19,78
631,874	20,02
632,332	19,58
632,791	19,92
633,249	19,66
633,708	19,92
634,166	19,59
634,624	19,41
635,082	19,52
635,54	19,17
635,998	19,03
636,455	19,05
636,913	19,01
637,37	18,76
637,828	18,47
638,285	18,34
638,742	18,21
639,199	18,09
639,656	17,84
640,113	17,75
640,57	17,54
641,027	17,16
641,483	17,16
641,94	16,95
642,396	16,82
642,852	16,54
643,309	16,24
643,765	16,12
644,221	15,74
644,676	15,54
645,132	15,62
645,588	15,13
646,043	14,93
646,499	14,99
646,954	14,67
647,409	14,53
647,864	14,3
648,319	14,06
648,774	14,1
649,229	13,83
649,684	13,47
650,139	13,56
650,593	13,46
651,047	13,52
651,502	13,18
651,956	13,15
652,41	12,98
652,864	13
653,318	12,9
653,772	12,89
654,225	12,87
654,679	12,61
655,133	12,62
655,586	12,57
656,039	12,47
656,492	12,43
656,946	12,24
657,399	12,16
657,851	12,09
658,304	11,93
658,757	11,75
659,209	11,55
659,662	11,51
660,114	11,45
660,567	11,24
661,019	10,99
661,471	10,81
661,923	10,63
662,375	10,55
662,826	10,46
663,278	10,28
663,73	10,03
664,181	10,03
664,632	9,89
665,084	9,87
665,535	9,7
665,986	9,45
666,437	9,55
666,888	9,29
667,338	9,3
667,789	9,34
668,24	9,19
668,69	9,04
669,14	8,99
669,591	8,9
670,041	9,01
670,491	8,84
670,941	8,84
671,391	9,09
671,84	9,04
672,29	8,71
672,74	9,02
673,189	9,03
673,638	9,03
674,088	9,14
674,537	9,04
674,986	9,17
675,435	9,37
675,883	9,38
676,332	9,46
676,781	9,43
677,229	9,73
677,678	9,64
678,126	9,92
678,574	9,82
679,022	10,07
679,47	10,14
679,918	10,36
680,366	10,44
680,814	10,72
681,261	10,83
681,709	11,01
682,156	11,28
682,604	11,5
683,051	11,61
683,498	11,87
683,945	12,05
684,392	12,37
684,839	12,76
685,286	13,1
685,732	13,18
686,179	13,59
686,625	13,97
687,071	14,36
687,518	14,67
687,964	15,28
688,41	15,61
688,856	16,26
689,301	16,66
689,747	17,34
690,193	17,82
690,638	18,41
691,084	19,21
691,529	19,79
691,974	20,62
692,419	21,48
692,864	22,16
693,309	22,84
693,754	23,5
694,199	24,48
694,643	25,07
695,088	25,91
695,532	26,72
695,977	27,57
696,421	28,3
696,865	28,78
697,309	29,6
697,753	30,3
698,197	31,07
698,64	31,67
699,084	32,56
699,527	33,16
699,971	33,64
700,414	34,67
700,857	35,09
701,3	35,62
701,743	36,44
702,186	37,06
702,629	37,59
703,072	38,28
703,515	38,68
703,957	38,71
704,399	39,73
704,842	40,14
705,284	40,62
705,726	41,3
706,168	41,53
706,61	42,57
707,052	42,58
707,494	43,25
707,935	43,55
708,377	44,38
708,818	44,53
709,26	44,63
709,701	45,28
710,142	45,77
710,583	45,91
711,024	46,23
711,465	47,04
711,905	47,12
712,346	47,04
712,787	47,43
713,227	48,26
713,667	48,54
714,108	48,9
714,548	49,22
714,988	49,63
715,428	50,03
715,868	50,53
716,307	50,45
716,747	50,96
717,186	50,91
717,626	51,58
718,065	51,76
718,504	51,88
718,944	52,27
719,383	52,38
719,822	52,37
720,261	53,02
720,699	52,99
721,138	52,88
721,576	53,62
722,015	53,81
722,453	53,79
722,892	53,99
723,33	54,57
723,768	54,9
724,206	54,89
724,644	54,73
725,081	55,13
725,519	55,25
725,957	55,05
726,394	55,52
726,832	55,54
727,269	55,7
727,706	55,73
728,143	56,18
728,58	56,28
729,017	56,36
729,454	56,3
729,89	56,86
730,327	56,44
730,764	56,81
731,2	56,91
731,636	56,85
732,072	57,19
732,509	57,22
732,945	57,06
733,38	57,14
733,816	57,57
734,252	57,86
734,688	57,52
735,123	57,86
735,559	57,85
735,994	57,78
736,429	58,06
736,864	58,35
737,299	57,68
737,734	58,39
738,169	58,13
738,604	58,24
739,038	57,77
739,473	58,21
739,907	58,22
740,342	58,12
740,776	58,38
741,21	58,14
741,644	58,72
742,078	58,23
742,512	58,1
742,946	58,48
743,379	58,23
743,813	57,97
744,246	58,19
744,68	58,28
745,113	58,04
745,546	58,18
745,979	58,36
746,412	58,35
746,845	57,89
747,278	58,42
747,711	57,97
748,143	58,13
748,576	58,41
749,008	58,14
749,441	57,72
749,873	57,86
750,305	58,53
750,737	57,45
751,169	58,07
751,601	57,89
752,032	57,66
752,464	57,66
752,896	57,4
753,327	57,67
753,758	57,63
754,19	57,65
754,621	57,42
755,052	57,51
755,483	57,53
755,914	57,43
756,344	57,4
756,775	57,68
757,206	57,46
757,636	57,56
758,066	57,49
758,497	57,55
758,927	57,6
759,357	57,59
759,787	57,16
760,217	57,24
760,647	57,2
761,076	57,25
761,506	56,92
761,935	57,11
762,365	57,36
762,794	56,91
763,223	57,19
763,653	57,1
764,082	56,95
764,51	56,86
764,939	57,09
765,368	56,68
765,797	56,84
766,225	56,98
766,654	56,73
767,082	56,58
767,51	56,72
767,938	56,3
768,367	56,79
768,795	56,56
769,222	57,26
769,65	56,66
770,078	56,64
770,505	56,58
770,933	56,47
771,36	56,68
771,788	56,45
772,215	56,43
772,642	56,39
773,069	56,41
773,496	56,29
773,923	56,03
774,349	56
774,776	56,56
775,203	56,29
775,629	56,35
776,055	56,11
776,482	56,34
776,908	56,12
777,334	56,04
777,76	56,32
778,186	56,43
778,611	56,43
779,037	56,1
779,463	55,89
779,888	56,51
780,314	56,34
780,739	56,55
781,164	56,24
781,589	55,99
782,014	56,19
782,439	56,17
782,864	56,31
783,289	56,14
783,713	55,82
784,138	56
784,562	56,04
784,987	55,66
785,411	55,6
785,835	55,63
786,259	56,08
786,683	55,99
787,107	56,09
787,531	56,07
787,954	56,36
788,378	55,8
788,802	55,87
789,225	55,62
789,648	56,04
790,071	55,22
790,495	55,9
790,918	55,9
791,34	55,89
791,763	55,73
792,186	55,83
792,609	56,05
793,031	55,95
793,454	55,55
793,876	56,08
794,298	55,71
794,721	55,68
795,143	56,03
795,565	55,46
795,986	55,35
796,408	55,36
796,83	55,95
797,252	55,92
797,673	55,73
798,094	56,29
798,516	55,72
798,937	56,24
799,358	55,61
799,779	55,32
800,2	56,08
800,621	55,67
801,042	55,61
801,462	56
801,883	55,48
802,303	55,25
802,724	55,69
803,144	55,89
803,564	55,81
803,984	56,03
804,404	55,59
804,824	55,68
805,244	55,96
805,664	55,6
806,084	55,88
806,503	55,8
806,923	55,71
807,342	55,74
807,761	55,19
808,18	55,75
808,599	55,38
809,018	55,7
809,437	55,38
809,856	55,2
810,275	55,56
810,693	55,93
811,112	55,97
811,53	55,9
811,949	55,68
812,367	55,92
812,785	55,6
813,203	55,77
813,621	55,44
814,039	55,71
814,457	55,5
814,874	55,1
815,292	55,74
815,709	55,33
816,127	55,47
816,544	55,68
816,961	55,69
817,378	55,86
817,795	55,81
818,212	55,48
818,629	56,14
819,046	55,51
819,462	55,57
819,879	55,34
820,295	55,1
820,712	55,53
821,128	55,4
821,544	55,22
821,96	55,24
822,376	55,73
822,792	55,35
823,208	55,65
823,624	55,47
824,039	55,58
824,455	55,85
824,87	54,96
825,286	55,44
825,701	55,47
826,116	55,4
826,531	55,52
826,946	55,07
827,361	55,21
827,776	55,37
828,19	55,25
828,605	54,97
829,02	55,2
829,434	55,26
829,848	55,36
830,263	55,33
830,677	55,24
831,091	55,29
831,505	55,42
831,919	55,53
832,332	56,19
832,746	55,4
833,16	54,92
833,573	55,26
833,987	55,78
834,4	55,34
834,813	54,86
835,226	54,86
835,639	55,2
836,052	54,95
836,465	55,76
836,878	55,62
837,29	55,18
837,703	55,41
838,116	55,17
838,528	55,3
838,94	55,48
839,352	55,61
839,765	55,29
840,177	55,34
840,589	55,45
841	54,96
841,412	55,35
841,824	55,29
842,235	55,01
842,647	55,13
843,058	55,43
843,47	55,3
843,881	55,21
844,292	55,17
844,703	55,74
845,114	54,78
845,525	55,63
845,935	55,32
846,346	55,28
846,757	55,14
847,167	55,17
847,577	54,91
847,988	55,33
848,398	54,77
848,808	55,23
849,218	55,41
849,628	55,25
850,038	55,14
850,448	55,33
850,857	55,18
851,267	55,63
851,676	55,11
852,086	55,12
852,495	55,23
852,904	55,16
853,313	54,89
853,722	55,04
854,131	55,5
854,54	54,99
854,949	54,67
855,357	54,98
855,766	55,18
856,174	55,11
856,583	55,08
856,991	54,86
857,399	55,29
857,807	54,79
858,215	55,52
858,623	55,68
859,031	54,87
859,439	55,66
859,846	55,19
860,254	55,01
860,661	55,84
861,069	55,46
861,476	55,08
861,883	54,88
862,29	54,77
862,697	55
863,104	54,66
863,511	55,13
863,918	54,72
864,325	55,13
864,731	54,96
865,138	54,74
865,544	54,75
865,95	55,39
866,357	55,24
866,763	55,19
867,169	55,39
867,575	54,8
867,98	55,59
868,386	54,85
868,792	55,37
869,197	54,97
869,603	55,05
870,008	55,07
870,414	55,49
870,819	54,98
871,224	55,14
871,629	55,07
872,034	55,02
872,439	54,73
872,844	54,84
873,248	55,32
873,653	54,94
874,057	54,91
874,462	55,15
874,866	55,2
875,27	55,09
875,674	55,77
876,078	55,01
876,482	55,07
876,886	54,69
877,29	54,87
877,694	55,21
878,097	54,91
878,501	54,55
878,904	54,56
879,308	54,72
879,711	55,15
880,114	54,76
880,517	55,1
880,92	55,49
881,323	55,13
881,726	55,21
882,128	55,05
882,531	54,94
882,934	54,97
883,336	55,5
883,738	54,88
884,141	55,17
884,543	55,31
884,945	54,97
885,347	54,93
885,749	54,88
886,151	55,6
886,552	55,23
886,954	54,55
887,355	55,22
887,757	54,91
888,158	54,72
888,56	54,98
888,961	54,77
889,362	55,12
889,763	55,18
890,164	55,34
890,565	54,89
890,965	54,96
891,366	55,07
891,767	55,44
892,167	54,91
892,567	55,43
892,968	54,93
893,368	55,01
893,768	54,92
894,168	54,57
894,568	54,82
894,968	54,79
895,368	54,85
895,767	55,02
896,167	55,35
896,566	54,71
896,966	54,79
897,365	55,19
897,764	55,18
898,164	55,17
898,563	55,04
898,962	55,47
899,361	55,2
899,759	55,27
900,158	54,97
900,557	55,14
900,955	55,14
901,354	55,06
901,752	55
902,15	54,32
902,548	54,94
902,947	55,3
903,345	55,17
903,742	54,86
904,14	55,15
904,538	55,52
904,936	55,29
905,333	54,94
905,731	55,08
906,128	55,08
906,525	55,11
906,923	55,34
907,32	55,51
907,717	55,3
908,114	55,43
908,511	55,17
908,907	55,48
909,304	55,09
909,701	54,65
910,097	55,37
910,494	55
910,89	55,21
911,286	54,37
911,682	55,61
912,078	55,59
912,474	55,55
912,87	55,16
913,266	55,05
913,662	54,59
914,058	55,11
914,453	54,87
914,849	54,9
915,244	54,73
915,639	55,15
916,034	54,57
916,43	55,43
916,825	54,94
917,22	54,83
917,614	55,32
918,009	55,2
918,404	54,54
918,798	54,92
919,193	54,9
919,587	54,85
919,982	55,28
920,376	54,72
920,77	54,92
921,164	54,65
921,558	55,28
921,952	54,84
922,346	55,08
922,74	55,23
923,133	55,13
923,527	55,27
923,92	55,14
924,314	54,94
924,707	54,9
925,1	55,18
925,493	55,82
925,886	55,05
926,279	54,39
926,672	55,42
927,065	54,63
927,457	55,28
927,85	54,22
928,243	54,73
928,635	55,05
929,027	55,13
929,42	54,95
929,812	54,4
930,204	55,7
930,596	55,19
930,988	55,2
931,379	54,65
931,771	55,33
932,163	54,7
932,554	54,13
932,946	54,54
933,337	54,81
933,729	55,11
934,12	54,43
934,511	54,77
934,902	54,66
935,293	54,58
935,684	55,4
936,075	55,76
936,465	55,07
936,856	54,44
937,246	55,74
937,637	55,04
938,027	54,7
938,417	54,36
938,808	55,33
939,198	54,67
939,588	55,43
939,978	55,02
940,368	54
940,757	55,69
941,147	55,86
941,537	54,79
941,926	56,21
942,315	57,07
942,705	54,87
943,094	55,27
943,483	54,97
943,872	54,06
944,261	54,38
944,65	54,53
945,039	55,31
945,428	55,5
945,816	55,23
946,205	54,63
946,593	55,04
946,982	55,25
947,37	55,23
947,758	54,63
948,146	55,54
948,534	55,18
948,922	55,4
949,31	54,45
949,698	55,41
950,086	54,54
950,473	54,54
950,861	55,14
951,248	54,35
951,636	55,67
952,023	54,07
952,41	54,17
952,797	55,4
953,184	54,83
953,571	55,09
953,958	54,63
954,345	54,53
954,731	54,44
955,118	54,5
955,505	54,18
955,891	54,6
956,277	55,55
956,664	54,47
957,05	54,42
957,436	54,12
957,822	54,14
958,208	54,17
958,594	54,2
958,979	54,59
959,365	54,03
959,751	54,43
960,136	54,36
960,522	54,39
960,907	53,89
961,292	53,96
961,677	54,66
962,062	54,13
962,447	54,47
962,832	54,5
963,217	53,99
963,602	54,62
963,986	55,22
964,371	54,07
964,756	54,08
965,14	54,1
965,524	54,53
965,908	54,61
966,293	53,99
966,677	54,13
967,061	55,03
967,445	54,33
967,828	54,27
968,212	54,64
968,596	54,09
968,979	54,58
969,363	54,52
969,746	54,77
970,129	53,99
970,513	54,79
970,896	54,58
971,279	54,01
971,662	54,82
972,045	53,99
972,428	54,77
972,81	54,83
973,193	55,67
973,575	54,19
973,958	53,5
974,34	54,05
974,723	54,53
975,105	54,32
975,487	54,46
975,869	54,42
976,251	54,94
976,633	54,63
977,015	54,02
977,396	54,15
977,778	53,91
978,16	54,5
978,541	54,38
978,922	55,08
979,304	54,62
979,685	54,5
980,066	54,25
980,447	54,46
980,828	54,92
981,209	53,96
981,59	54,77
981,97	54,2
982,351	54,35
982,732	54,56
983,112	54,37
983,493	55,31
983,873	54,7
984,253	54,9
984,633	54,96
985,013	54,37
985,393	54,54
985,773	54,93
986,153	54,43
986,533	54,4
986,912	54,88
987,292	54,7
987,671	54,79
988,051	55,49
988,43	54,81
988,809	54,12
989,188	54,88
989,567	55,39
989,946	55,34
990,325	55,04
990,704	54,56
991,083	54,88
991,461	55,33
991,84	54,77
992,218	54,71
992,597	55,47
992,975	55,47
993,353	55,44
993,732	54,51
994,11	54,92
994,488	55,58
994,866	53,95
995,243	55,1
995,621	55,38
995,999	54,76
996,376	54,92
996,754	55,24
997,131	54,76
997,509	54,94
997,886	54,79
998,263	55,21
998,64	54,88
999,017	55,19
999,394	55,86
999,771	55,63
1000,148	55,31
1000,524	54,74
1000,901	54,84
1001,277	55,8
1001,654	55,13
1002,03	55,58
1002,406	55,21
1002,783	55,75
1003,159	55,59
1003,535	55,28
1003,911	55,33
1004,286	55,7
1004,662	56,01
1005,038	55,01
1005,414	55,93
1005,789	55,27
1006,164	55,87
1006,54	55,93
1006,915	55,21
1007,29	55
1007,665	55,66
1008,04	54,92
1008,415	55,81
1008,79	55,48
1009,165	54,89
1009,54	56,04
1009,914	55,81
1010,289	55,6
1010,663	55,73
1011,038	56,25
1011,412	55,86
1011,786	55,99
1012,16	56,76
1012,535	54,8
1012,909	56,38
1013,282	56,03
1013,656	56,43
1014,03	55,65
1014,404	55,85
1014,777	55,49
1015,151	57,01
1015,524	56,65
1015,897	56,03
1016,271	56,47
1016,644	55,77
1017,017	55,49
1017,39	55,49
1017,763	56,08
1018,136	57,19
1018,508	55,26
1018,881	55,65
1019,254	55,86
1019,626	56,52
1019,999	55,92
1020,371	56,73
1020,743	55,66
1021,116	56,18
1021,488	56,75
1021,86	57,68
1022,232	57,74
1022,604	56,09
1022,975	57,73
1023,347	55,88
1023,719	57,38
1024,09	57,18
1024,462	57,02
1024,833	56,76
1025,204	57,71
1025,576	56,62
1025,947	56,02
1026,318	56,68
1026,689	57,43
1027,06	58,1
1027,431	57,78
1027,801	57,45
1028,172	56,63
1028,543	56,98
1028,913	57,92
1029,284	57,65
1029,654	57,24
1030,024	56,49
1030,394	56,86
1030,764	56,93
1031,135	57,02
1031,504	56,72
1031,874	56,78
1032,244	56,83
1032,614	55,85
1032,983	57,03
1033,353	56,88
1033,722	57,37
1034,092	56,89
1034,461	56,83
1034,83	57,63
1035,2	57,65
1035,569	57,44
1035,938	57,54
1036,307	56,92
1036,675	57,15
1037,044	58,11
1037,413	58,17
1037,781	57,01
1038,15	59,17
1038,518	59,09
1038,887	57,91
1039,255	58,38
1039,623	57,98
1039,991	58,52
1040,359	58,2
1040,727	58,23
1041,095	59,07
1041,463	58,23
1041,831	57,83
1042,198	56,94
1042,566	57,34
1042,933	58,24
1043,301	58,12
1043,668	58,03
1044,035	57,72
1044,402	58,95
1044,77	58,13
1045,137	57,98
1045,503	59,04
1045,87	57,24
1046,237	58,91
1046,604	59,23
1046,97	58,39
1047,337	59,67
1047,703	58,65
1048,07	58,02
1048,436	60,77
1048,802	58,87
1049,168	60,22
1049,534	58,82
1049,9	60,09
1050,266	60,58
1050,632	59,04
1050,998	60
1051,364	58,59
1051,729	60,46
1052,095	59,51
1052,46	59,08
1052,825	60,01
1053,191	59,54
1053,556	59,54
1053,921	57,81
1054,286	58,57
1054,651	59,54
1055,016	61,31
1055,381	59,71
1055,745	58,14
1056,11	60,84
1056,475	61,34
1056,839	59,77
1057,203	60,14
1057,568	59,5
1057,932	60,47
1058,296	60,93
1058,66	59,26
1059,024	60,89
1059,388	62,39
1059,752	59,43
1060,116	60,32
1060,48	62,7
1060,843	59,43
1061,207	60,7
1061,57	60,45
1061,934	60,91
1062,297	60,97
1062,66	59,84
1063,023	60,6
1063,386	61,06
1063,749	61,02
1064,112	60,16
1064,475	60,85
1064,838	61,07
1065,201	61,34
1065,563	61,39
1065,926	59,39
1066,288	60,71
1066,651	60,26
1067,013	60,39
1067,375	61,79
1067,737	61,84
1068,099	61,04
1068,461	61,67
1068,823	61,44
1069,185	60,45
1069,547	61,23
1069,909	58,72
1070,27	63,2
1070,632	59,97
1070,993	62,51
1071,355	60,4
1071,716	61,54
1072,077	62,6
1072,438	60,66
1072,799	61,79
1073,16	62,62
1073,521	61,03
1073,882	61,84
1074,243	63
1074,603	61,63
1074,964	62,65
1075,325	62,36
1075,685	58,68
1076,045	60,14
1076,406	62,44
1076,766	61,19
1077,126	61,6
1077,486	61,26
1077,846	62
1078,206	63,17
1078,566	62,04
1078,925	61,92
1079,285	61,85
1079,645	61,96
1080,004	60,32
1080,364	62,53
1080,723	61,72
1081,082	63,51
1081,442	61,49
1081,801	61,88
1082,16	62,17
1082,519	61,8
1082,878	63,7
1083,237	62,34
1083,595	63,98
1083,954	61,48
1084,313	60,7
1084,671	61,62
1085,03	61,02
1085,388	62,59
1085,746	62,08
1086,104	61,8
1086,463	63,52
1086,821	64,4
1087,179	63,88
1087,537	63,07
1087,894	64,94
1088,252	64,13
1088,61	62,91
1088,967	62,74
1089,325	64,45
1089,682	63,8
1090,04	64,44
1090,397	62,66
1090,754	64,49
1091,111	63,09
1091,469	66,13
1091,826	63,58
1092,182	66,99
1092,539	64,63
1092,896	64,58
1093,253	66,46
1093,609	63,64
1093,966	62,93
1094,322	62,92
1094,679	63,23
1095,035	66,79
1095,391	63,95
1095,748	65,86
1096,104	63,23
1096,46	64,92
1096,816	64,51
1097,171	67,22
1097,527	64,7
1097,883	67,06
1098,239	64,08
1098,594	64,85
1098,95	66,37
1099,305	66,24
1099,66	63,48
1100,016	64,13
1100,371	66,96
1100,726	65,16
1101,081	63,6
1101,436	65,3
1101,791	68,59
1102,146	67,29
1102,5	66,71
1102,855	65,2
1103,21	65
1103,564	66,37
1103,918	63,26
1104,273	67,17
1104,627	68,9
1104,981	61,59
1105,335	68,84
1105,69	69,84
1106,043	64,9
1106,397	66,06
1106,751	67,69
1107,105	67,87
1107,459	67,22
1107,812	69,87
1108,166	70,88
1108,519	69,35
1108,873	68,49
1109,226	74,48
1109,579	67,04
1109,932	69,47
1110,285	70,83
1110,638	74,7
1110,991	68,51
1111,344	66,03
1111,697	69,88
1112,05	65,9
1112,402	72,88
1112,755	70,96
1113,107	74,22
1113,46	71,37
1113,812	71,53
1114,164	75,11
1114,517	73,75
1114,869	160,19
1115,221	157,89
1115,573	150,76
1115,924	172,64
