Data from D1___Relative__5__00050.txt Node

Date: Wed Jan 31 18:22:30 CET 2024
User: diatiterra
Spectrometer: HDX00911
Trigger mode: 0
Integration Time (sec): 6,000000E-3
Scans to average: 2
Nonlinearity correction enabled: false
Boxcar width: 0
Storing dark spectrum: false
XAxis mode: Wavelengths
Number of Pixels in Spectrum: 2068
>>>>>Begin Spectral Data<<<<<
194,468	218,87
195,025	138,18
195,581	197,56
196,138	202,56
196,694	132,72
197,251	101,52
197,807	91,34
198,363	89,6
198,919	84,14
199,474	94,12
200,03	99,18
200,586	114,73
201,141	79,35
201,696	89,6
202,251	87,12
202,806	84,97
203,361	92,22
203,916	86,81
204,471	87,96
205,025	105,24
205,58	83,93
206,134	98
206,688	93,08
207,242	106,64
207,796	100,38
208,35	94,2
208,904	91,72
209,457	87,15
210,011	87,59
210,564	93,31
211,117	93,98
211,67	98,51
212,223	93,15
212,776	102,82
213,329	98,67
213,881	113,73
214,434	85,86
214,986	109,92
215,538	94,49
216,09	87,68
216,642	108,26
217,194	93,56
217,746	93,61
218,297	102,29
218,849	98,9
219,4	105,46
219,951	101,61
220,502	94,59
221,053	103,44
221,604	96,98
222,155	101,98
222,705	91,18
223,256	104,1
223,806	108,27
224,356	97,31
224,906	110,48
225,456	96,51
226,006	100,4
226,556	78,57
227,106	105,65
227,655	94,79
228,204	101,25
228,754	88,73
229,303	97,14
229,852	87,05
230,401	93,66
230,949	94,24
231,498	85,56
232,047	85,39
232,595	95,86
233,143	111,02
233,691	93,8
234,239	83,57
234,787	94,8
235,335	98,51
235,883	85,31
236,43	98,11
236,978	99,62
237,525	96,35
238,072	91,84
238,619	98,48
239,166	86,52
239,713	89,78
240,26	91,43
240,806	90,62
241,353	100
241,899	89,51
242,445	93,07
242,991	101,15
243,537	85,98
244,083	103,05
244,629	95
245,174	104,42
245,72	97,78
246,265	90,87
246,81	99,2
247,355	100
247,9	88,06
248,445	95,24
248,99	94,7
249,534	113,91
250,079	103,01
250,623	95,93
251,168	103,31
251,712	92,19
252,256	100,82
252,8	100,77
253,343	94,64
253,887	92,34
254,43	104,2
254,974	100,76
255,517	91,44
256,06	109,23
256,603	97,41
257,146	101,16
257,689	103,54
258,232	106,78
258,774	95,74
259,317	100,85
259,859	108,72
260,401	110,08
260,943	86,88
261,485	98,58
262,027	105,6
262,569	97,01
263,11	93,46
263,652	105,51
264,193	101,24
264,734	100,36
265,275	104,1
265,816	101,15
266,357	102,71
266,898	104,23
267,438	108,66
267,979	95,32
268,519	98,51
269,059	121,5
269,6	98,87
270,14	112,1
270,68	90,94
271,219	109,32
271,759	94,36
272,298	95,11
272,838	103,85
273,377	100
273,916	88,49
274,455	102,19
274,994	97,6
275,533	94,57
276,072	110,57
276,61	97,46
277,149	105
277,687	106,77
278,225	89,67
278,763	111,84
279,301	105,42
279,839	101,61
280,377	102,46
280,914	92,66
281,452	119,66
281,989	103,72
282,526	94,88
283,064	114,29
283,601	87,5
284,137	99,17
284,674	103,33
285,211	113,6
285,747	87,12
286,284	111,71
286,82	97,52
287,356	89,14
287,892	105,43
288,428	101,24
288,964	120,17
289,5	111,98
290,035	103,2
290,571	102,94
291,106	107,32
291,641	111,61
292,176	100,78
292,711	102,03
293,246	95,38
293,781	104,55
294,315	84,51
294,85	118,98
295,384	105,33
295,918	90,44
296,453	88,06
296,987	91,74
297,52	100,83
298,054	99,62
298,588	103,75
299,121	89,55
299,655	95,99
300,188	96,67
300,721	105,69
301,254	100,81
301,787	97,27
302,32	100,81
302,853	100,4
303,385	95,36
303,918	94,57
304,45	102,31
304,982	89,01
305,514	103,49
306,046	96,28
306,578	95,35
307,11	96,51
307,641	98,28
308,173	104,13
308,704	97,11
309,236	87,97
309,767	96,45
310,298	96,37
310,829	110
311,359	97,18
311,89	98,74
312,421	98,65
312,951	108,13
313,481	89,66
314,012	89,93
314,542	104,66
315,072	95,8
315,601	92
316,131	110,24
316,661	90,83
317,19	93,7
317,72	105,37
318,249	110,32
318,778	106,64
319,307	97,66
319,836	110,62
320,365	103,04
320,893	101,24
321,422	110,57
321,95	102,26
322,479	100,76
323,007	101,36
323,535	94,29
324,063	93,6
324,591	92,4
325,118	96,35
325,646	102,94
326,173	94,58
326,701	108,94
327,228	106,03
327,755	97,74
328,282	95,42
328,809	111,44
329,336	90,94
329,862	95,96
330,389	98,05
330,915	96,85
331,441	95,42
331,968	100,45
332,494	99,24
333,02	101,25
333,545	93,66
334,071	97,93
334,597	86,27
335,122	91,11
335,648	107,33
336,173	96,21
336,698	84,18
337,223	97,43
337,748	90,28
338,272	90,41
338,797	92,03
339,322	92,34
339,846	85,29
340,37	95,16
340,894	89,24
341,419	90,98
341,942	86,71
342,466	85,26
342,99	81,54
343,514	84,86
344,037	83,54
344,56	92,59
345,084	86,99
345,607	80,56
346,13	85,21
346,653	87,67
347,175	84,29
347,698	80,82
348,221	76,43
348,743	81,68
349,265	79,86
349,787	73,01
350,309	74,37
350,831	71,91
351,353	80,79
351,875	76,02
352,397	83,57
352,918	80,92
353,439	81,46
353,961	70,06
354,482	74,56
355,003	78,78
355,524	76,11
356,044	67,05
356,565	77,41
357,086	83,33
357,606	61,54
358,126	69,15
358,646	60,71
359,167	71,89
359,687	74,86
360,206	63,11
360,726	62,09
361,246	72,07
361,765	72,03
362,285	61,25
362,804	66,32
363,323	59,51
363,842	65,93
364,361	68,91
364,88	63,79
365,398	65,07
365,917	64,15
366,435	69,53
366,954	61,83
367,472	60,85
367,99	66,82
368,508	59,51
369,026	65,91
369,544	61,62
370,061	60,29
370,579	60,25
371,096	62,84
371,613	60,78
372,131	53,15
372,648	58,46
373,165	59,18
373,681	54,01
374,198	59,96
374,715	56,58
375,231	58,71
375,747	49,83
376,264	52,72
376,78	54,68
377,296	55,76
377,812	50
378,327	54,64
378,843	52,9
379,359	52,65
379,874	52,42
380,389	50,47
380,905	46,27
381,42	48,48
381,935	50,3
382,449	49,56
382,964	47,57
383,479	45,11
383,993	45,98
384,508	44,75
385,022	41,97
385,536	41,97
386,05	45,54
386,564	44,03
387,078	41,15
387,592	41,36
388,105	43,38
388,619	40,07
389,132	40
389,645	40,46
390,158	35,94
390,671	39,82
391,184	37,85
391,697	34,47
392,21	35,43
392,722	33,83
393,235	37,34
393,747	35,31
394,259	35,02
394,771	35,1
395,283	33,24
395,795	33,3
396,307	33,74
396,818	33,16
397,33	30,19
397,841	30,35
398,353	30,66
398,864	31,51
399,375	28,3
399,886	29,3
400,397	26,16
400,907	26,92
401,418	26,35
401,928	25,13
402,439	27,16
402,949	23,12
403,459	24,57
403,969	26,71
404,479	24,17
404,989	22,8
405,498	22,51
406,008	21,45
406,517	21,48
407,027	18,17
407,536	20,08
408,045	19
408,554	18,33
409,063	17,85
409,572	16,85
410,08	16,4
410,589	17,09
411,097	16,22
411,606	15,51
412,114	15,62
412,622	14,41
413,13	14,86
413,638	14,86
414,145	13
414,653	13,16
415,16	11,81
415,668	12,14
416,175	11,4
416,682	12,04
417,189	10,58
417,696	11,04
418,203	11,15
418,71	10,96
419,216	10,95
419,723	11,21
420,229	10,17
420,735	9,77
421,242	10,12
421,748	10,28
422,254	9,62
422,759	9,54
423,265	9,44
423,771	9,72
424,276	9,54
424,781	9,17
425,287	9,26
425,792	8,92
426,297	9,1
426,802	8,65
427,306	8,45
427,811	8,98
428,316	9,14
428,82	8,81
429,324	8,57
429,829	8,2
430,333	8,29
430,837	8,61
431,34	8,1
431,844	8,14
432,348	7,74
432,851	8,21
433,355	8,25
433,858	8,09
434,361	7,65
434,864	7,87
435,367	7,34
435,87	8,07
436,373	7,95
436,876	7,6
437,378	7,69
437,88	7,45
438,383	7,33
438,885	7,71
439,387	7,33
439,889	7,72
440,391	7,69
440,892	7,48
441,394	7,62
441,896	7,34
442,397	7,45
442,898	7,49
443,399	7,66
443,9	7,4
444,401	7,3
444,902	7,46
445,403	7,78
445,903	7,23
446,404	7,53
446,904	7,37
447,405	7,24
447,905	7,4
448,405	7,42
448,905	7,26
449,404	7,58
449,904	7,47
450,404	7,1
450,903	7,71
451,403	7,61
451,902	7,61
452,401	7,71
452,9	7,69
453,399	7,34
453,898	7,3
454,396	7,45
454,895	7,87
455,393	7,58
455,892	7,51
456,39	7,63
456,888	7,32
457,386	7,4
457,884	7,77
458,382	7,73
458,879	7,48
459,377	7,91
459,874	7,57
460,372	7,8
460,869	7,63
461,366	7,49
461,863	7,73
462,36	7,68
462,857	7,5
463,353	7,25
463,85	7,52
464,346	7,48
464,843	7,45
465,339	7,6
465,835	7,69
466,331	7,32
466,827	7,14
467,323	7,57
467,818	7,46
468,314	7,64
468,809	7,7
469,305	7,45
469,8	7,37
470,295	7,29
470,79	7,54
471,285	7,41
471,78	7,35
472,274	7,4
472,769	7,2
473,263	7,56
473,758	7,43
474,252	7,41
474,746	7,52
475,24	7,56
475,734	7,14
476,228	7,68
476,721	7,47
477,215	7,36
477,708	7,45
478,202	7,54
478,695	7,57
479,188	7,39
479,681	7,24
480,174	7,5
480,667	7,5
481,159	7,44
481,652	7,59
482,144	7,6
482,637	7,68
483,129	7,59
483,621	7,68
484,113	7,69
484,605	7,5
485,097	7,65
485,588	7,68
486,08	7,74
486,571	7,68
487,063	8,02
487,554	7,83
488,045	7,8
488,536	7,77
489,027	7,81
489,518	7,71
490,008	7,51
490,499	7,93
490,989	7,98
491,48	8,01
491,97	8
492,46	7,79
492,95	8,16
493,44	8,14
493,93	8,31
494,419	8,34
494,909	8,33
495,398	8,3
495,888	8,59
496,377	8,65
496,866	8,75
497,355	8,62
497,844	8,57
498,333	8,91
498,821	9,23
499,31	9,04
499,798	9,5
500,287	9,31
500,775	9,91
501,263	9,9
501,751	9,99
502,239	9,96
502,727	10,07
503,215	10,38
503,702	10,71
504,19	10,6
504,677	10,98
505,164	11,07
505,651	11,1
506,139	11,38
506,625	11,45
507,112	12,13
507,599	12,05
508,086	12,22
508,572	12,66
509,058	12,65
509,545	13,1
510,031	13,44
510,517	13,45
511,003	13,58
511,489	13,95
511,974	14,44
512,46	14,38
512,946	14,81
513,431	15,28
513,916	15,63
514,401	15,64
514,887	15,99
515,371	16,86
515,856	17,17
516,341	17,15
516,826	17,75
517,31	17,74
517,795	18,3
518,279	18,37
518,763	19,26
519,247	19,31
519,731	19,84
520,215	20,12
520,699	20,2
521,182	20,84
521,666	21,07
522,149	21,42
522,633	21,73
523,116	22,43
523,599	22,55
524,082	22,61
524,565	23,11
525,048	23,83
525,53	23,73
526,013	23,96
526,495	24,34
526,978	24,42
527,46	25,38
527,942	25,03
528,424	25,78
528,906	25,43
529,388	25,78
529,87	26,11
530,351	25,8
530,833	26,74
531,314	26,79
531,795	26,68
532,277	27,19
532,758	27,61
533,238	26,86
533,719	27,47
534,2	27,23
534,681	28
535,161	28,11
535,642	28,56
536,122	28,05
536,602	27,96
537,082	28,31
537,562	28,37
538,042	28,51
538,522	28,59
539,001	29,06
539,481	28,52
539,96	29,06
540,44	28,83
540,919	28,78
541,398	28,92
541,877	29,11
542,356	29,04
542,835	29,06
543,313	29,27
543,792	29,08
544,27	29,17
544,749	29,52
545,227	29,65
545,705	29,56
546,183	29,73
546,661	29,55
547,139	29,52
547,616	29,43
548,094	29,59
548,571	29,39
549,049	29,78
549,526	29,87
550,003	29,97
550,48	29,81
550,957	29,54
551,434	29,65
551,911	30,01
552,387	29,57
552,864	29,72
553,34	30,35
553,817	29,51
554,293	29,89
554,769	29,86
555,245	30,08
555,721	30,03
556,197	29,81
556,672	29,86
557,148	29,95
557,623	30,42
558,099	29,66
558,574	30,01
559,049	29,21
559,524	29,79
559,999	29,64
560,474	29,29
560,948	29,33
561,423	29,56
561,897	29,06
562,372	29,34
562,846	29,24
563,32	29,26
563,794	28,9
564,268	29,09
564,742	28,86
565,216	28,62
565,69	28,04
566,163	28,17
566,636	27,99
567,11	28,01
567,583	27,84
568,056	27,47
568,529	27,66
569,002	27,19
569,475	26,92
569,947	26,75
570,42	26,85
570,892	26,34
571,365	26,36
571,837	26,17
572,309	26,04
572,781	25,69
573,253	25,49
573,725	25,29
574,197	24,96
574,668	24,95
575,14	24,78
575,611	24,55
576,082	24,19
576,554	24,11
577,025	24,09
577,496	24,03
577,967	23,45
578,437	23,85
578,908	23,24
579,379	23,23
579,849	22,98
580,319	22,79
580,79	22,53
581,26	22,7
581,73	22,4
582,2	22,43
582,669	22,12
583,139	22,03
583,609	22,19
584,078	22,13
584,548	21,77
585,017	21,97
585,486	21,44
585,955	21,33
586,424	21,34
586,893	21,22
587,362	21,18
587,83	20,91
588,299	20,87
588,767	20,81
589,236	20,86
589,704	20,59
590,172	20,47
590,64	20,43
591,108	20,36
591,576	20,51
592,043	20,11
592,511	20,12
592,978	20,38
593,446	19,79
593,913	19,64
594,38	19,79
594,847	19,51
595,314	19,81
595,781	19,7
596,248	19,43
596,715	19,74
597,181	19,56
597,647	19,6
598,114	19,59
598,58	19,09
599,046	19,61
599,512	19,5
599,978	19,34
600,444	19,18
600,91	19,23
601,375	19,55
601,841	19,09
602,306	19,34
602,771	19,06
603,236	19,02
603,702	19,23
604,167	19,05
604,631	18,89
605,096	18,73
605,561	18,71
606,025	18,81
606,49	18,46
606,954	18,51
607,418	18,33
607,882	18,17
608,347	17,88
608,81	18,23
609,274	17,83
609,738	17,99
610,202	18,01
610,665	17,48
611,128	17,47
611,592	17,56
612,055	17,35
612,518	17,15
612,981	17,46
613,444	17,14
613,907	16,87
614,369	16,81
614,832	16,72
615,294	16,8
615,757	16,55
616,219	16,62
616,681	16,28
617,143	16,05
617,605	16,26
618,067	15,98
618,529	16,02
618,99	15,93
619,452	15,58
619,913	15,67
620,375	15,74
620,836	15,64
621,297	15,62
621,758	15,49
622,219	15,64
622,68	15,29
623,14	14,98
623,601	15,08
624,061	15,24
624,522	15,27
624,982	15,16
625,442	15,13
625,902	15,17
626,362	14,94
626,822	15,02
627,282	14,98
627,742	15,06
628,201	14,89
628,661	14,92
629,12	14,94
629,579	14,83
630,038	14,87
630,497	14,85
630,956	14,65
631,415	14,62
631,874	14,64
632,332	14,54
632,791	14,48
633,249	14,3
633,708	14,55
634,166	14,36
634,624	14,44
635,082	14,34
635,54	14,22
635,998	13,99
636,455	13,93
636,913	14,02
637,37	13,9
637,828	13,66
638,285	13,42
638,742	13,42
639,199	13,29
639,656	13,01
640,113	12,93
640,57	12,94
641,027	12,6
641,483	12,56
641,94	12,42
642,396	12,4
642,852	11,95
643,309	12,02
643,765	11,74
644,221	11,63
644,676	11,53
645,132	11,39
645,588	11,09
646,043	10,88
646,499	10,97
646,954	10,75
647,409	10,81
647,864	10,51
648,319	10,28
648,774	10,25
649,229	10,29
649,684	10,29
650,139	10,1
650,593	9,92
651,047	9,8
651,502	10,03
651,956	9,83
652,41	9,84
652,864	9,71
653,318	9,69
653,772	9,65
654,225	9,57
654,679	9,44
655,133	9,54
655,586	9,37
656,039	9,31
656,492	9,21
656,946	9,32
657,399	9,16
657,851	9,07
658,304	8,9
658,757	9,04
659,209	8,84
659,662	8,64
660,114	8,64
660,567	8,57
661,019	8,38
661,471	8,31
661,923	8,23
662,375	8,1
662,826	8,05
663,278	8,05
663,73	7,94
664,181	7,86
664,632	7,89
665,084	7,79
665,535	7,69
665,986	7,69
666,437	7,5
666,888	7,44
667,338	7,54
667,789	7,6
668,24	7,53
668,69	7,49
669,14	7,53
669,591	7,47
670,041	7,58
670,491	7,47
670,941	7,55
671,391	7,69
671,84	7,57
672,29	7,58
672,74	7,59
673,189	7,79
673,638	7,66
674,088	7,93
674,537	7,95
674,986	8,04
675,435	8,01
675,883	8,14
676,332	8,25
676,781	8,32
677,229	8,34
677,678	8,47
678,126	8,65
678,574	8,72
679,022	8,98
679,47	8,96
679,918	9,08
680,366	9,18
680,814	9,47
681,261	9,6
681,709	9,78
682,156	9,82
682,604	10,1
683,051	10,23
683,498	10,4
683,945	10,37
684,392	10,58
684,839	10,74
685,286	10,99
685,732	11,12
686,179	11,1
686,625	11,46
687,071	11,79
687,518	12,04
687,964	12,32
688,41	12,45
688,856	12,95
689,301	13,01
689,747	13,58
690,193	13,79
690,638	14,31
691,084	14,61
691,529	15,24
691,974	15,8
692,419	16,44
692,864	16,95
693,309	17,43
693,754	17,91
694,199	18,48
694,643	18,95
695,088	19,66
695,532	20,44
695,977	20,88
696,421	21,37
696,865	22,18
697,309	22,64
697,753	23,27
698,197	24,03
698,64	24,39
699,084	25,27
699,527	25,75
699,971	26,18
700,414	26,81
700,857	27,38
701,3	27,96
701,743	28,57
702,186	29,2
702,629	29,38
703,072	30,15
703,515	30,36
703,957	30,82
704,399	31,54
704,842	31,86
705,284	32,5
705,726	33,07
706,168	33,19
706,61	34,15
707,052	33,9
707,494	34,66
707,935	34,67
708,377	35,45
708,818	35,85
709,26	36,35
709,701	36,54
710,142	37,12
710,583	37,05
711,024	37,87
711,465	38,12
711,905	38,28
712,346	38,43
712,787	38,73
713,227	39,4
713,667	39,61
714,108	39,93
714,548	40,33
714,988	40,68
715,428	41,19
715,868	41,33
716,307	41,41
716,747	41,63
717,186	41,92
717,626	42,08
718,065	42,57
718,504	42,7
718,944	43,05
719,383	43,2
719,822	43,43
720,261	43,4
720,699	43,98
721,138	43,87
721,576	44,4
722,015	44,75
722,453	44,67
722,892	44,73
723,33	45,37
723,768	45,7
724,206	45,55
724,644	45,63
725,081	45,79
725,519	45,74
725,957	45,86
726,394	46,28
726,832	46,15
727,269	46,03
727,706	46,68
728,143	46,78
728,58	47,04
729,017	46,75
729,454	46,76
729,89	47,25
730,327	47,17
730,764	47,61
731,2	47,19
731,636	47,15
732,072	47,67
732,509	47,76
732,945	47,97
733,38	47,73
733,816	47,68
734,252	47,89
734,688	48,23
735,123	48,04
735,559	48,44
735,994	48,31
736,429	48,27
736,864	48,38
737,299	48,17
737,734	48,52
738,169	48,31
738,604	48,52
739,038	48,28
739,473	48,28
739,907	48,32
740,342	48,48
740,776	48,57
741,21	48,39
741,644	48,72
742,078	48,73
742,512	48,33
742,946	48,53
743,379	48,24
743,813	48,36
744,246	48,58
744,68	48,61
745,113	48,01
745,546	48,4
745,979	48,4
746,412	47,97
746,845	48,04
747,278	48,05
747,711	48,44
748,143	48,39
748,576	48,44
749,008	48,48
749,441	48,07
749,873	47,81
750,305	48,03
750,737	47,82
751,169	47,71
751,601	48,09
752,032	47,93
752,464	47,85
752,896	47,62
753,327	47,81
753,758	47,86
754,19	47,78
754,621	47,71
755,052	47,56
755,483	47,83
755,914	47,57
756,344	47,45
756,775	47,86
757,206	47,32
757,636	47,22
758,066	47,49
758,497	47,47
758,927	47,55
759,357	47,47
759,787	47,22
760,217	47,05
760,647	47,18
761,076	46,83
761,506	46,93
761,935	46,76
762,365	47,4
762,794	46,79
763,223	47,1
763,653	47,28
764,082	46,75
764,51	46,91
764,939	46,88
765,368	46,72
765,797	46,91
766,225	46,79
766,654	46,66
767,082	46,32
767,51	46,57
767,938	46,36
768,367	46,31
768,795	46,34
769,222	46,71
769,65	46,66
770,078	46,6
770,505	46,82
770,933	46,28
771,36	46,49
771,788	46,32
772,215	46,44
772,642	46,35
773,069	46,37
773,496	46,11
773,923	46
774,349	46,14
774,776	46,34
775,203	46,07
775,629	46,1
776,055	45,76
776,482	46,07
776,908	45,97
777,334	46,11
777,76	45,8
778,186	46,02
778,611	46,37
779,037	46,21
779,463	45,99
779,888	46,03
780,314	45,75
780,739	46,15
781,164	46,03
781,589	45,76
782,014	46,06
782,439	45,88
782,864	46,01
783,289	45,96
783,713	45,77
784,138	45,86
784,562	45,54
784,987	45,7
785,411	45,67
785,835	45,66
786,259	45,91
786,683	46,01
787,107	45,35
787,531	45,59
787,954	45,68
788,378	45,57
788,802	45,55
789,225	45,5
789,648	45,78
790,071	45,39
790,495	45,89
790,918	45,7
791,34	45,6
791,763	45,43
792,186	45,32
792,609	45,49
793,031	45,5
793,454	45,61
793,876	45,78
794,298	45,16
794,721	45,17
795,143	45,78
795,565	45,2
795,986	45,11
796,408	45,56
796,83	45,36
797,252	45,32
797,673	45,7
798,094	45,54
798,516	45,75
798,937	45,71
799,358	45,26
799,779	45,11
800,2	45,43
800,621	45,54
801,042	45,08
801,462	45,3
801,883	45,15
802,303	45,09
802,724	45,32
803,144	45,08
803,564	45,48
803,984	45,6
804,404	45,49
804,824	45,43
805,244	45,16
805,664	45,47
806,084	45,31
806,503	45,76
806,923	45,14
807,342	45,08
807,761	45,04
808,18	45,35
808,599	45,03
809,018	45,32
809,437	45,31
809,856	44,97
810,275	45,46
810,693	45,22
811,112	45,34
811,53	45,3
811,949	45,22
812,367	45,31
812,785	45,17
813,203	45,21
813,621	44,9
814,039	45,14
814,457	44,73
814,874	44,82
815,292	45,3
815,709	44,75
816,127	45,36
816,544	45,43
816,961	45,07
817,378	45,58
817,795	45,07
818,212	45,05
818,629	45,53
819,046	44,93
819,462	44,86
819,879	44,75
820,295	45,18
820,712	45,13
821,128	44,94
821,544	45,29
821,96	44,99
822,376	45,03
822,792	45,01
823,208	45,1
823,624	45,28
824,039	44,98
824,455	45,03
824,87	44,84
825,286	45,22
825,701	45,05
826,116	44,86
826,531	45,22
826,946	44,45
827,361	44,87
827,776	45,1
828,19	44,86
828,605	44,35
829,02	44,81
829,434	44,9
829,848	44,9
830,263	45,11
830,677	44,73
831,091	44,72
831,505	44,4
831,919	45,26
832,332	45,28
832,746	44,88
833,16	44,63
833,573	45,01
833,987	45,07
834,4	44,67
834,813	44,45
835,226	44,81
835,639	44,88
836,052	44,56
836,465	44,54
836,878	44,82
837,29	44,9
837,703	45,14
838,116	45,11
838,528	44,9
838,94	45,01
839,352	44,68
839,765	44,87
840,177	45
840,589	45,08
841	44,71
841,412	45,09
841,824	44,55
842,235	44,38
842,647	44,48
843,058	44,89
843,47	44,74
843,881	44,93
844,292	44,74
844,703	44,88
845,114	44,59
845,525	44,92
845,935	45,11
846,346	44,92
846,757	44,57
847,167	44,55
847,577	44,85
847,988	44,83
848,398	44,56
848,808	44,57
849,218	44,64
849,628	44,71
850,038	44,86
850,448	44,61
850,857	44,68
851,267	44,75
851,676	44,86
852,086	44,79
852,495	44,83
852,904	44,48
853,313	44,44
853,722	44,66
854,131	44,61
854,54	44,3
854,949	44,2
855,357	44,68
855,766	44,55
856,174	44,36
856,583	44,59
856,991	44,42
857,399	44,68
857,807	44,53
858,215	44,77
858,623	44,9
859,031	44,33
859,439	44,72
859,846	44,77
860,254	44,47
860,661	45,02
861,069	44,53
861,476	44,65
861,883	44,55
862,29	44,23
862,697	44,44
863,104	44,47
863,511	44,52
863,918	44,45
864,325	44,77
864,731	44,74
865,138	44,03
865,544	44,43
865,95	44,8
866,357	44,5
866,763	44,55
867,169	44,72
867,575	44,48
867,98	44,58
868,386	44,49
868,792	44,23
869,197	44,32
869,603	44,49
870,008	44,41
870,414	44,41
870,819	44,28
871,224	44,16
871,629	44,4
872,034	44,35
872,439	44,17
872,844	44,51
873,248	44,74
873,653	44,73
874,057	44,05
874,462	44,7
874,866	44,47
875,27	44,51
875,674	44,85
876,078	44,32
876,482	44,43
876,886	44,27
877,29	44,25
877,694	44,32
878,097	44,36
878,501	43,86
878,904	43,78
879,308	43,98
879,711	43,85
880,114	44,27
880,517	44,19
880,92	44,8
881,323	44,73
881,726	44,63
882,128	44,43
882,531	44,21
882,934	44,38
883,336	44,44
883,738	44,1
884,141	44,27
884,543	44,55
884,945	44,55
885,347	44,21
885,749	44,4
886,151	44,81
886,552	44,36
886,954	44,28
887,355	44,26
887,757	44,06
888,158	44,17
888,56	44,34
888,961	44,53
889,362	44,07
889,763	44,36
890,164	44,67
890,565	44,13
890,965	44,46
891,366	44,65
891,767	44,5
892,167	44,29
892,567	44,75
892,968	44,36
893,368	44,04
893,768	44,11
894,168	44,05
894,568	43,8
894,968	44,33
895,368	44,23
895,767	44,44
896,167	44,66
896,566	44,22
896,966	44,68
897,365	44,7
897,764	44,53
898,164	44,19
898,563	44,64
898,962	44,33
899,361	44,87
899,759	44,37
900,158	44,24
900,557	44,58
900,955	44,14
901,354	44,19
901,752	44,09
902,15	43,8
902,548	44,28
902,947	44,39
903,345	44,59
903,742	44,15
904,14	44,28
904,538	44,17
904,936	44,62
905,333	43,98
905,731	44,11
906,128	43,97
906,525	44,41
906,923	44,33
907,32	44,24
907,717	44,18
908,114	44,73
908,511	44,27
908,907	44,49
909,304	44,12
909,701	44,1
910,097	44,65
910,494	43,83
910,89	44,65
911,286	43,87
911,682	44,64
912,078	44,35
912,474	44,14
912,87	44,11
913,266	44,46
913,662	43,97
914,058	43,87
914,453	44,01
914,849	43,92
915,244	44,01
915,639	44,68
916,034	44,2
916,43	44,62
916,825	44,4
917,22	44,49
917,614	44,63
918,009	44,51
918,404	43,69
918,798	43,84
919,193	44,36
919,587	44,31
919,982	44,18
920,376	43,66
920,77	44,22
921,164	44,25
921,558	44,34
921,952	43,87
922,346	43,88
922,74	44,13
923,133	44,27
923,527	44,19
923,92	44,21
924,314	44,17
924,707	44,13
925,1	44,31
925,493	44,46
925,886	43,78
926,279	44,07
926,672	44,35
927,065	44,17
927,457	43,92
927,85	43,87
928,243	43,75
928,635	44,09
929,027	44,35
929,42	44,61
929,812	44,23
930,204	44,75
930,596	44,32
930,988	44,13
931,379	44,37
931,771	44,3
932,163	43,96
932,554	43,94
932,946	43,62
933,337	43,98
933,729	44,44
934,12	43,87
934,511	44,49
934,902	44,4
935,293	43,88
935,684	44,33
936,075	44,94
936,465	44,56
936,856	43,88
937,246	44,68
937,637	44,43
938,027	44,56
938,417	43,64
938,808	43,84
939,198	43,58
939,588	44,87
939,978	44,75
940,368	43,96
940,757	44,53
941,147	44,21
941,537	44,32
941,926	45,68
942,315	45,54
942,705	44,14
943,094	44,78
943,483	43,84
943,872	43,05
944,261	43,83
944,65	44,07
945,039	45,18
945,428	44,56
945,816	44,21
946,205	43,93
946,593	44,26
946,982	43,92
947,37	44,31
947,758	43,81
948,146	43,62
948,534	44,55
948,922	44,22
949,31	44,48
949,698	44,79
950,086	44,58
950,473	44,05
950,861	44,54
951,248	43,64
951,636	44,63
952,023	43,48
952,41	43,57
952,797	43,84
953,184	44,87
953,571	43,89
953,958	43,6
954,345	43,67
954,731	44,59
955,118	43,83
955,505	43,43
955,891	44,05
956,277	43,67
956,664	43,39
957,05	43,32
957,436	43,61
957,822	43,19
958,208	43,57
958,594	43,38
958,979	43,62
959,365	43,08
959,751	43,37
960,136	43,13
960,522	43,06
960,907	43,6
961,292	42,88
961,677	44,21
962,062	43,28
962,447	43,62
962,832	43,64
963,217	43,47
963,602	43,49
963,986	43,74
964,371	42,76
964,756	43,47
965,14	43,36
965,524	44,11
965,908	43,27
966,293	43
966,677	43,05
967,061	44,32
967,445	43,25
967,828	43,89
968,212	43,8
968,596	43,65
968,979	43,87
969,363	43,71
969,746	43,84
970,129	43,06
970,513	43,24
970,896	43,45
971,279	43,38
971,662	43,49
972,045	42,97
972,428	43,98
972,81	43,85
973,193	43,92
973,575	43,12
973,958	42,84
974,34	43,59
974,723	43,88
975,105	43,34
975,487	43,71
975,869	43,35
976,251	43,51
976,633	43,51
977,015	43,38
977,396	43,59
977,778	43,47
978,16	43,09
978,541	43,32
978,922	43,68
979,304	43,53
979,685	44,08
980,066	43,08
980,447	43,42
980,828	43,69
981,209	43,02
981,59	43,48
981,97	43,48
982,351	43,45
982,732	43,87
983,112	43,36
983,493	43,84
983,873	44,05
984,253	43,99
984,633	43,88
985,013	43,59
985,393	44,25
985,773	44,09
986,153	43,66
986,533	44,04
986,912	43,96
987,292	44,25
987,671	43,73
988,051	44,4
988,43	43,28
988,809	43,28
989,188	43,84
989,567	43,63
989,946	44,29
990,325	43,63
990,704	43,77
991,083	43,93
991,461	44,08
991,84	44,07
992,218	43,28
992,597	44,22
992,975	44,16
993,353	43,84
993,732	43,79
994,11	44,28
994,488	43,85
994,866	43,72
995,243	44,07
995,621	44,33
995,999	44,03
996,376	43,48
996,754	44,08
997,131	44,31
997,509	44,54
997,886	44,28
998,263	44,27
998,64	44,4
999,017	44,11
999,394	43,91
999,771	44,92
1000,148	44,66
1000,524	43,7
1000,901	43,88
1001,277	44,4
1001,654	44,51
1002,03	44,36
1002,406	44,31
1002,783	44,5
1003,159	44,46
1003,535	44,23
1003,911	44,56
1004,286	43,8
1004,662	44,67
1005,038	44,87
1005,414	44,47
1005,789	44,02
1006,164	44,31
1006,54	44,92
1006,915	44,29
1007,29	43,8
1007,665	43,66
1008,04	44,36
1008,415	44,31
1008,79	44,28
1009,165	44,21
1009,54	43,64
1009,914	45,39
1010,289	45,16
1010,663	44,88
1011,038	44,76
1011,412	44,51
1011,786	45,07
1012,16	44,74
1012,535	44,35
1012,909	45,63
1013,282	45,24
1013,656	45,03
1014,03	44,81
1014,404	44,64
1014,777	44,24
1015,151	44,84
1015,524	44,85
1015,897	44,32
1016,271	44,69
1016,644	44,59
1017,017	44,99
1017,39	44,88
1017,763	43,98
1018,136	45,46
1018,508	45,33
1018,881	44,87
1019,254	45,46
1019,626	44,35
1019,999	44,07
1020,371	45,22
1020,743	44,92
1021,116	44,27
1021,488	45,86
1021,86	45,95
1022,232	45,85
1022,604	45,11
1022,975	45,82
1023,347	44,82
1023,719	45,09
1024,09	45,46
1024,462	44,93
1024,833	46,53
1025,204	45,99
1025,576	44,87
1025,947	44,69
1026,318	45,83
1026,689	46,21
1027,06	45,76
1027,431	45,87
1027,801	45,49
1028,172	45,58
1028,543	46,12
1028,913	46,21
1029,284	45,57
1029,654	46,18
1030,024	45,38
1030,394	45,83
1030,764	45,05
1031,135	45,85
1031,504	45,9
1031,874	45,62
1032,244	45,09
1032,614	45,61
1032,983	45,9
1033,353	45,57
1033,722	46,14
1034,092	45,56
1034,461	46,04
1034,83	46,1
1035,2	46,45
1035,569	46,05
1035,938	46,09
1036,307	46,67
1036,675	45,98
1037,044	46,67
1037,413	46,79
1037,781	46,89
1038,15	47,47
1038,518	46,69
1038,887	47,57
1039,255	46,38
1039,623	46,34
1039,991	47,02
1040,359	45,12
1040,727	46,83
1041,095	47,24
1041,463	46,67
1041,831	46,75
1042,198	45,43
1042,566	47,65
1042,933	47,37
1043,301	46,13
1043,668	46,39
1044,035	46,56
1044,402	46,87
1044,77	45,98
1045,137	46,98
1045,503	46,84
1045,87	46,31
1046,237	46,33
1046,604	47,56
1046,97	46,76
1047,337	47,17
1047,703	46,71
1048,07	46,51
1048,436	48,07
1048,802	47,38
1049,168	48,12
1049,534	47,47
1049,9	49,05
1050,266	47,61
1050,632	46,65
1050,998	48,31
1051,364	48,22
1051,729	48,57
1052,095	47,56
1052,46	47,7
1052,825	48,28
1053,191	47,34
1053,556	46,91
1053,921	47
1054,286	47,86
1054,651	49,02
1055,016	49,19
1055,381	48,23
1055,745	47,32
1056,11	47,86
1056,475	49,55
1056,839	47,43
1057,203	47,93
1057,568	47,1
1057,932	47,36
1058,296	48,03
1058,66	48,19
1059,024	48,98
1059,388	48,74
1059,752	47,75
1060,116	48,6
1060,48	49,75
1060,843	47,48
1061,207	48,37
1061,57	49,29
1061,934	48,33
1062,297	48,6
1062,66	48,68
1063,023	49,72
1063,386	49,92
1063,749	50,57
1064,112	48,07
1064,475	48,94
1064,838	49,26
1065,201	50
1065,563	48,85
1065,926	47,98
1066,288	49,05
1066,651	50,59
1067,013	48,54
1067,375	49,13
1067,737	51,36
1068,099	49,01
1068,461	49,51
1068,823	48,94
1069,185	48,85
1069,547	51,07
1069,909	46,73
1070,27	49,35
1070,632	49,75
1070,993	49,57
1071,355	49,38
1071,716	49,5
1072,077	49,95
1072,438	48,81
1072,799	49,32
1073,16	52,13
1073,521	48,97
1073,882	49,87
1074,243	49,46
1074,603	49,01
1074,964	48,87
1075,325	49,63
1075,685	47,71
1076,045	49,46
1076,406	49,58
1076,766	50,41
1077,126	50,89
1077,486	51,99
1077,846	51,5
1078,206	49,56
1078,566	49,15
1078,925	50,03
1079,285	49,79
1079,645	50,27
1080,004	49,55
1080,364	49,73
1080,723	50,44
1081,082	51,5
1081,442	49,06
1081,801	49,9
1082,16	50,98
1082,519	49,13
1082,878	51,68
1083,237	50,1
1083,595	51,53
1083,954	50,51
1084,313	49,87
1084,671	51,51
1085,03	50,17
1085,388	49,65
1085,746	51,05
1086,104	51,39
1086,463	51,55
1086,821	51,51
1087,179	51,91
1087,537	50,57
1087,894	50,49
1088,252	50,77
1088,61	50,23
1088,967	51,02
1089,325	52,6
1089,682	51,67
1090,04	53,67
1090,397	50,2
1090,754	51,67
1091,111	49,84
1091,469	52,12
1091,826	51,72
1092,182	52,81
1092,539	51,67
1092,896	53,02
1093,253	51,88
1093,609	53,31
1093,966	51,07
1094,322	52,19
1094,679	50,14
1095,035	53,33
1095,391	52,1
1095,748	52,76
1096,104	51,51
1096,46	53,24
1096,816	51,98
1097,171	51,23
1097,527	53,4
1097,883	52,67
1098,239	50,4
1098,594	51,56
1098,95	52,94
1099,305	54,42
1099,66	53,86
1100,016	51,59
1100,371	54,67
1100,726	54,29
1101,081	51,22
1101,436	54,66
1101,791	57,56
1102,146	53,62
1102,5	54,47
1102,855	51,64
1103,21	53,9
1103,564	53,6
1103,918	52,97
1104,273	55,51
1104,627	56,13
1104,981	52,47
1105,335	52,84
1105,69	58,78
1106,043	55,1
1106,397	53,26
1106,751	55,01
1107,105	57,2
1107,459	53,91
1107,812	56,26
1108,166	56,29
1108,519	56,81
1108,873	55,18
1109,226	59,81
1109,579	55,7
1109,932	56
1110,285	59,56
1110,638	58,97
1110,991	57,6
1111,344	55,98
1111,697	58,28
1112,05	54,85
1112,402	61,86
1112,755	56,43
1113,107	61,34
1113,46	60,18
1113,812	62,61
1114,164	65,09
1114,517	61,28
1114,869	141,67
1115,221	162,28
1115,573	146,97
1115,924	160,38
