Data from D5___Relative__8__00072.txt Node

Date: Wed Jan 31 18:24:20 CET 2024
User: diatiterra
Spectrometer: HDX00911
Trigger mode: 0
Integration Time (sec): 6,000000E-3
Scans to average: 2
Nonlinearity correction enabled: false
Boxcar width: 0
Storing dark spectrum: false
XAxis mode: Wavelengths
Number of Pixels in Spectrum: 2068
>>>>>Begin Spectral Data<<<<<
194,468	219,81
195,025	157,27
195,581	198,78
196,138	203,85
196,694	137,04
197,251	115,15
197,807	90,94
198,363	90,8
198,919	83,79
199,474	97,06
200,03	102,46
200,586	104,46
201,141	76,77
201,696	82,89
202,251	91,67
202,806	85,66
203,361	93,7
203,916	89,24
204,471	90,88
205,025	102,02
205,58	91,79
206,134	86
206,688	95,38
207,242	104,87
207,796	96,99
208,35	89,86
208,904	89,31
209,457	79,17
210,011	82,27
210,564	90,49
211,117	95,49
211,67	101,12
212,223	86,99
212,776	95,16
213,329	83,67
213,881	110,78
214,434	87,5
214,986	104,55
215,538	95,22
216,09	82,04
216,642	102,07
217,194	95,08
217,746	98,12
218,297	87,4
218,849	91,91
219,4	111,34
219,951	95,97
220,502	92,57
221,053	104,96
221,604	90,6
222,155	92,46
222,705	87,13
223,256	100,37
223,806	95,67
224,356	89,62
224,906	99,6
225,456	98,45
226,006	92,46
226,556	77,6
227,106	98,79
227,655	86,11
228,204	95,83
228,754	83,45
229,303	85,36
229,852	85,61
230,401	90,67
230,949	89,57
231,498	85,21
232,047	75,65
232,595	88,62
233,143	96,46
233,691	90,7
234,239	81,43
234,787	86,8
235,335	89,55
235,883	82,52
236,43	92,42
236,978	96,92
237,525	87,59
238,072	86,17
238,619	88,64
239,166	84,4
239,713	86,5
240,26	88,93
240,806	92,71
241,353	82,94
241,899	83,22
242,445	77,37
242,991	95,04
243,537	83,33
244,083	94,66
244,629	87,31
245,174	94,25
245,72	86,67
246,265	84,92
246,81	85,2
247,355	93,25
247,9	81,34
248,445	98,41
248,99	81,82
249,534	103,04
250,079	89,1
250,623	91,48
251,168	99,17
251,712	87,89
252,256	91,8
252,8	96,15
253,343	87,86
253,887	88,71
254,43	92,75
254,974	98,47
255,517	89,38
256,06	97,31
256,603	90,74
257,146	91,86
257,689	102,76
258,232	105,08
258,774	93,26
259,317	110,17
259,859	106,42
260,401	108,53
260,943	88,65
261,485	91,49
262,027	93,6
262,569	96,27
263,11	94,62
263,652	103,54
264,193	98,76
264,734	91,97
265,275	102,05
265,816	97,33
266,357	98,06
266,898	102,31
267,438	98,03
267,979	90,29
268,519	94,4
269,059	109,35
269,6	98,87
270,14	109,27
270,68	95,65
271,219	102,54
271,759	93,98
272,298	92,11
272,838	90,77
273,377	106,35
273,916	84,17
274,455	102,92
274,994	91,6
275,533	96,01
276,072	90,65
276,61	90,22
277,149	97,92
277,687	97,37
278,225	87
278,763	110,96
279,301	97,08
279,839	95,97
280,377	101,64
280,914	88,81
281,452	110,26
281,989	96,28
282,526	91,34
283,064	96,22
283,601	80,74
284,137	101,24
284,674	95
285,211	109,21
285,747	94,7
286,284	99,55
286,82	103,31
287,356	81,91
287,892	94,96
288,428	97,93
288,964	103,78
289,5	100,41
290,035	94,4
290,571	96,22
291,106	101,63
291,641	110,71
292,176	94,92
292,711	99,19
293,246	95,38
293,781	97,93
294,315	86,27
294,85	114,81
295,384	88,93
295,918	90,44
296,453	79,48
296,987	86,36
297,52	85,54
298,054	95,04
298,588	101,25
299,121	87,69
299,655	90,88
300,188	90,42
300,721	95,53
301,254	91,94
301,787	91,02
302,32	101,22
302,853	96
303,385	83,21
303,918	92,64
304,45	95,38
304,982	81,56
305,514	100,39
306,046	85,95
306,578	88,76
307,11	90,7
307,641	97,41
308,173	93,39
308,704	85,54
309,236	80,45
309,767	86,17
310,298	87,9
310,829	100,87
311,359	92,74
311,89	96,64
312,421	97,75
312,951	102,85
313,481	84,48
314,012	87,69
314,542	97,46
315,072	88,17
315,601	92,8
316,131	104,72
316,661	86,25
317,19	92,22
317,72	109,09
318,249	95,63
318,778	93,36
319,307	87,89
319,836	95,58
320,365	96,52
320,893	96,28
321,422	104,88
321,95	98,5
322,479	96,95
323,007	97,27
323,535	89,29
324,063	102
324,591	94
325,118	92,7
325,646	106,3
326,173	95,42
326,701	101,22
327,228	106,9
327,755	92,48
328,282	99,62
328,809	98,73
329,336	99,21
329,862	92,28
330,389	92,58
330,915	93,31
331,441	95,04
331,968	99,55
332,494	90,91
333,02	94,17
333,545	88,43
334,071	106,2
334,597	79,23
335,122	87,78
335,648	104,74
336,173	86,36
336,698	77,22
337,223	90,44
337,748	88,19
338,272	85,27
338,797	93,12
339,322	79,93
339,846	80,51
340,37	100,81
340,894	82,99
341,419	87,97
341,942	80,77
342,466	84,29
342,99	84,9
343,514	84,86
344,037	71,2
344,56	96,67
345,084	75,68
345,607	84,03
346,13	78,17
346,653	79,33
347,175	74,68
347,698	75,16
348,221	83,21
348,743	74,22
349,265	76,98
349,787	66,87
350,309	70,25
350,831	74,69
351,353	74,39
351,875	68,42
352,397	78,67
352,918	76,97
353,439	75,5
353,961	61,92
354,482	74,27
355,003	65,99
355,524	71,39
356,044	67,33
356,565	71,39
357,086	71,75
357,606	61,54
358,126	62,77
358,646	64,03
359,167	71,62
359,687	66,95
360,206	65,85
360,726	57,35
361,246	62,77
361,765	64,97
362,285	58,25
362,804	64,74
363,323	54,15
363,842	60,44
364,361	62,19
364,88	60,34
365,398	60,04
365,917	56,84
366,435	65,36
366,954	58,48
367,472	55,9
367,99	58,77
368,508	51,62
369,026	57,27
369,544	58,11
370,061	55,88
370,579	52,05
371,096	62,16
371,613	47,84
372,131	46,65
372,648	49,21
373,165	53,12
373,681	47,05
374,198	57,42
374,715	48,31
375,231	46,21
375,747	46,9
376,264	43,54
376,78	47,3
377,296	49,63
377,812	45,85
378,327	49,17
378,843	47,1
379,359	45,03
379,874	46,89
380,389	44,64
380,905	40,15
381,42	41,19
381,935	42,68
382,449	39,53
382,964	39,29
383,479	37,36
383,993	37,12
384,508	38,32
385,022	34,84
385,536	34,74
386,05	38,06
386,564	34,33
387,078	35,77
387,592	32,73
388,105	34,99
388,619	32,48
389,132	31,69
389,645	32,76
390,158	29,51
390,671	29,94
391,184	28,34
391,697	28,96
392,21	26,41
392,722	27,78
393,235	27,67
393,747	28,89
394,259	28,37
394,771	26,97
395,283	26,37
395,795	26,31
396,307	27,48
396,818	28,68
397,33	21,94
397,841	25,58
398,353	25,89
398,864	24,38
399,375	22,04
399,886	22,83
400,397	22,31
400,907	22,8
401,418	21,94
401,928	20,31
402,439	21,27
402,949	20,25
403,459	19,27
403,969	20,17
404,479	18,46
404,989	18,17
405,498	18,53
406,008	17,62
406,517	17,17
407,027	14,58
407,536	14,77
408,045	14,15
408,554	14,31
409,063	13,54
409,572	12,52
410,08	12,82
410,589	12,5
411,097	11,63
411,606	12,6
412,114	11,23
412,622	11,49
413,13	10,78
413,638	10,93
414,145	10,01
414,653	10,11
415,16	9,72
415,668	9,24
416,175	8,65
416,682	8,55
417,189	8,5
417,696	8,46
418,203	8,72
418,71	8,23
419,216	7,94
419,723	7,37
420,229	7,51
420,735	7,54
421,242	7,55
421,748	7,87
422,254	7,72
422,759	7,3
423,265	7,77
423,771	6,77
424,276	6,58
424,781	6,8
425,287	7,19
425,792	6,46
426,297	6,88
426,802	6,29
427,306	6,4
427,811	6,12
428,316	6,27
428,82	6,3
429,324	6,47
429,829	6,44
430,333	5,84
430,837	6,05
431,34	6,04
431,844	5,93
432,348	5,69
432,851	5,6
433,355	5,85
433,858	5,6
434,361	5,11
434,864	5,74
435,367	5,82
435,87	6,09
436,373	5,69
436,876	5,72
437,378	5,45
437,88	5,04
438,383	5,66
438,885	5,51
439,387	5,28
439,889	5,35
440,391	5,57
440,892	5,43
441,394	5,48
441,896	5,42
442,397	5,37
442,898	5,15
443,399	5,49
443,9	5,19
444,401	5,27
444,902	5,08
445,403	5,28
445,903	5,46
446,404	5,13
446,904	5,43
447,405	5
447,905	5,15
448,405	5,25
448,905	5,39
449,404	5,47
449,904	5,05
450,404	5,1
450,903	5,56
451,403	5,1
451,902	5,67
452,401	5,33
452,9	5,49
453,399	5,15
453,898	5,07
454,396	5,35
454,895	5,33
455,393	5,2
455,892	5,16
456,39	5,19
456,888	5,45
457,386	5,06
457,884	5,27
458,382	5,43
458,879	5,3
459,377	5,61
459,874	5,38
460,372	5,24
460,869	5,42
461,366	5,19
461,863	5,22
462,36	5,43
462,857	5,42
463,353	5,12
463,85	5,18
464,346	5,01
464,843	5,28
465,339	4,92
465,835	5,1
466,331	5,22
466,827	5,17
467,323	5,2
467,818	5,31
468,314	5,25
468,809	5,1
469,305	4,91
469,8	5,04
470,295	5,02
470,79	5,19
471,285	5,02
471,78	4,78
472,274	5,03
472,769	4,89
473,263	4,87
473,758	4,91
474,252	4,83
474,746	5,04
475,24	4,99
475,734	4,82
476,228	5,16
476,721	4,91
477,215	4,94
477,708	4,9
478,202	5,05
478,695	5,08
479,188	4,89
479,681	5,15
480,174	4,94
480,667	5,13
481,159	5,02
481,652	4,81
482,144	5,18
482,637	5,15
483,129	4,86
483,621	4,82
484,113	5,07
484,605	5,21
485,097	4,91
485,588	4,98
486,08	5,27
486,571	5,17
487,063	5,05
487,554	5,05
488,045	5,21
488,536	5,15
489,027	5,11
489,518	5,17
490,008	4,9
490,499	5,38
490,989	4,97
491,48	5,43
491,97	5,2
492,46	5,28
492,95	5,37
493,44	5,23
493,93	5,41
494,419	5,49
494,909	5,41
495,398	5,55
495,888	5,42
496,377	5,88
496,866	5,81
497,355	5,77
497,844	5,99
498,333	5,99
498,821	5,92
499,31	6,1
499,798	6,05
500,287	6,21
500,775	6,11
501,263	6,33
501,751	6,52
502,239	6,78
502,727	6,8
503,215	6,94
503,702	7
504,19	6,98
504,677	7,15
505,164	7,57
505,651	7,43
506,139	7,48
506,625	7,68
507,112	7,9
507,599	8,05
508,086	8,21
508,572	8,63
509,058	8,68
509,545	8,63
510,031	9,1
510,517	9,14
511,003	8,96
511,489	9,79
511,974	9,92
512,46	10,13
512,946	10,06
513,431	10,43
513,916	10,53
514,401	11,13
514,887	10,99
515,371	11,51
515,856	11,65
516,341	11,73
516,826	11,99
517,31	12,06
517,795	12,72
518,279	12,72
518,763	13,24
519,247	13,25
519,731	13,89
520,215	14,17
520,699	14,12
521,182	14,57
521,666	14,94
522,149	15,11
522,633	15,55
523,116	15,53
523,599	16,11
524,082	16,11
524,565	16,15
525,048	16,66
525,53	16,74
526,013	17,35
526,495	17,49
526,978	17,68
527,46	17,7
527,942	17,95
528,424	17,77
528,906	18,24
529,388	18,42
529,87	19,03
530,351	18,57
530,833	19,02
531,314	19,4
531,795	19,23
532,277	19,66
532,758	19,76
533,238	19,33
533,719	19,95
534,2	19,59
534,681	20,24
535,161	20,28
535,642	20,42
536,122	20,14
536,602	20,53
537,082	20,59
537,562	20,76
538,042	20,59
538,522	20,93
539,001	20,86
539,481	21,17
539,96	20,79
540,44	20,85
540,919	21,24
541,398	21,08
541,877	20,71
542,356	20,71
542,835	20,82
543,313	21,17
543,792	21,29
544,27	20,95
544,749	21,12
545,227	21,38
545,705	21,62
546,183	21,56
546,661	21,77
547,139	21,58
547,616	21,3
548,094	21,52
548,571	21,37
549,049	21,87
549,526	21,65
550,003	21,86
550,48	21,51
550,957	21,94
551,434	21,81
551,911	21,68
552,387	21,67
552,864	21,63
553,34	22
553,817	21,93
554,293	21,73
554,769	21,61
555,245	21,7
555,721	21,87
556,197	21,89
556,672	21,79
557,148	21,77
557,623	21,79
558,099	21,54
558,574	21,79
559,049	21,03
559,524	21,57
559,999	21,32
560,474	21,31
560,948	20,94
561,423	21,18
561,897	21,05
562,372	21,22
562,846	21
563,32	20,82
563,794	20,81
564,268	20,72
564,742	20,71
565,216	20,71
565,69	20,24
566,163	20,4
566,636	19,9
567,11	20,01
567,583	19,55
568,056	19,59
568,529	19,54
569,002	19,5
569,475	19,09
569,947	19,06
570,42	18,85
570,892	18,67
571,365	18,67
571,837	18,43
572,309	18,24
572,781	18,17
573,253	17,76
573,725	17,71
574,197	17,73
574,668	17,68
575,14	17,21
575,611	17,11
576,082	16,93
576,554	16,98
577,025	16,79
577,496	16,71
577,967	16,44
578,437	16,72
578,908	16,21
579,379	16,25
579,849	16,15
580,319	15,94
580,79	15,7
581,26	15,5
581,73	15,42
582,2	15,49
582,669	15,26
583,139	15,39
583,609	15,06
584,078	15,37
584,548	15,17
585,017	15,05
585,486	14,82
585,955	14,99
586,424	14,62
586,893	14,54
587,362	14,57
587,83	14,59
588,299	14,38
588,767	14,36
589,236	14,23
589,704	14,14
590,172	14,24
590,64	14,12
591,108	13,88
591,576	13,94
592,043	13,96
592,511	13,97
592,978	13,87
593,446	13,71
593,913	13,55
594,38	13,58
594,847	13,6
595,314	13,6
595,781	13,46
596,248	13,45
596,715	13,38
597,181	13,37
597,647	13,35
598,114	13,45
598,58	13,35
599,046	13,26
599,512	13,41
599,978	13,11
600,444	13,12
600,91	12,99
601,375	12,96
601,841	13,35
602,306	13,01
602,771	13,21
603,236	12,85
603,702	13,01
604,167	13,04
604,631	12,75
605,096	12,83
605,561	12,68
606,025	12,69
606,49	12,47
606,954	12,51
607,418	12,22
607,882	12,37
608,347	12,11
608,81	12,24
609,274	12,17
609,738	12,07
610,202	12,02
610,665	11,95
611,128	11,68
611,592	11,66
612,055	11,74
612,518	11,39
612,981	11,64
613,444	11,44
613,907	11,34
614,369	11,24
614,832	11,12
615,294	11,06
615,757	10,98
616,219	11,15
616,681	10,82
617,143	10,88
617,605	10,67
618,067	10,61
618,529	10,63
618,99	10,67
619,452	10,36
619,913	10,34
620,375	10,51
620,836	10,53
621,297	10,36
621,758	10,34
622,219	10,2
622,68	10,31
623,14	10,17
623,601	10,18
624,061	10,08
624,522	10,02
624,982	10,09
625,442	9,98
625,902	9,95
626,362	9,88
626,822	9,9
627,282	9,87
627,742	9,97
628,201	9,82
628,661	9,89
629,12	9,83
629,579	9,84
630,038	9,93
630,497	10
630,956	9,84
631,415	9,85
631,874	9,83
632,332	9,6
632,791	9,9
633,249	9,63
633,708	9,8
634,166	9,51
634,624	9,34
635,082	9,37
635,54	9,32
635,998	9,2
636,455	9,28
636,913	9,1
637,37	9,21
637,828	9,01
638,285	8,83
638,742	8,87
639,199	8,78
639,656	8,73
640,113	8,45
640,57	8,43
641,027	8,38
641,483	8,16
641,94	8,14
642,396	8,14
642,852	8,03
643,309	7,74
643,765	7,68
644,221	7,62
644,676	7,41
645,132	7,43
645,588	7,36
646,043	7,15
646,499	7,22
646,954	7,08
647,409	6,98
647,864	6,77
648,319	6,67
648,774	6,66
649,229	6,64
649,684	6,54
650,139	6,58
650,593	6,46
651,047	6,41
651,502	6,36
651,956	6,35
652,41	6,27
652,864	6,24
653,318	6,28
653,772	6,27
654,225	6,17
654,679	6,14
655,133	6,12
655,586	6,04
656,039	5,95
656,492	5,98
656,946	5,92
657,399	5,87
657,851	5,84
658,304	5,71
658,757	5,79
659,209	5,68
659,662	5,54
660,114	5,47
660,567	5,49
661,019	5,34
661,471	5,25
661,923	5,25
662,375	5,17
662,826	5,22
663,278	5,11
663,73	5
664,181	4,95
664,632	5,04
665,084	4,97
665,535	4,89
665,986	4,9
666,437	4,92
666,888	4,94
667,338	4,88
667,789	4,91
668,24	4,79
668,69	4,83
669,14	4,86
669,591	4,81
670,041	4,92
670,491	4,96
670,941	4,93
671,391	4,97
671,84	5,07
672,29	5,03
672,74	5,04
673,189	5,2
673,638	5,14
674,088	5,25
674,537	5,37
674,986	5,27
675,435	5,47
675,883	5,63
676,332	5,55
676,781	5,74
677,229	5,75
677,678	5,82
678,126	5,91
678,574	6,06
679,022	6,15
679,47	6,28
679,918	6,34
680,366	6,45
680,814	6,52
681,261	6,58
681,709	6,76
682,156	6,72
682,604	7,05
683,051	7,08
683,498	7,14
683,945	7,24
684,392	7,5
684,839	7,55
685,286	7,64
685,732	7,77
686,179	7,79
686,625	8,06
687,071	8,14
687,518	8,24
687,964	8,47
688,41	8,64
688,856	8,83
689,301	9,16
689,747	9,39
690,193	9,64
690,638	9,7
691,084	10,13
691,529	10,6
691,974	10,92
692,419	11,28
692,864	11,91
693,309	12,02
693,754	12,47
694,199	12,95
694,643	13,47
695,088	13,81
695,532	14,58
695,977	14,82
696,421	15,28
696,865	15,73
697,309	16,26
697,753	16,75
698,197	17,3
698,64	17,65
699,084	18,42
699,527	18,64
699,971	19,06
700,414	19,64
700,857	20,11
701,3	20,35
701,743	21,06
702,186	21,59
702,629	22,13
703,072	22,54
703,515	22,81
703,957	23,12
704,399	23,71
704,842	23,91
705,284	24,43
705,726	24,71
706,168	25,06
706,61	25,75
707,052	25,79
707,494	26,37
707,935	26,56
708,377	27,21
708,818	27,58
709,26	27,92
709,701	28,04
710,142	28,9
710,583	28,61
711,024	29,14
711,465	29,57
711,905	29,71
712,346	29,82
712,787	30,17
713,227	30,65
713,667	30,86
714,108	31,31
714,548	31,57
714,988	31,88
715,428	32,41
715,868	32,61
716,307	32,44
716,747	32,89
717,186	33,22
717,626	33,24
718,065	33,83
718,504	33,74
718,944	34,38
719,383	34,35
719,822	34,54
720,261	34,64
720,699	35,2
721,138	35,11
721,576	35,34
722,015	35,8
722,453	35,82
722,892	35,96
723,33	36,37
723,768	36,81
724,206	36,69
724,644	36,79
725,081	36,9
725,519	36,92
725,957	37,31
726,394	37,4
726,832	37,56
727,269	37,53
727,706	37,56
728,143	37,48
728,58	38,17
729,017	37,93
729,454	38,43
729,89	38,47
730,327	38,47
730,764	38,69
731,2	38,68
731,636	38,88
732,072	39,02
732,509	39,08
732,945	39,02
733,38	39,16
733,816	39,12
734,252	39,37
734,688	39,31
735,123	39,5
735,559	39,5
735,994	39,29
736,429	39,76
736,864	39,91
737,299	39,72
737,734	39,68
738,169	39,62
738,604	39,99
739,038	39,65
739,473	39,86
739,907	39,78
740,342	39,65
740,776	40,01
741,21	39,67
741,644	40,17
742,078	39,8
742,512	39,75
742,946	40,1
743,379	39,68
743,813	39,93
744,246	40
744,68	39,85
745,113	39,7
745,546	39,96
745,979	39,95
746,412	39,66
746,845	39,88
747,278	39,63
747,711	39,52
748,143	39,79
748,576	40,07
749,008	39,72
749,441	39,63
749,873	39,51
750,305	39,62
750,737	39,59
751,169	39,42
751,601	39,54
752,032	39,72
752,464	39,41
752,896	39,16
753,327	39,53
753,758	39,42
754,19	39,59
754,621	39,17
755,052	39,23
755,483	39,36
755,914	39,7
756,344	39,19
756,775	39,46
757,206	39,04
757,636	39,38
758,066	39,24
758,497	39,33
758,927	39,38
759,357	39,33
759,787	39,25
760,217	38,95
760,647	38,87
761,076	38,83
761,506	38,88
761,935	38,8
762,365	38,87
762,794	38,56
763,223	39,05
763,653	38,74
764,082	38,5
764,51	38,56
764,939	38,45
765,368	38,53
765,797	38,6
766,225	38,81
766,654	38,39
767,082	38,23
767,51	38,58
767,938	38,18
768,367	38,23
768,795	38,27
769,222	38,69
769,65	38,49
770,078	38,24
770,505	38,41
770,933	38,53
771,36	38,61
771,788	38,18
772,215	38,25
772,642	38,16
773,069	38,12
773,496	37,86
773,923	37,92
774,349	37,88
774,776	38,02
775,203	38
775,629	38,3
776,055	37,65
776,482	37,84
776,908	37,61
777,334	37,95
777,76	38,09
778,186	38,21
778,611	37,92
779,037	37,95
779,463	37,99
779,888	37,87
780,314	37,89
780,739	37,96
781,164	38,11
781,589	37,87
782,014	37,67
782,439	37,73
782,864	37,89
783,289	38
783,713	37,81
784,138	37,79
784,562	37,48
784,987	37,76
785,411	37,7
785,835	37,49
786,259	37,74
786,683	38,01
787,107	37,51
787,531	37,64
787,954	37,86
788,378	37,46
788,802	37,6
789,225	37,26
789,648	37,58
790,071	37,34
790,495	37,5
790,918	37,74
791,34	37,46
791,763	37,63
792,186	37,42
792,609	37,57
793,031	37,4
793,454	37,38
793,876	37,76
794,298	37,64
794,721	37,36
795,143	37,74
795,565	37,18
795,986	37,46
796,408	37,6
796,83	37,36
797,252	37,45
797,673	37,71
798,094	37,61
798,516	37,5
798,937	37,78
799,358	37,36
799,779	37,25
800,2	37,33
800,621	37,48
801,042	37,16
801,462	37,85
801,883	37,29
802,303	37,05
802,724	37,51
803,144	37,43
803,564	37,44
803,984	37,54
804,404	37,46
804,824	37,53
805,244	37,25
805,664	37,54
806,084	37,59
806,503	37,51
806,923	37,37
807,342	37,3
807,761	37,01
808,18	37,32
808,599	37,15
809,018	37,17
809,437	37,05
809,856	37,15
810,275	37,43
810,693	37,25
811,112	37,54
811,53	37,87
811,949	37,07
812,367	37,53
812,785	37,47
813,203	37,3
813,621	37,29
814,039	37,42
814,457	37,24
814,874	36,98
815,292	37,36
815,709	37,11
816,127	37,42
816,544	37,31
816,961	37,26
817,378	37,55
817,795	37,39
818,212	37,57
818,629	37,58
819,046	37,21
819,462	37,07
819,879	37,24
820,295	37,01
820,712	37,14
821,128	37,09
821,544	37,2
821,96	37,22
822,376	37,21
822,792	37,38
823,208	37,15
823,624	37,34
824,039	37,3
824,455	37,47
824,87	37,01
825,286	37,12
825,701	37,32
826,116	37,37
826,531	37,25
826,946	37,21
827,361	37,14
827,776	37,35
828,19	37,06
828,605	36,93
829,02	37,2
829,434	37,12
829,848	37,03
830,263	37,31
830,677	36,91
831,091	36,9
831,505	36,7
831,919	37,21
832,332	37,09
832,746	37,28
833,16	36,83
833,573	36,94
833,987	37,4
834,4	36,73
834,813	36,83
835,226	36,87
835,639	37,06
836,052	36,66
836,465	37,03
836,878	36,81
837,29	36,95
837,703	36,88
838,116	36,92
838,528	37,1
838,94	36,87
839,352	37,1
839,765	36,89
840,177	37,18
840,589	37,14
841	37,1
841,412	36,98
841,824	36,97
842,235	36,89
842,647	36,74
843,058	37,21
843,47	37,29
843,881	37,07
844,292	36,7
844,703	37,26
845,114	36,86
845,525	37,01
845,935	36,63
846,346	36,87
846,757	36,94
847,167	36,67
847,577	37,1
847,988	36,95
848,398	36,65
848,808	36,79
849,218	36,95
849,628	36,95
850,038	36,93
850,448	36,82
850,857	36,87
851,267	36,91
851,676	37,01
852,086	37,05
852,495	36,94
852,904	36,69
853,313	36,88
853,722	37,11
854,131	36,99
854,54	36,69
854,949	36,42
855,357	36,83
855,766	36,41
856,174	36,97
856,583	36,69
856,991	36,48
857,399	37,2
857,807	36,73
858,215	36,78
858,623	37,45
859,031	36,66
859,439	36,91
859,846	36,91
860,254	36,72
860,661	37,3
861,069	36,71
861,476	36,87
861,883	36,34
862,29	36,7
862,697	36,96
863,104	36,6
863,511	36,61
863,918	36,53
864,325	36,67
864,731	36,84
865,138	36,58
865,544	36,63
865,95	36,64
866,357	36,79
866,763	37,02
867,169	36,89
867,575	36,62
867,98	36,75
868,386	36,82
868,792	36,64
869,197	36,93
869,603	36,56
870,008	36,62
870,414	36,99
870,819	36,58
871,224	36,94
871,629	36,77
872,034	36,66
872,439	36,22
872,844	36,75
873,248	36,81
873,653	36,59
874,057	36,65
874,462	36,93
874,866	37,03
875,27	36,62
875,674	37,08
876,078	36,58
876,482	36,88
876,886	36,79
877,29	36,58
877,694	36,96
878,097	36,39
878,501	36,18
878,904	36,36
879,308	36,51
879,711	36,73
880,114	36,75
880,517	36,55
880,92	37,22
881,323	36,82
881,726	36,96
882,128	36,59
882,531	36,74
882,934	36,68
883,336	36,57
883,738	36,66
884,141	36,85
884,543	36,7
884,945	36,76
885,347	36,7
885,749	36,74
886,151	36,91
886,552	36,67
886,954	36,27
887,355	36,63
887,757	36,78
888,158	36,67
888,56	36,77
888,961	36,92
889,362	36,79
889,763	36,67
890,164	37,05
890,565	36,35
890,965	36,54
891,366	36,73
891,767	36,66
892,167	36,53
892,567	36,66
892,968	36,54
893,368	36,53
893,768	36,55
894,168	36,49
894,568	36,3
894,968	36,27
895,368	36,49
895,767	36,43
896,167	36,56
896,566	36,46
896,966	36,59
897,365	36,54
897,764	36,7
898,164	36,7
898,563	36,79
898,962	36,7
899,361	36,86
899,759	36,74
900,158	36,41
900,557	36,62
900,955	36,44
901,354	36,38
901,752	36,62
902,15	36,21
902,548	36,51
902,947	36,72
903,345	37,07
903,742	36,79
904,14	36,48
904,538	36,84
904,936	36,57
905,333	36,52
905,731	36,58
906,128	36,44
906,525	36,75
906,923	36,89
907,32	36,84
907,717	36,7
908,114	36,87
908,511	36,69
908,907	37,25
909,304	36,58
909,701	36,62
910,097	36,93
910,494	36,46
910,89	36,63
911,286	36,65
911,682	36,89
912,078	36,91
912,474	36,82
912,87	36,92
913,266	36,65
913,662	36,29
914,058	36,48
914,453	36,63
914,849	36,48
915,244	36,47
915,639	36,62
916,034	36,7
916,43	36,92
916,825	36,86
917,22	37,12
917,614	36,87
918,009	36,61
918,404	36,25
918,798	36,57
919,193	36,68
919,587	36,71
919,982	36,94
920,376	36,68
920,77	36,14
921,164	36,46
921,558	36,49
921,952	36,58
922,346	36,78
922,74	36,79
923,133	36,31
923,527	36,71
923,92	36,42
924,314	36,3
924,707	36,57
925,1	36,38
925,493	36,73
925,886	36,06
926,279	36,25
926,672	36,73
927,065	36,09
927,457	36,63
927,85	36,4
928,243	36,31
928,635	36,42
929,027	36,69
929,42	36,66
929,812	36,22
930,204	37,27
930,596	36,78
930,988	36,3
931,379	36,23
931,771	37,32
932,163	36,27
932,554	36,57
932,946	36,31
933,337	36,59
933,729	36,53
934,12	36,53
934,511	36,81
934,902	36,73
935,293	36,17
935,684	36,3
936,075	36,59
936,465	36,63
936,856	36,33
937,246	37,44
937,637	36,73
938,027	36,1
938,417	36,27
938,808	36,8
939,198	36,66
939,588	36,66
939,978	37,42
940,368	36,54
940,757	37,24
941,147	36,86
941,537	36,66
941,926	37,26
942,315	38,13
942,705	36,81
943,094	36,97
943,483	37,04
943,872	36,38
944,261	36,89
944,65	36,43
945,039	37,18
945,428	36,64
945,816	37,47
946,205	36,64
946,593	36,84
946,982	37,39
947,37	36,49
947,758	37,68
948,146	36,82
948,534	37,89
948,922	37,52
949,31	36,44
949,698	36,48
950,086	36,71
950,473	36,73
950,861	37,18
951,248	36,49
951,636	36,42
952,023	36,66
952,41	36,45
952,797	36,06
953,184	36,75
953,571	36,84
953,958	36,32
954,345	36,1
954,731	36,81
955,118	36,43
955,505	36,36
955,891	36,3
956,277	36,57
956,664	36,29
957,05	36,57
957,436	36,23
957,822	36,08
958,208	35,73
958,594	36,2
958,979	36,03
959,365	35,97
959,751	36,2
960,136	36,09
960,522	36,31
960,907	36,53
961,292	36,33
961,677	36,55
962,062	36,15
962,447	36,36
962,832	36,12
963,217	35,93
963,602	36,24
963,986	36,19
964,371	36,14
964,756	36,03
965,14	36,3
965,524	36,75
965,908	36,53
966,293	35,89
966,677	35,97
967,061	36,72
967,445	35,9
967,828	36,24
968,212	36,01
968,596	36,37
968,979	36,39
969,363	36,32
969,746	36,38
970,129	36,12
970,513	36,39
970,896	36,1
971,279	36,13
971,662	36,58
972,045	35,78
972,428	37,2
972,81	36,3
973,193	36,44
973,575	36,14
973,958	35,57
974,34	35,94
974,723	36
975,105	36,22
975,487	36,38
975,869	36,03
976,251	36,45
976,633	36,37
977,015	36,35
977,396	36,24
977,778	36,41
978,16	36,17
978,541	36,13
978,922	36,6
979,304	36,56
979,685	36,54
980,066	36,19
980,447	36,16
980,828	36,3
981,209	36,41
981,59	36,62
981,97	36,32
982,351	36,03
982,732	36,28
983,112	36,44
983,493	36,79
983,873	36,31
984,253	36,12
984,633	36,68
985,013	35,99
985,393	36,51
985,773	36,43
986,153	36,12
986,533	36,11
986,912	36,5
987,292	36,84
987,671	36,45
988,051	36,86
988,43	36,39
988,809	36,35
989,188	37,09
989,567	36,11
989,946	36,61
990,325	36,88
990,704	36,4
991,083	36,62
991,461	36,9
991,84	36,1
992,218	36,23
992,597	37,06
992,975	36,89
993,353	36,65
993,732	36,82
994,11	36,75
994,488	36,6
994,866	36,21
995,243	36,87
995,621	36,85
995,999	36,89
996,376	36,9
996,754	36,77
997,131	36,78
997,509	37,02
997,886	36,87
998,263	37,02
998,64	36,81
999,017	36,89
999,394	36,45
999,771	37,39
1000,148	36
1000,524	36,89
1000,901	36,13
1001,277	37,09
1001,654	36,49
1002,03	37,7
1002,406	36,68
1002,783	37,12
1003,159	36,68
1003,535	36,72
1003,911	36,92
1004,286	37,21
1004,662	36,97
1005,038	37,07
1005,414	37,59
1005,789	36,68
1006,164	36,89
1006,54	37,06
1006,915	37,01
1007,29	36,62
1007,665	36,63
1008,04	37,05
1008,415	37,06
1008,79	37,06
1009,165	37,06
1009,54	37,12
1009,914	37,2
1010,289	37,18
1010,663	37,3
1011,038	37,53
1011,412	36,93
1011,786	37,31
1012,16	37,94
1012,535	37,05
1012,909	38,28
1013,282	37,63
1013,656	37,26
1014,03	37,04
1014,404	37,58
1014,777	37,17
1015,151	37,49
1015,524	37,32
1015,897	37,03
1016,271	37,41
1016,644	36,81
1017,017	37,64
1017,39	37,39
1017,763	37,03
1018,136	37,57
1018,508	37,23
1018,881	36,95
1019,254	38,09
1019,626	37,79
1019,999	37,54
1020,371	36,87
1020,743	36,9
1021,116	37,75
1021,488	38,25
1021,86	38,14
1022,232	38,05
1022,604	37,49
1022,975	38,55
1023,347	37,39
1023,719	38,27
1024,09	37,86
1024,462	37,57
1024,833	38,58
1025,204	38,38
1025,576	37,55
1025,947	37,61
1026,318	38,18
1026,689	38,47
1027,06	37,39
1027,431	38,18
1027,801	38,02
1028,172	37,92
1028,543	38,38
1028,913	37,77
1029,284	38,99
1029,654	38,45
1030,024	37,71
1030,394	38,7
1030,764	37,98
1031,135	38,26
1031,504	37,27
1031,874	37,64
1032,244	37,97
1032,614	37,44
1032,983	38,76
1033,353	38,28
1033,722	38,54
1034,092	38,1
1034,461	37,98
1034,83	38,47
1035,2	38,42
1035,569	38,33
1035,938	38,84
1036,307	39,2
1036,675	37,67
1037,044	39,18
1037,413	38,62
1037,781	39,17
1038,15	39,96
1038,518	38,84
1038,887	38,42
1039,255	39,38
1039,623	38,69
1039,991	39,21
1040,359	38,09
1040,727	38,67
1041,095	38,81
1041,463	39,35
1041,831	39,19
1042,198	38,5
1042,566	38,45
1042,933	39,5
1043,301	38,17
1043,668	38,84
1044,035	38,36
1044,402	38,8
1044,77	38,45
1045,137	39,38
1045,503	39,79
1045,87	38,48
1046,237	38,18
1046,604	39,5
1046,97	38,49
1047,337	39,61
1047,703	40,08
1048,07	38,77
1048,436	40,22
1048,802	40,4
1049,168	40,48
1049,534	40,09
1049,9	41,32
1050,266	40,34
1050,632	40,2
1050,998	41,15
1051,364	40,55
1051,729	40,52
1052,095	39,69
1052,46	39,78
1052,825	39,97
1053,191	39,72
1053,556	38,74
1053,921	39,32
1054,286	40,41
1054,651	40,12
1055,016	40,14
1055,381	40,64
1055,745	38,75
1056,11	40,94
1056,475	41,47
1056,839	40,08
1057,203	40,76
1057,568	40,64
1057,932	41,22
1058,296	41,04
1058,66	39,31
1059,024	40,7
1059,388	40,81
1059,752	41,26
1060,116	41,06
1060,48	42,55
1060,843	39,54
1061,207	40,65
1061,57	40,54
1061,934	41,12
1062,297	41,4
1062,66	40,71
1063,023	40,62
1063,386	41,91
1063,749	42,17
1064,112	41,67
1064,475	41,58
1064,838	40,97
1065,201	41,65
1065,563	41,66
1065,926	40,24
1066,288	42,21
1066,651	43,18
1067,013	42,22
1067,375	41,97
1067,737	42,78
1068,099	40,88
1068,461	42,06
1068,823	40,99
1069,185	40,3
1069,547	41,18
1069,909	40,79
1070,27	41,65
1070,632	40,67
1070,993	43,46
1071,355	42,49
1071,716	40,56
1072,077	41,9
1072,438	42,55
1072,799	42,04
1073,16	43,78
1073,521	41,7
1073,882	42,74
1074,243	43,14
1074,603	43,52
1074,964	41,33
1075,325	41,74
1075,685	39,98
1076,045	41,34
1076,406	43,24
1076,766	42,33
1077,126	42,83
1077,486	43,06
1077,846	42
1078,206	43,05
1078,566	42,08
1078,925	41,84
1079,285	43,19
1079,645	43,77
1080,004	43,14
1080,364	42,54
1080,723	41,86
1081,082	44,21
1081,442	42,51
1081,801	43,25
1082,16	44,17
1082,519	43,18
1082,878	43,74
1083,237	43,14
1083,595	44,01
1083,954	43,29
1084,313	43,19
1084,671	43,26
1085,03	43,39
1085,388	43,55
1085,746	44,23
1086,104	42,84
1086,463	44,72
1086,821	43,97
1087,179	44,72
1087,537	44,6
1087,894	44,91
1088,252	45,02
1088,61	43,62
1088,967	43,08
1089,325	44,6
1089,682	45,64
1090,04	47,37
1090,397	43,33
1090,754	44,55
1091,111	43,23
1091,469	48,4
1091,826	44,53
1092,182	45,3
1092,539	45,38
1092,896	46,58
1093,253	46,29
1093,609	45,75
1093,966	44,11
1094,322	44,81
1094,679	43,86
1095,035	46,95
1095,391	44,78
1095,748	45,37
1096,104	45,67
1096,46	46,03
1096,816	46,37
1097,171	45,98
1097,527	44,9
1097,883	46,92
1098,239	45,46
1098,594	46,83
1098,95	45,8
1099,305	46,38
1099,66	45,77
1100,016	45,43
1100,371	47,39
1100,726	45,54
1101,081	45,4
1101,436	47,44
1101,791	48,96
1102,146	47,74
1102,5	47
1102,855	45,91
1103,21	49,3
1103,564	47,12
1103,918	46,67
1104,273	49,94
1104,627	47,47
1104,981	45,71
1105,335	45,2
1105,69	50,07
1106,043	45,74
1106,397	45,37
1106,751	49,27
1107,105	48,64
1107,459	50,56
1107,812	48,98
1108,166	48,55
1108,519	48,19
1108,873	47,93
1109,226	53,27
1109,579	49,26
1109,932	51,17
1110,285	49,59
1110,638	52,37
1110,991	51,82
1111,344	47,77
1111,697	50,34
1112,05	48,81
1112,402	54,24
1112,755	52,85
1113,107	53,49
1113,46	56,65
1113,812	54,1
1114,164	57,43
1114,517	53,15
1114,869	156,48
1115,221	150
1115,573	143,18
1115,924	169,81
