Data from E6___Relative__1__00092.txt Node

Date: Wed Jan 31 18:26:20 CET 2024
User: diatiterra
Spectrometer: HDX00911
Trigger mode: 0
Integration Time (sec): 6,000000E-3
Scans to average: 2
Nonlinearity correction enabled: false
Boxcar width: 0
Storing dark spectrum: false
XAxis mode: Wavelengths
Number of Pixels in Spectrum: 2068
>>>>>Begin Spectral Data<<<<<
194,468	225,47
195,025	150,91
195,581	209,76
196,138	228,21
196,694	136,42
197,251	113,64
197,807	102,76
198,363	104,8
198,919	93,79
199,474	100,37
200,03	105,33
200,586	108,93
201,141	85,81
201,696	91,95
202,251	98,86
202,806	89,16
203,361	98,89
203,916	94,79
204,471	98,54
205,025	116,94
205,58	95,36
206,134	103,6
206,688	89,62
207,242	109,29
207,796	95,11
208,35	100,36
208,904	102,76
209,457	85,76
210,011	89,72
210,564	103,17
211,117	101,5
211,67	102,24
212,223	92,81
212,776	102,02
213,329	94
213,881	124,02
214,434	91,45
214,986	113,64
215,538	102,94
216,09	93,66
216,642	114,88
217,194	97,35
217,746	101,5
218,297	104,58
218,849	95,96
219,4	110,08
219,951	106,05
220,502	98,31
221,053	103,44
221,604	100,67
222,155	105,56
222,705	92,28
223,256	100,37
223,806	107,09
224,356	103,85
224,906	111,29
225,456	107,36
226,006	98,41
226,556	87,34
227,106	101,61
227,655	90,28
228,204	100
228,754	92,25
229,303	90,71
229,852	96,4
230,401	97,76
230,949	103,24
231,498	90,85
232,047	88,96
232,595	92,41
233,143	100,79
233,691	101,55
234,239	87,5
234,787	103,2
235,335	105,6
235,883	92,31
236,43	98,86
236,978	101,92
237,525	95,26
238,072	91,84
238,619	107,58
239,166	91,13
239,713	88,69
240,26	90
240,806	95,83
241,353	97,22
241,899	93,71
242,445	98,91
242,991	109,54
243,537	94,7
244,083	104,96
244,629	97,31
245,174	109,73
245,72	95,93
246,265	94,84
246,81	101,2
247,355	115,08
247,9	94,78
248,445	103,17
248,99	101,52
249,534	113,91
250,079	92,48
250,623	99,26
251,168	100,83
251,712	107,03
252,256	104,51
252,8	106,54
253,343	98,57
253,887	100,4
254,43	100,38
254,974	98,09
255,517	92,47
256,06	109,23
256,603	91,85
257,146	103,1
257,689	110,24
258,232	107,2
258,774	96,1
259,317	110,59
259,859	116,97
260,401	109,3
260,943	96,1
261,485	93,97
262,027	104,8
262,569	105,22
263,11	91,15
263,652	111,02
264,193	102,48
264,734	95,26
265,275	107,38
265,816	103,05
266,357	102,71
266,898	98,08
267,438	103,54
267,979	100
268,519	97,01
269,059	125,23
269,6	98,87
270,14	112,5
270,68	93,84
271,219	115,25
271,759	98,12
272,298	95,86
272,838	90
273,377	105,16
273,916	94,6
274,455	100,36
274,994	99,6
275,533	99,64
276,072	100
276,61	88,41
277,149	101,67
277,687	100,75
278,225	90,33
278,763	112,72
279,301	104,17
279,839	97,98
280,377	100
280,914	95,1
281,452	102,56
281,989	105,79
282,526	106,69
283,064	113,45
283,601	94,26
284,137	99,59
284,674	105
285,211	108,33
285,747	96,59
286,284	114,86
286,82	104,55
287,356	97,37
287,892	102,33
288,428	105,37
288,964	115,13
289,5	102,48
290,035	104
290,571	98,32
291,106	108,54
291,641	111,61
292,176	100,78
292,711	100,41
293,246	94,23
293,781	105,37
294,315	84,15
294,85	120,83
295,384	103,28
295,918	98,16
296,453	85,07
296,987	103,72
297,52	100,41
298,054	101,91
298,588	99,17
299,121	96,27
299,655	101,46
300,188	102,5
300,721	108,54
301,254	102,02
301,787	98,05
302,32	105,28
302,853	103,6
303,385	97,14
303,918	96,9
304,45	100
304,982	85,11
305,514	103,88
306,046	92,98
306,578	97,29
307,11	98,84
307,641	103,88
308,173	106,2
308,704	95,87
309,236	95,86
309,767	97,16
310,298	103,23
310,829	116,09
311,359	97,18
311,89	105,04
312,421	109,91
312,951	105,69
313,481	89,31
314,012	97,76
314,542	109,32
315,072	93,51
315,601	106
316,131	105,91
316,661	97,92
317,19	90,74
317,72	108,68
318,249	105,56
318,778	101,95
319,307	100,78
319,836	109,29
320,365	97,83
320,893	102,07
321,422	110,57
321,95	99,25
322,479	95,8
323,007	103,64
323,535	93,93
324,063	111,2
324,591	109,6
325,118	105,84
325,646	108,82
326,173	100,83
326,701	104,47
327,228	121,98
327,755	92,86
328,282	100,38
328,809	119,07
329,336	101,57
329,862	100
330,389	97,66
330,915	101,18
331,441	100,38
331,968	113,96
332,494	96,21
333,02	103,33
333,545	90,3
334,071	111,57
334,597	87,32
335,122	94,07
335,648	114,22
336,173	94,32
336,698	78,16
337,223	93,38
337,748	90,62
338,272	89,73
338,797	99,64
339,322	87,96
339,846	92,65
340,37	105,65
340,894	94,1
341,419	96,99
341,942	87,06
342,466	87,5
342,99	87,58
343,514	86,27
344,037	81,65
344,56	100
345,084	93,84
345,607	94,44
346,13	88,38
346,653	89,67
347,175	89,74
347,698	78,3
348,221	85
348,743	86,02
349,265	84,89
349,787	75,77
350,309	82,59
350,831	77,78
351,353	77,74
351,875	78,36
352,397	80,07
352,918	86,18
353,439	88,08
353,961	70,64
354,482	83,04
355,003	78,78
355,524	78,89
356,044	71,88
356,565	79,22
357,086	81,36
357,606	65,11
358,126	68,88
358,646	67,6
359,167	74,86
359,687	74,29
360,206	72,4
360,726	64,69
361,246	73,4
361,765	75,99
362,285	65,5
362,804	66,58
363,323	64,63
363,842	65,11
364,361	63,68
364,88	66,5
365,398	60,48
365,917	62,97
366,435	70,31
366,954	60,27
367,472	61,56
367,99	65,4
368,508	57,09
369,026	67,5
369,544	61,4
370,061	64,29
370,579	57,99
371,096	61,93
371,613	55,82
372,131	59,45
372,648	52,17
373,165	57,23
373,681	55,91
374,198	58,2
374,715	55,08
375,231	53,6
375,747	56,38
376,264	46,09
376,78	57,91
377,296	52,23
377,812	51
378,327	51,32
378,843	54,44
379,359	48,84
379,874	52,08
380,389	51,1
380,905	46,87
381,42	46,05
381,935	44,51
382,449	44,25
382,964	46,14
383,479	42,67
383,993	42,11
384,508	44,49
385,022	38,86
385,536	41,45
386,05	38,32
386,564	42,29
387,078	39,95
387,592	37,71
388,105	41,73
388,619	36,72
389,132	36,52
389,645	38,05
390,158	34,12
390,671	35,74
391,184	32,39
391,697	34,77
392,21	32,24
392,722	33,73
393,235	35,46
393,747	33,27
394,259	33,9
394,771	30,99
395,283	30,13
395,795	29,38
396,307	32,34
396,818	30,09
397,33	27,47
397,841	27,96
398,353	28,45
398,864	28,28
399,375	28,55
399,886	27,7
400,397	25,8
400,907	25,69
401,418	25,16
401,928	23,83
402,439	24,02
402,949	23,31
403,459	23,26
403,969	22,48
404,479	22,05
404,989	20,69
405,498	21,57
406,008	21,06
406,517	19,38
407,027	19,34
407,536	18,08
408,045	17,63
408,554	17,46
409,063	15,7
409,572	16,29
410,08	14,95
410,589	14,38
411,097	14,22
411,606	14,35
412,114	13,87
412,622	13,46
413,13	12,71
413,638	12,12
414,145	11,82
414,653	12,08
415,16	11,38
415,668	12,25
416,175	10,7
416,682	10,76
417,189	9,88
417,696	9,93
418,203	10,47
418,71	9,96
419,216	10,03
419,723	9,65
420,229	9,4
420,735	9,29
421,242	9,11
421,748	9,26
422,254	9,13
422,759	8,09
423,265	8,82
423,771	8,61
424,276	8,6
424,781	8,12
425,287	8,66
425,792	8,65
426,297	7,94
426,802	7,31
427,306	7,85
427,811	8,07
428,316	8,06
428,82	7,89
429,324	7,79
429,829	8,01
430,333	7,5
430,837	7,38
431,34	7,24
431,844	7,56
432,348	7,23
432,851	7,19
433,355	6,81
433,858	7,06
434,361	7,42
434,864	6,82
435,367	6,9
435,87	7,69
436,373	7,02
436,876	7,11
437,378	7,51
437,88	7,16
438,383	6,99
438,885	6,97
439,387	6,7
439,889	6,77
440,391	7,06
440,892	7,01
441,394	6,95
441,896	6,49
442,397	7,02
442,898	6,88
443,399	6,89
443,9	6,81
444,401	6,36
444,902	6,25
445,403	6,63
445,903	6,49
446,404	6,62
446,904	7,17
447,405	6,56
447,905	6,55
448,405	6,72
448,905	6,5
449,404	6,63
449,904	6,32
450,404	6,42
450,903	6,76
451,403	6,15
451,902	6,53
452,401	6,48
452,9	6,69
453,399	6,51
453,898	6,56
454,396	6,12
454,895	6,55
455,393	6,25
455,892	6,36
456,39	6,57
456,888	6,37
457,386	6,71
457,884	6,75
458,382	6,92
458,879	6,8
459,377	6,63
459,874	6,78
460,372	6,51
460,869	6,39
461,366	6,77
461,863	6,6
462,36	6,63
462,857	6,38
463,353	6,32
463,85	6,78
464,346	6,47
464,843	6,47
465,339	6,08
465,835	6,69
466,331	6,5
466,827	6,15
467,323	6,22
467,818	6,41
468,314	6,66
468,809	6,69
469,305	6,21
469,8	6,38
470,295	6,24
470,79	6,54
471,285	6,09
471,78	6,14
472,274	6,18
472,769	6,05
473,263	6,24
473,758	6,14
474,252	6,17
474,746	6,47
475,24	6,32
475,734	6,02
476,228	6,19
476,721	6,29
477,215	6
477,708	6,22
478,202	6,24
478,695	6,36
479,188	6,06
479,681	6,27
480,174	6,29
480,667	6,36
481,159	6,2
481,652	6,33
482,144	6,45
482,637	6,42
483,129	5,98
483,621	5,95
484,113	6,14
484,605	6,38
485,097	6,36
485,588	6,29
486,08	6,41
486,571	6,36
487,063	6,21
487,554	6,49
488,045	6,35
488,536	6,55
489,027	6,45
489,518	6,38
490,008	6,37
490,499	6,5
490,989	6,44
491,48	6,32
491,97	6,51
492,46	6,49
492,95	6,7
493,44	6,72
493,93	6,54
494,419	6,78
494,909	6,96
495,398	6,93
495,888	6,63
496,377	6,85
496,866	6,91
497,355	6,96
497,844	6,93
498,333	6,98
498,821	7,08
499,31	7,23
499,798	7,13
500,287	7,32
500,775	7,4
501,263	7,63
501,751	7,49
502,239	7,82
502,727	7,73
503,215	7,81
503,702	7,91
504,19	8,01
504,677	8,2
505,164	8,34
505,651	8,51
506,139	8,5
506,625	8,72
507,112	8,87
507,599	9,18
508,086	9,09
508,572	9,36
509,058	9,37
509,545	9,44
510,031	9,57
510,517	10,1
511,003	10,24
511,489	10,26
511,974	10,55
512,46	10,59
512,946	11,05
513,431	11,14
513,916	11,39
514,401	11,67
514,887	11,73
515,371	12,23
515,856	12,72
516,341	12,9
516,826	13,07
517,31	13,25
517,795	13,76
518,279	13,77
518,763	14,6
519,247	14,6
519,731	15,01
520,215	15,18
520,699	15,68
521,182	15,88
521,666	15,87
522,149	16,23
522,633	16,63
523,116	16,95
523,599	17,62
524,082	17,61
524,565	17,96
525,048	18,39
525,53	18,46
526,013	19,05
526,495	19,04
526,978	18,81
527,46	19,29
527,942	19,69
528,424	20,08
528,906	20,12
529,388	20,36
529,87	20,85
530,351	20,53
530,833	21,04
531,314	21,2
531,795	21,05
532,277	21,66
532,758	21,76
533,238	21,83
533,719	21,79
534,2	21,54
534,681	22,38
535,161	22,16
535,642	22,47
536,122	22,27
536,602	22,79
537,082	22,75
537,562	22,63
538,042	22,47
538,522	22,84
539,001	23,11
539,481	23,44
539,96	22,48
540,44	23,32
540,919	23,29
541,398	23,29
541,877	23,3
542,356	23,73
542,835	23,04
543,313	23,45
543,792	23,43
544,27	23,51
544,749	23,8
545,227	23,84
545,705	23,92
546,183	23,9
546,661	23,91
547,139	23,45
547,616	23,67
548,094	23,77
548,571	24,11
549,049	24,19
549,526	23,76
550,003	24,13
550,48	23,92
550,957	24,24
551,434	24,09
551,911	24,09
552,387	24,1
552,864	24,2
553,34	24,4
553,817	23,98
554,293	24,18
554,769	24,16
555,245	24,03
555,721	24,02
556,197	23,93
556,672	24,22
557,148	24,12
557,623	24,32
558,099	23,76
558,574	24,18
559,049	23,68
559,524	23,89
559,999	23,64
560,474	23,67
560,948	23,5
561,423	23,73
561,897	23,44
562,372	23,62
562,846	23,22
563,32	22,95
563,794	22,97
564,268	23,41
564,742	22,85
565,216	22,52
565,69	22,34
566,163	22,62
566,636	21,78
567,11	22,05
567,583	21,96
568,056	21,65
568,529	21,57
569,002	21,38
569,475	21,7
569,947	20,92
570,42	21,13
570,892	20,72
571,365	20,38
571,837	20,28
572,309	20,26
572,781	19,76
573,253	20,09
573,725	19,58
574,197	19,39
574,668	19,31
575,14	18,96
575,611	18,84
576,082	18,76
576,554	18,65
577,025	18,61
577,496	18,24
577,967	17,95
578,437	18,15
578,908	17,85
579,379	17,94
579,849	17,74
580,319	17,44
580,79	17,35
581,26	17,38
581,73	17,06
582,2	16,94
582,669	16,7
583,139	16,86
583,609	16,54
584,078	16,71
584,548	16,47
585,017	16,51
585,486	16,14
585,955	16,14
586,424	16,15
586,893	15,99
587,362	16,06
587,83	15,87
588,299	15,62
588,767	15,96
589,236	15,81
589,704	15,59
590,172	15,43
590,64	15,35
591,108	15,49
591,576	15,48
592,043	14,99
592,511	15,05
592,978	15,33
593,446	14,99
593,913	14,93
594,38	15,06
594,847	14,72
595,314	14,85
595,781	14,98
596,248	14,74
596,715	14,69
597,181	14,74
597,647	14,6
598,114	14,87
598,58	14,49
599,046	14,76
599,512	14,6
599,978	14,58
600,444	14,37
600,91	14,46
601,375	14,35
601,841	14,39
602,306	14,35
602,771	14,43
603,236	14,16
603,702	14,25
604,167	14,15
604,631	14,13
605,096	14,1
605,561	13,9
606,025	13,93
606,49	13,79
606,954	13,74
607,418	13,59
607,882	13,35
608,347	13,44
608,81	13,34
609,274	13,31
609,738	13,26
610,202	13,24
610,665	13,07
611,128	12,87
611,592	12,99
612,055	12,61
612,518	12,92
612,981	12,75
613,444	12,39
613,907	12,47
614,369	12,27
614,832	12,34
615,294	12,22
615,757	12,17
616,219	12,21
616,681	11,76
617,143	11,99
617,605	11,67
618,067	11,78
618,529	11,65
618,99	11,62
619,452	11,45
619,913	11,49
620,375	11,37
620,836	11,37
621,297	11,35
621,758	11,33
622,219	11,13
622,68	11,12
623,14	10,99
623,601	11,04
624,061	11,05
624,522	10,89
624,982	10,91
625,442	11,12
625,902	10,96
626,362	11,02
626,822	10,83
627,282	10,9
627,742	10,78
628,201	10,61
628,661	10,83
629,12	10,78
629,579	10,58
630,038	10,73
630,497	10,79
630,956	10,87
631,415	10,69
631,874	10,45
632,332	10,65
632,791	10,55
633,249	10,54
633,708	10,64
634,166	10,31
634,624	10,44
635,082	10,4
635,54	10,31
635,998	10,1
636,455	10,19
636,913	10,04
637,37	9,97
637,828	9,88
638,285	9,74
638,742	9,72
639,199	9,6
639,656	9,53
640,113	9,6
640,57	9,34
641,027	9,25
641,483	9,27
641,94	8,98
642,396	8,95
642,852	8,81
643,309	8,6
643,765	8,65
644,221	8,41
644,676	8,5
645,132	8,33
645,588	8,27
646,043	8,02
646,499	8,11
646,954	7,93
647,409	8,09
647,864	7,76
648,319	7,58
648,774	7,69
649,229	7,58
649,684	7,4
650,139	7,42
650,593	7,44
651,047	7,44
651,502	7,36
651,956	7,13
652,41	7,13
652,864	7,11
653,318	7,27
653,772	7,11
654,225	7,02
654,679	6,99
655,133	6,98
655,586	6,96
656,039	6,92
656,492	6,84
656,946	6,78
657,399	6,74
657,851	6,65
658,304	6,63
658,757	6,62
659,209	6,5
659,662	6,52
660,114	6,39
660,567	6,35
661,019	6,23
661,471	6,22
661,923	6,24
662,375	6,2
662,826	6,21
663,278	6,06
663,73	5,99
664,181	6,11
664,632	5,97
665,084	5,96
665,535	5,91
665,986	5,93
666,437	5,87
666,888	5,93
667,338	5,88
667,789	5,87
668,24	5,92
668,69	5,94
669,14	5,99
669,591	5,93
670,041	6,04
670,491	5,91
670,941	6,04
671,391	6,19
671,84	6,12
672,29	6,12
672,74	6,21
673,189	6,27
673,638	6,35
674,088	6,47
674,537	6,39
674,986	6,58
675,435	6,71
675,883	6,81
676,332	6,93
676,781	6,89
677,229	6,96
677,678	7,01
678,126	7,32
678,574	7,3
679,022	7,46
679,47	7,53
679,918	7,62
680,366	7,68
680,814	7,79
681,261	7,93
681,709	8,17
682,156	8,15
682,604	8,33
683,051	8,36
683,498	8,55
683,945	8,45
684,392	8,7
684,839	8,79
685,286	8,91
685,732	8,87
686,179	9,08
686,625	9,13
687,071	9,22
687,518	9,45
687,964	9,56
688,41	9,74
688,856	9,83
689,301	10,08
689,747	10,26
690,193	10,51
690,638	10,68
691,084	11,05
691,529	11,24
691,974	11,76
692,419	12,29
692,864	12,53
693,309	12,79
693,754	13,31
694,199	13,93
694,643	14,15
695,088	14,73
695,532	15,32
695,977	15,85
696,421	16,29
696,865	16,75
697,309	17,4
697,753	17,88
698,197	18,54
698,64	18,94
699,084	19,7
699,527	20,11
699,971	20,75
700,414	21,26
700,857	21,8
701,3	22,3
701,743	22,94
702,186	23,69
702,629	24,05
703,072	24,6
703,515	24,96
703,957	25,43
704,399	26,13
704,842	26,47
705,284	26,79
705,726	27,38
706,168	27,92
706,61	28,61
707,052	28,79
707,494	29,6
707,935	29,69
708,377	30,26
708,818	30,88
709,26	31,07
709,701	31,67
710,142	32,19
710,583	32,33
711,024	32,65
711,465	32,97
711,905	33,59
712,346	33,84
712,787	33,96
713,227	34,62
713,667	35,06
714,108	35,28
714,548	35,68
714,988	36,43
715,428	36,29
715,868	37,13
716,307	37
716,747	37,4
717,186	37,77
717,626	38
718,065	38,68
718,504	38,57
718,944	39,06
719,383	39,46
719,822	39,78
720,261	39,78
720,699	40,2
721,138	40,25
721,576	40,46
722,015	40,94
722,453	41,04
722,892	41,36
723,33	41,68
723,768	41,97
724,206	42,08
724,644	42,36
725,081	42,66
725,519	42,68
725,957	42,85
726,394	42,88
726,832	43,18
727,269	43,29
727,706	43,61
728,143	43,78
728,58	44,01
729,017	43,71
729,454	44,1
729,89	44,41
730,327	44,33
730,764	44,41
731,2	44,61
731,636	44,63
732,072	45,1
732,509	45,05
732,945	45,05
733,38	45,24
733,816	45,54
734,252	45,56
734,688	45,65
735,123	45,69
735,559	45,96
735,994	45,59
736,429	45,96
736,864	46
737,299	45,87
737,734	46,49
738,169	45,69
738,604	46,21
739,038	45,86
739,473	46,12
739,907	46,07
740,342	45,93
740,776	46,47
741,21	46,23
741,644	46,44
742,078	46,35
742,512	46,16
742,946	46,53
743,379	46,13
743,813	46,57
744,246	46,24
744,68	46,4
745,113	46,2
745,546	45,97
745,979	46,41
746,412	46,18
746,845	46,31
747,278	46,17
747,711	46,05
748,143	46,27
748,576	46,44
749,008	46,36
749,441	45,86
749,873	45,95
750,305	46,07
750,737	46,12
751,169	46
751,601	45,71
752,032	46,13
752,464	46,03
752,896	45,49
753,327	45,72
753,758	45,91
754,19	45,91
754,621	45,49
755,052	45,54
755,483	45,64
755,914	45,66
756,344	45,58
756,775	45,77
757,206	45,71
757,636	45,48
758,066	45,37
758,497	45,5
758,927	45,72
759,357	45,64
759,787	45,44
760,217	45,52
760,647	45,3
761,076	44,94
761,506	44,93
761,935	45,11
762,365	45,29
762,794	44,91
763,223	45,29
763,653	45,34
764,082	44,94
764,51	45,17
764,939	45,34
765,368	44,97
765,797	44,89
766,225	45,02
766,654	44,7
767,082	44,37
767,51	44,75
767,938	44,64
768,367	44,73
768,795	44,61
769,222	45,18
769,65	45,01
770,078	44,47
770,505	44,59
770,933	44,74
771,36	44,81
771,788	44,68
772,215	44,7
772,642	44,62
773,069	44,72
773,496	44,49
773,923	44,47
774,349	44,49
774,776	44,33
775,203	44,51
775,629	44,65
776,055	44,07
776,482	44,28
776,908	44,43
777,334	44,13
777,76	44,21
778,186	44,28
778,611	44,56
779,037	44,32
779,463	43,91
779,888	44,01
780,314	44,1
780,739	44,19
781,164	44,22
781,589	44,14
782,014	44,24
782,439	44,21
782,864	44,17
783,289	44,28
783,713	43,87
784,138	43,93
784,562	43,7
784,987	43,86
785,411	43,96
785,835	43,77
786,259	43,92
786,683	43,87
787,107	43,99
787,531	44,09
787,954	43,77
788,378	43,83
788,802	43,84
789,225	43,63
789,648	44,2
790,071	43,4
790,495	44,24
790,918	44,14
791,34	43,89
791,763	43,72
792,186	43,52
792,609	43,67
793,031	43,57
793,454	43,83
793,876	43,87
794,298	43,89
794,721	43,71
795,143	43,78
795,565	43,71
795,986	43,68
796,408	43,6
796,83	43,52
797,252	43,62
797,673	43,97
798,094	43,9
798,516	43,66
798,937	43,93
799,358	43,6
799,779	43,55
800,2	43,7
800,621	43,81
801,042	43,6
801,462	43,79
801,883	43,45
802,303	43,59
802,724	43,85
803,144	43,74
803,564	43,84
803,984	44,05
804,404	43,77
804,824	43,79
805,244	43,51
805,664	44,01
806,084	43,94
806,503	43,68
806,923	43,54
807,342	43,65
807,761	43,46
808,18	43,26
808,599	43,32
809,018	43,79
809,437	43,53
809,856	43,4
810,275	43,63
810,693	43,43
811,112	43,87
811,53	43,71
811,949	43,61
812,367	44
812,785	43,65
813,203	43,74
813,621	43,35
814,039	43,69
814,457	43,79
814,874	43,35
815,292	43,53
815,709	43,47
816,127	43,65
816,544	43,53
816,961	43,13
817,378	43,76
817,795	43,42
818,212	43,46
818,629	43,58
819,046	43,34
819,462	43,35
819,879	43,32
820,295	43,49
820,712	43,23
821,128	43,55
821,544	43,51
821,96	43,49
822,376	43,35
822,792	43,34
823,208	43,33
823,624	43,94
824,039	43,29
824,455	43,51
824,87	43,25
825,286	43,26
825,701	43,43
826,116	43,26
826,531	43,51
826,946	43,24
827,361	43,33
827,776	43,39
828,19	42,98
828,605	43,23
829,02	43,51
829,434	43,27
829,848	43,37
830,263	43,45
830,677	43,34
831,091	43,12
831,505	43,03
831,919	43,27
832,332	43,48
832,746	43,41
833,16	43,21
833,573	43,18
833,987	43,56
834,4	43,03
834,813	43,02
835,226	43,04
835,639	43,17
836,052	43,18
836,465	43,38
836,878	43,5
837,29	43,17
837,703	43,33
838,116	43,47
838,528	43,34
838,94	43,31
839,352	43,49
839,765	43,33
840,177	43,14
840,589	43,35
841	42,91
841,412	43,1
841,824	43,22
842,235	43
842,647	43,09
843,058	43,23
843,47	43,07
843,881	42,91
844,292	42,98
844,703	43,53
845,114	43,08
845,525	43,15
845,935	43,24
846,346	43,19
846,757	43,24
847,167	42,84
847,577	43,03
847,988	43,08
848,398	42,92
848,808	42,78
849,218	43,13
849,628	43,1
850,038	43,18
850,448	42,92
850,857	43,12
851,267	43,24
851,676	43,42
852,086	43,34
852,495	43,08
852,904	42,86
853,313	42,6
853,722	43,15
854,131	43,24
854,54	42,77
854,949	42,69
855,357	42,97
855,766	43,14
856,174	43,02
856,583	42,91
856,991	42,54
857,399	43,46
857,807	42,88
858,215	43,18
858,623	43,36
859,031	42,7
859,439	43,32
859,846	42,98
860,254	43,09
860,661	43,4
861,069	43,06
861,476	42,89
861,883	42,75
862,29	42,71
862,697	42,8
863,104	42,74
863,511	43,08
863,918	42,78
864,325	43,22
864,731	42,82
865,138	42,63
865,544	42,86
865,95	43,04
866,357	42,69
866,763	43,26
867,169	42,94
867,575	43,22
867,98	43,2
868,386	42,8
868,792	43,03
869,197	42,66
869,603	43,07
870,008	43,02
870,414	42,9
870,819	42,95
871,224	42,8
871,629	43,03
872,034	42,75
872,439	42,51
872,844	42,88
873,248	43,01
873,653	42,84
874,057	42,45
874,462	42,85
874,866	43,07
875,27	42,91
875,674	43,53
876,078	43,06
876,482	42,73
876,886	42,63
877,29	42,84
877,694	42,64
878,097	42,5
878,501	42,72
878,904	42,64
879,308	42,85
879,711	42,79
880,114	42,73
880,517	42,83
880,92	42,93
881,323	42,94
881,726	43,14
882,128	42,93
882,531	42,96
882,934	42,86
883,336	43,13
883,738	42,62
884,141	42,84
884,543	42,84
884,945	43,01
885,347	42,86
885,749	42,88
886,151	43,17
886,552	43,04
886,954	42,63
887,355	42,74
887,757	42,61
888,158	42,74
888,56	42,91
888,961	43,03
889,362	42,84
889,763	43,12
890,164	43,33
890,565	42,57
890,965	42,84
891,366	42,8
891,767	43,39
892,167	42,83
892,567	42,88
892,968	43,03
893,368	42,68
893,768	42,75
894,168	42,6
894,568	42,58
894,968	42,71
895,368	42,78
895,767	42,84
896,167	42,7
896,566	42,36
896,966	42,98
897,365	42,87
897,764	42,81
898,164	43,12
898,563	42,95
898,962	42,87
899,361	43,07
899,759	43,12
900,158	42,64
900,557	42,8
900,955	42,53
901,354	42,7
901,752	42,47
902,15	42,5
902,548	42,81
902,947	42,65
903,345	42,98
903,742	42,3
904,14	42,71
904,538	42,65
904,936	43
905,333	42,51
905,731	42,88
906,128	42,5
906,525	42,76
906,923	42,98
907,32	43,06
907,717	42,83
908,114	42,9
908,511	42,88
908,907	43,28
909,304	42,8
909,701	42,6
910,097	42,61
910,494	42,35
910,89	43,21
911,286	42,61
911,682	42,55
912,078	42,89
912,474	42,93
912,87	42,56
913,266	42,74
913,662	42,71
914,058	42,81
914,453	42,57
914,849	42,47
915,244	42,47
915,639	43,06
916,034	42,45
916,43	42,87
916,825	42,95
917,22	43,11
917,614	43,11
918,009	42,76
918,404	42,38
918,798	42,71
919,193	42,95
919,587	42,55
919,982	42,74
920,376	42,53
920,77	42,58
921,164	42,26
921,558	42,58
921,952	42,41
922,346	42,46
922,74	42,32
923,133	42,89
923,527	42,56
923,92	42,43
924,314	42,9
924,707	42,3
925,1	42,62
925,493	42,98
925,886	42,56
926,279	42,37
926,672	43,01
927,065	42,23
927,457	42,41
927,85	42,1
928,243	42,37
928,635	42,44
929,027	42,38
929,42	42,81
929,812	42,62
930,204	42,86
930,596	42,77
930,988	42,58
931,379	42,42
931,771	42,48
932,163	42,49
932,554	42,44
932,946	42,25
933,337	42,27
933,729	42,66
934,12	42,29
934,511	42,56
934,902	42,57
935,293	41,84
935,684	43,04
936,075	43,17
936,465	42,66
936,856	42,21
937,246	42,8
937,637	42,77
938,027	42,95
938,417	41,72
938,808	43,05
939,198	42,07
939,588	43,07
939,978	42,4
940,368	42,3
940,757	42,5
941,147	43,1
941,537	42,9
941,926	43,04
942,315	43,42
942,705	42,4
943,094	42,57
943,483	42,5
943,872	42,92
944,261	43,01
944,65	42,53
945,039	43,23
945,428	43,22
945,816	43,1
946,205	42,71
946,593	42,71
946,982	42,92
947,37	42,39
947,758	42,55
948,146	42,78
948,534	42,92
948,922	42,88
949,31	42,21
949,698	42,79
950,086	42,32
950,473	41,96
950,861	42,92
951,248	42,45
951,636	42,15
952,023	42,1
952,41	42,15
952,797	41,73
953,184	42,25
953,571	41,87
953,958	42,11
954,345	41,86
954,731	42,92
955,118	41,49
955,505	41,97
955,891	42
956,277	42,3
956,664	41,92
957,05	41,88
957,436	42,09
957,822	41,16
958,208	41,55
958,594	41,8
958,979	41,36
959,365	41,85
959,751	41,34
960,136	41,7
960,522	41,64
960,907	41,58
961,292	41,33
961,677	41,78
962,062	41,25
962,447	41,43
962,832	41,4
963,217	41,29
963,602	42,29
963,986	41,4
964,371	41,12
964,756	41,3
965,14	41,83
965,524	41,88
965,908	41,88
966,293	41,7
966,677	41,34
967,061	42,48
967,445	41,74
967,828	41,94
968,212	41,25
968,596	42,07
968,979	41,56
969,363	42,02
969,746	41,94
970,129	41,84
970,513	41,78
970,896	41,9
971,279	41,86
971,662	41,89
972,045	41,78
972,428	42,33
972,81	42,33
973,193	42,1
973,575	42,19
973,958	41,23
974,34	41,28
974,723	41,48
975,105	41,58
975,487	41,59
975,869	41,77
976,251	41,84
976,633	42,01
977,015	41,72
977,396	42,19
977,778	41,69
978,16	41,94
978,541	42,08
978,922	42,38
979,304	42,13
979,685	42,47
980,066	42,16
980,447	42,02
980,828	42,44
981,209	42,09
981,59	41,7
981,97	41,52
982,351	41,93
982,732	41,96
983,112	41,82
983,493	42,17
983,873	42,47
984,253	42,04
984,633	41,89
985,013	41,74
985,393	42,23
985,773	41,58
986,153	41,78
986,533	42,23
986,912	42,51
987,292	42,36
987,671	42
988,051	42,59
988,43	41,82
988,809	41,99
989,188	42,38
989,567	42,16
989,946	42,26
990,325	41,89
990,704	41,8
991,083	42,56
991,461	42,21
991,84	42,49
992,218	42,1
992,597	42,52
992,975	42,68
993,353	41,93
993,732	42,1
994,11	42,58
994,488	42,38
994,866	41,45
995,243	42,46
995,621	42,69
995,999	42,17
996,376	42,39
996,754	42,33
997,131	42,8
997,509	42,3
997,886	42,12
998,263	42,47
998,64	41,57
999,017	42,76
999,394	42,48
999,771	42,98
1000,148	42,13
1000,524	42,45
1000,901	42,04
1001,277	42,52
1001,654	42,24
1002,03	43,36
1002,406	42,75
1002,783	42,2
1003,159	42,37
1003,535	42,93
1003,911	42,73
1004,286	42,93
1004,662	42,48
1005,038	42,65
1005,414	43,08
1005,789	42,63
1006,164	42,52
1006,54	43,44
1006,915	42,38
1007,29	42,17
1007,665	42,39
1008,04	42,74
1008,415	42,6
1008,79	43,07
1009,165	42,19
1009,54	42,16
1009,914	42,59
1010,289	43,07
1010,663	42,88
1011,038	43
1011,412	42,6
1011,786	42,76
1012,16	43,2
1012,535	42,97
1012,909	43,65
1013,282	43,49
1013,656	43,39
1014,03	42,65
1014,404	42,69
1014,777	42,88
1015,151	44,01
1015,524	43,73
1015,897	42,98
1016,271	43,35
1016,644	42,67
1017,017	43,13
1017,39	42,96
1017,763	43,38
1018,136	43,94
1018,508	43,55
1018,881	43,05
1019,254	43,31
1019,626	43,55
1019,999	43,35
1020,371	43,14
1020,743	43,75
1021,116	43,33
1021,488	43,82
1021,86	44,46
1022,232	44,13
1022,604	43,84
1022,975	44,39
1023,347	43,58
1023,719	43,51
1024,09	44,08
1024,462	42,85
1024,833	44,99
1025,204	44,96
1025,576	43,88
1025,947	43,37
1026,318	43,68
1026,689	44,01
1027,06	43,95
1027,431	44,14
1027,801	44,04
1028,172	44,4
1028,543	44,5
1028,913	44,46
1029,284	44,21
1029,654	44,11
1030,024	43,72
1030,394	44,84
1030,764	44,45
1031,135	44,62
1031,504	44,17
1031,874	44,24
1032,244	43,34
1032,614	43,45
1032,983	44,77
1033,353	44,01
1033,722	44,22
1034,092	45,01
1034,461	43,91
1034,83	44,21
1035,2	44,65
1035,569	44,22
1035,938	44,92
1036,307	44,26
1036,675	44,62
1037,044	44,83
1037,413	45,05
1037,781	44,27
1038,15	45,48
1038,518	45,02
1038,887	45,1
1039,255	44,9
1039,623	44,32
1039,991	44,58
1040,359	44,23
1040,727	44,72
1041,095	45,46
1041,463	45,1
1041,831	45
1042,198	43,83
1042,566	45,81
1042,933	45,67
1043,301	45,26
1043,668	44,53
1044,035	45,05
1044,402	46,06
1044,77	45,12
1045,137	45,35
1045,503	45,64
1045,87	43,94
1046,237	45,35
1046,604	45,62
1046,97	44,69
1047,337	46,46
1047,703	46,05
1048,07	46,08
1048,436	46,39
1048,802	45,69
1049,168	46,52
1049,534	44,88
1049,9	46,97
1050,266	46,29
1050,632	46,6
1050,998	46,5
1051,364	46,72
1051,729	46,81
1052,095	46,7
1052,46	45,68
1052,825	46,57
1053,191	45,69
1053,556	45,31
1053,921	46,12
1054,286	45,84
1054,651	46,69
1055,016	47,54
1055,381	46,58
1055,745	45,12
1056,11	45,93
1056,475	46,85
1056,839	46,9
1057,203	47,22
1057,568	46,98
1057,932	46,88
1058,296	47,85
1058,66	47,48
1059,024	47,51
1059,388	47,66
1059,752	46,86
1060,116	47,83
1060,48	48,98
1060,843	47,05
1061,207	48,02
1061,57	47,17
1061,934	47,55
1062,297	47,72
1062,66	46,79
1063,023	48,09
1063,386	48,51
1063,749	47,96
1064,112	47,29
1064,475	47,73
1064,838	47,46
1065,201	48,32
1065,563	46,97
1065,926	46,99
1066,288	47,88
1066,651	46,96
1067,013	48,54
1067,375	47,55
1067,737	49,04
1068,099	47,55
1068,461	48,76
1068,823	47,52
1069,185	48,06
1069,547	47,98
1069,909	46,51
1070,27	48,01
1070,632	47,36
1070,993	49,12
1071,355	49,24
1071,716	49,2
1072,077	47,5
1072,438	48,26
1072,799	48,38
1073,16	50,13
1073,521	46,39
1073,882	49,81
1074,243	48,85
1074,603	48,72
1074,964	47,55
1075,325	49,76
1075,685	47,37
1076,045	47,3
1076,406	48,23
1076,766	47,58
1077,126	48,33
1077,486	49,68
1077,846	49,83
1078,206	49,88
1078,566	48,95
1078,925	48,14
1079,285	48,85
1079,645	50,96
1080,004	47,4
1080,364	49,15
1080,723	48,85
1081,082	50,42
1081,442	47,8
1081,801	48,26
1082,16	49,33
1082,519	48,84
1082,878	50,2
1083,237	47,75
1083,595	49,76
1083,954	48,92
1084,313	48,86
1084,671	51,03
1085,03	50,07
1085,388	49,9
1085,746	49,39
1086,104	48,43
1086,463	50,97
1086,821	50,87
1087,179	50,56
1087,537	52,2
1087,894	48,75
1088,252	50,73
1088,61	49,08
1088,967	51,89
1089,325	51,6
1089,682	51,87
1090,04	51,63
1090,397	51,65
1090,754	51,17
1091,111	49,6
1091,469	52,95
1091,826	50,29
1092,182	52,94
1092,539	50,73
1092,896	51,07
1093,253	50,52
1093,609	51,74
1093,966	50,45
1094,322	50,09
1094,679	50,18
1095,035	53,61
1095,391	50,73
1095,748	52,25
1096,104	50,24
1096,46	55,3
1096,816	53,19
1097,171	52,06
1097,527	51,4
1097,883	53,8
1098,239	51,97
1098,594	52,86
1098,95	52,94
1099,305	52,93
1099,66	52,54
1100,016	48,61
1100,371	53,37
1100,726	53,1
1101,081	52,01
1101,436	55,23
1101,791	53,41
1102,146	52,32
1102,5	53,71
1102,855	53,51
1103,21	55,47
1103,564	55,16
1103,918	53,69
1104,273	55,39
1104,627	54,17
1104,981	51,47
1105,335	53,54
1105,69	57,91
1106,043	53,87
1106,397	55,22
1106,751	54,34
1107,105	56,32
1107,459	55,93
1107,812	57,06
1108,166	56,5
1108,519	52,68
1108,873	57,77
1109,226	59,81
1109,579	55,19
1109,932	53,89
1110,285	54,94
1110,638	58,88
1110,991	57,52
1111,344	50,88
1111,697	56,31
1112,05	56,29
1112,402	62,71
1112,755	56,99
1113,107	59,4
1113,46	56,75
1113,812	61,03
1114,164	64,08
1114,517	60,09
1114,869	143,52
1115,221	157,89
1115,573	148,48
1115,924	171,7
