Data from F1__Relative__1__00100.txt Node

Date: Wed Jan 31 18:29:39 CET 2024
User: diatiterra
Spectrometer: HDX00911
Trigger mode: 0
Integration Time (sec): 6,000000E-3
Scans to average: 2
Nonlinearity correction enabled: false
Boxcar width: 0
Storing dark spectrum: false
XAxis mode: Wavelengths
Number of Pixels in Spectrum: 2068
>>>>>Begin Spectral Data<<<<<
194,468	240,57
195,025	159,09
195,581	203,66
196,138	230,77
196,694	138,89
197,251	116,67
197,807	100,39
198,363	96,4
198,919	87,93
199,474	93,75
200,03	97,95
200,586	112,5
201,141	81,29
201,696	86,91
202,251	92,42
202,806	85,66
203,361	94,07
203,916	86,11
204,471	90,15
205,025	108,06
205,58	91,43
206,134	91,6
206,688	100,77
207,242	96,46
207,796	94,36
208,35	88,04
208,904	92,41
209,457	80,56
210,011	87,23
210,564	88,38
211,117	95,86
211,67	92,54
212,223	93,49
212,776	94,35
213,329	87,33
213,881	110,78
214,434	86,18
214,986	105,79
215,538	98,53
216,09	81,69
216,642	109,92
217,194	99,62
217,746	103,38
218,297	88,55
218,849	100
219,4	106,3
219,951	97,98
220,502	89,19
221,053	107,25
221,604	92,95
222,155	92,86
222,705	93,01
223,256	92,54
223,806	107,09
224,356	98,46
224,906	110,89
225,456	107,36
226,006	92,86
226,556	79,87
227,106	103,63
227,655	85,07
228,204	105,83
228,754	88,73
229,303	88,57
229,852	88,13
230,401	87,31
230,949	97,48
231,498	91,55
232,047	80,19
232,595	93,1
233,143	106,69
233,691	91,86
234,239	83,93
234,787	96,4
235,335	91,42
235,883	85,31
236,43	95,45
236,978	90,77
237,525	91,97
238,072	86,52
238,619	94,7
239,166	85,11
239,713	85,4
240,26	90,71
240,806	98,26
241,353	99,21
241,899	88,11
242,445	89,05
242,991	91,6
243,537	89,77
244,083	98,09
244,629	97,69
245,174	103,98
245,72	94,44
246,265	84,13
246,81	100,8
247,355	106,35
247,9	93,28
248,445	101,19
248,99	93,18
249,534	104,78
250,079	96,99
250,623	95,56
251,168	101,65
251,712	98,05
252,256	95,9
252,8	97,69
253,343	95
253,887	98,39
254,43	102,67
254,974	96,95
255,517	90,07
256,06	105
256,603	88,15
257,146	103,1
257,689	97,64
258,232	100,42
258,774	98,94
259,317	104,66
259,859	108,72
260,401	103,49
260,943	93,97
261,485	91,13
262,027	101,2
262,569	107,84
263,11	103,08
263,652	111,02
264,193	97,52
264,734	95,62
265,275	99,59
265,816	96,56
266,357	94,57
266,898	96,92
267,438	104,33
267,979	93,17
268,519	98,88
269,059	112,15
269,6	94,36
270,14	109,68
270,68	99,28
271,219	106,78
271,759	88,72
272,298	99,62
272,838	95,77
273,377	94,84
273,916	92,09
274,455	93,8
274,994	101,6
275,533	94,93
276,072	101,22
276,61	93,48
277,149	100,83
277,687	98,5
278,225	89,33
278,763	122,37
279,301	104,17
279,839	107,26
280,377	98,36
280,914	88,81
281,452	106,84
281,989	99,17
282,526	105,51
283,064	109,66
283,601	85,47
284,137	94,63
284,674	104,58
285,211	112,72
285,747	89,02
286,284	113,96
286,82	102,07
287,356	91,45
287,892	98,06
288,428	104,96
288,964	113,87
289,5	106,61
290,035	101,6
290,571	103,36
291,106	102,44
291,641	110,71
292,176	97,66
292,711	103,66
293,246	93,08
293,781	101,24
294,315	83,1
294,85	120,37
295,384	94,67
295,918	97,43
296,453	80,22
296,987	90,08
297,52	97,93
298,054	99,24
298,588	94,58
299,121	86,57
299,655	95,99
300,188	101,67
300,721	95,53
301,254	96,77
301,787	101,95
302,32	111,79
302,853	103,6
303,385	94,29
303,918	87,6
304,45	95,77
304,982	87,59
305,514	93,41
306,046	97,52
306,578	89,92
307,11	82,17
307,641	97,41
308,173	97,11
308,704	92,98
309,236	81,95
309,767	88,65
310,298	89,92
310,829	103,04
311,359	97,98
311,89	98,32
312,421	101,35
312,951	99,19
313,481	82,41
314,012	88,81
314,542	108,47
315,072	88,93
315,601	98,8
316,131	101,57
316,661	95,83
317,19	95,19
317,72	103,31
318,249	100
318,778	101,17
319,307	97,66
319,836	102,65
320,365	101,3
320,893	94,63
321,422	109,76
321,95	107,89
322,479	98,47
323,007	106,36
323,535	91,79
324,063	100
324,591	93,2
325,118	92,34
325,646	107,98
326,173	92,5
326,701	104,47
327,228	106,9
327,755	85,34
328,282	91,98
328,809	108,47
329,336	98,43
329,862	93,38
330,389	81,25
330,915	102,76
331,441	91,6
331,968	106,31
332,494	91,67
333,02	95,42
333,545	94,4
334,071	113,22
334,597	84,15
335,122	93,33
335,648	103,45
336,173	85,98
336,698	82,59
337,223	89,71
337,748	85,76
338,272	86,3
338,797	93,84
339,322	79,56
339,846	86,03
340,37	105,65
340,894	88,89
341,419	86,84
341,942	87,41
342,466	90,38
342,99	78,86
343,514	87,32
344,037	77,53
344,56	94,07
345,084	84,25
345,607	84,03
346,13	87,68
346,653	86,33
347,175	80,45
347,698	78,3
348,221	84,64
348,743	81,37
349,265	79,5
349,787	75,77
350,309	76,27
350,831	77,78
351,353	74,09
351,875	77,19
352,397	76,22
352,918	81,25
353,439	81,79
353,961	72,67
354,482	70,76
355,003	69,48
355,524	70,56
356,044	67,33
356,565	82,23
357,086	69,77
357,606	61,81
358,126	66,76
358,646	60,97
359,167	69,73
359,687	71,19
360,206	67,49
360,726	62,09
361,246	72,61
361,765	66,67
362,285	60,75
362,804	69,21
363,323	53,66
363,842	62,64
364,361	58,96
364,88	65,76
365,398	56,11
365,917	58,49
366,435	65,36
366,954	58,04
367,472	54,01
367,99	59,48
368,508	51,21
369,026	67,73
369,544	56,36
370,061	56,09
370,579	53,48
371,096	59,17
371,613	51,08
372,131	49,8
372,648	53,35
373,165	53,91
373,681	51,9
374,198	55,86
374,715	52,26
375,231	52,46
375,747	47,59
376,264	45,58
376,78	48,02
377,296	51,12
377,812	46,18
378,327	47,02
378,843	48,81
379,359	47,52
379,874	51,38
380,389	45,58
380,905	40
381,42	42,71
381,935	45,27
382,449	41,89
382,964	41
383,479	41,95
383,993	39,61
384,508	40,03
385,022	40,03
385,536	40,79
386,05	38,85
386,564	39,18
387,078	36,72
387,592	36,5
388,105	40,78
388,619	35,04
389,132	36,29
389,645	38,16
390,158	34,55
390,671	33,4
391,184	32,29
391,697	32,67
392,21	31,33
392,722	32,34
393,235	31,99
393,747	32,3
394,259	32,02
394,771	28,24
395,283	30,22
395,795	29,66
396,307	30,75
396,818	29,74
397,33	26,7
397,841	30,27
398,353	28,96
398,864	26,95
399,375	27,3
399,886	25,34
400,397	26,09
400,907	25,34
401,418	23,32
401,928	24,48
402,439	24,48
402,949	20,62
403,459	20,64
403,969	21,48
404,479	20,28
404,989	19,87
405,498	19,97
406,008	20,21
406,517	19,33
407,027	16,76
407,536	17,59
408,045	16,94
408,554	17,28
409,063	14,95
409,572	14,56
410,08	14,74
410,589	14,78
411,097	14,07
411,606	14,31
412,114	12,77
412,622	13,6
413,13	12,84
413,638	11,83
414,145	11,37
414,653	11,96
415,16	10,71
415,668	11,15
416,175	10,26
416,682	10,76
417,189	9,28
417,696	10,12
418,203	10,47
418,71	10,22
419,216	10,05
419,723	9,49
420,229	9,4
420,735	8,61
421,242	9,19
421,748	9,24
422,254	8,39
422,759	8,05
423,265	8,92
423,771	8,12
424,276	8,03
424,781	8,1
425,287	7,62
425,792	7,63
426,297	8,3
426,802	7,23
427,306	7,54
427,811	7,65
428,316	7,32
428,82	7,28
429,324	7,59
429,829	7,26
430,333	7,24
430,837	7,2
431,34	7,32
431,844	7,28
432,348	6,74
432,851	6,6
433,355	6,9
433,858	6,99
434,361	6,44
434,864	6,56
435,367	6,96
435,87	7,17
436,373	7,26
436,876	6,55
437,378	6,61
437,88	6,37
438,383	6,53
438,885	6,32
439,387	6,28
439,889	6,55
440,391	6,48
440,892	6,37
441,394	6,86
441,896	6,42
442,397	6,38
442,898	6,15
443,399	6,75
443,9	6,07
444,401	5,83
444,902	6,27
445,403	6,05
445,903	6,31
446,404	6,73
446,904	6,16
447,405	5,91
447,905	6,49
448,405	6,23
448,905	6,61
449,404	6,2
449,904	6,31
450,404	6,18
450,903	6,56
451,403	6,19
451,902	6,42
452,401	6,3
452,9	6,46
453,399	6,23
453,898	6,14
454,396	6,25
454,895	5,94
455,393	6,01
455,892	6,24
456,39	6,34
456,888	6,45
457,386	6,2
457,884	6,5
458,382	6,41
458,879	6,11
459,377	6,54
459,874	6,04
460,372	6,02
460,869	5,97
461,366	6,18
461,863	6,16
462,36	5,93
462,857	5,96
463,353	6,1
463,85	6,17
464,346	5,93
464,843	6,09
465,339	5,87
465,835	6,43
466,331	6,04
466,827	5,93
467,323	6,04
467,818	5,96
468,314	5,96
468,809	5,84
469,305	5,73
469,8	5,99
470,295	6,04
470,79	5,9
471,285	5,92
471,78	5,55
472,274	5,87
472,769	5,72
473,263	5,94
473,758	5,7
474,252	5,88
474,746	5,99
475,24	5,77
475,734	5,65
476,228	5,94
476,721	5,73
477,215	5,67
477,708	5,69
478,202	5,68
478,695	5,93
479,188	5,71
479,681	5,55
480,174	5,85
480,667	5,89
481,159	5,74
481,652	5,8
482,144	5,7
482,637	6,03
483,129	5,86
483,621	5,84
484,113	5,86
484,605	5,9
485,097	5,86
485,588	5,61
486,08	5,91
486,571	5,86
487,063	5,72
487,554	5,89
488,045	5,98
488,536	5,84
489,027	5,86
489,518	6,22
490,008	5,77
490,499	5,84
490,989	5,98
491,48	6,04
491,97	5,7
492,46	6,04
492,95	6,01
493,44	6,23
493,93	6,19
494,419	6,03
494,909	6,17
495,398	6,02
495,888	6,27
496,377	6,3
496,866	6,31
497,355	6,25
497,844	6,25
498,333	6,4
498,821	6,32
499,31	6,37
499,798	6,61
500,287	6,71
500,775	6,92
501,263	6,93
501,751	6,95
502,239	7,01
502,727	7,09
503,215	7,11
503,702	7,32
504,19	7,09
504,677	7,59
505,164	7,61
505,651	7,68
506,139	7,75
506,625	7,66
507,112	7,76
507,599	8,32
508,086	8,26
508,572	8,83
509,058	8,5
509,545	8,6
510,031	8,67
510,517	9,12
511,003	8,84
511,489	9,4
511,974	9,72
512,46	9,64
512,946	9,44
513,431	10,26
513,916	10,41
514,401	10,16
514,887	10,69
515,371	10,94
515,856	11,13
516,341	11,12
516,826	11,28
517,31	11,6
517,795	11,85
518,279	11,74
518,763	12,28
519,247	12,51
519,731	13,05
520,215	13,25
520,699	13,26
521,182	13,48
521,666	13,79
522,149	14,08
522,633	14,51
523,116	14,67
523,599	14,85
524,082	14,86
524,565	15,45
525,048	15,59
525,53	15,59
526,013	16,1
526,495	16,28
526,978	16,45
527,46	16,7
527,942	16,62
528,424	17,07
528,906	16,98
529,388	17,14
529,87	17,64
530,351	17,18
530,833	17,63
531,314	17,83
531,795	18,07
532,277	18,48
532,758	18,25
533,238	18,29
533,719	18,66
534,2	18,41
534,681	18,8
535,161	18,68
535,642	19,24
536,122	18,69
536,602	18,49
537,082	19,28
537,562	19,37
538,042	19,26
538,522	19,21
539,001	19,56
539,481	19,41
539,96	19,03
540,44	19,32
540,919	19,39
541,398	19,59
541,877	19,67
542,356	19,55
542,835	19,48
543,313	19,73
543,792	19,85
544,27	19,82
544,749	19,63
545,227	19,71
545,705	19,94
546,183	20,15
546,661	20,17
547,139	19,98
547,616	19,89
548,094	19,94
548,571	20,17
549,049	20,32
549,526	19,84
550,003	20,25
550,48	20,04
550,957	20,29
551,434	20,29
551,911	20,28
552,387	20,13
552,864	20,16
553,34	20,41
553,817	20,08
554,293	20,21
554,769	20,2
555,245	20,06
555,721	20,4
556,197	20,43
556,672	20,36
557,148	20,33
557,623	20,24
558,099	20,02
558,574	20,33
559,049	19,96
559,524	20,03
559,999	19,91
560,474	19,7
560,948	19,57
561,423	19,93
561,897	19,88
562,372	19,8
562,846	19,6
563,32	19,43
563,794	19,56
564,268	19,6
564,742	19,26
565,216	19,03
565,69	18,99
566,163	18,7
566,636	18,49
567,11	18,51
567,583	18,41
568,056	18,61
568,529	18,46
569,002	17,97
569,475	18,02
569,947	17,86
570,42	17,83
570,892	17,49
571,365	17,57
571,837	17,42
572,309	17,08
572,781	17,08
573,253	16,83
573,725	16,92
574,197	16,56
574,668	16,55
575,14	16,17
575,611	16,08
576,082	15,8
576,554	15,68
577,025	15,57
577,496	15,65
577,967	15,31
578,437	15,54
578,908	15,24
579,379	15,03
579,849	15,17
580,319	14,93
580,79	14,42
581,26	14,61
581,73	14,64
582,2	14,23
582,669	14,53
583,139	14,23
583,609	13,98
584,078	14,26
584,548	13,93
585,017	14,12
585,486	13,74
585,955	14,02
586,424	13,9
586,893	13,64
587,362	13,7
587,83	13,6
588,299	13,46
588,767	13,48
589,236	13,51
589,704	13,34
590,172	13,15
590,64	13,09
591,108	13,35
591,576	13,16
592,043	13,18
592,511	13,17
592,978	13,23
593,446	12,87
593,913	12,85
594,38	12,7
594,847	12,81
595,314	12,75
595,781	12,55
596,248	12,72
596,715	12,61
597,181	12,72
597,647	12,71
598,114	12,77
598,58	12,54
599,046	12,54
599,512	12,5
599,978	12,35
600,444	12,41
600,91	12,5
601,375	12,2
601,841	12,41
602,306	12,48
602,771	12,36
603,236	12,18
603,702	12,27
604,167	12,23
604,631	11,97
605,096	12,2
605,561	12,03
606,025	11,95
606,49	11,89
606,954	11,9
607,418	11,77
607,882	11,61
608,347	11,68
608,81	11,54
609,274	11,34
609,738	11,44
610,202	11,45
610,665	11,23
611,128	11,22
611,592	11,05
612,055	10,93
612,518	10,9
612,981	11,08
613,444	10,94
613,907	10,67
614,369	10,57
614,832	10,61
615,294	10,35
615,757	10,49
616,219	10,58
616,681	10,36
617,143	10,25
617,605	10,26
618,067	10,05
618,529	10
618,99	10,16
619,452	9,84
619,913	9,97
620,375	9,74
620,836	9,87
621,297	9,98
621,758	9,69
622,219	9,75
622,68	9,7
623,14	9,52
623,601	9,65
624,061	9,41
624,522	9,63
624,982	9,64
625,442	9,4
625,902	9,49
626,362	9,54
626,822	9,4
627,282	9,5
627,742	9,49
628,201	9,42
628,661	9,44
629,12	9,47
629,579	9,36
630,038	9,5
630,497	9,29
630,956	9,36
631,415	9,39
631,874	9,24
632,332	9,13
632,791	9,14
633,249	9,18
633,708	9,31
634,166	9,1
634,624	8,99
635,082	9,09
635,54	9,26
635,998	9
636,455	8,98
636,913	8,67
637,37	8,77
637,828	8,73
638,285	8,53
638,742	8,43
639,199	8,46
639,656	8,45
640,113	8,35
640,57	8,34
641,027	8,16
641,483	8,03
641,94	8,06
642,396	7,94
642,852	7,93
643,309	7,73
643,765	7,63
644,221	7,7
644,676	7,49
645,132	7,5
645,588	7,41
646,043	7,2
646,499	7,26
646,954	7,04
647,409	7,1
647,864	6,97
648,319	6,99
648,774	6,81
649,229	6,81
649,684	6,82
650,139	6,61
650,593	6,68
651,047	6,63
651,502	6,54
651,956	6,44
652,41	6,46
652,864	6,45
653,318	6,43
653,772	6,4
654,225	6,34
654,679	6,24
655,133	6,36
655,586	6,18
656,039	6,11
656,492	6,16
656,946	6
657,399	5,95
657,851	5,92
658,304	6
658,757	5,83
659,209	5,83
659,662	5,72
660,114	5,78
660,567	5,74
661,019	5,61
661,471	5,59
661,923	5,46
662,375	5,49
662,826	5,33
663,278	5,37
663,73	5,27
664,181	5,26
664,632	5,27
665,084	5,29
665,535	5,19
665,986	5,23
666,437	5,24
666,888	5,25
667,338	5,16
667,789	5,25
668,24	5,13
668,69	5,13
669,14	5,02
669,591	5,24
670,041	5,18
670,491	5,18
670,941	5,23
671,391	5,22
671,84	5,25
672,29	5,29
672,74	5,32
673,189	5,41
673,638	5,38
674,088	5,41
674,537	5,45
674,986	5,51
675,435	5,56
675,883	5,7
676,332	5,68
676,781	5,67
677,229	5,8
677,678	5,81
678,126	5,95
678,574	5,94
679,022	6
679,47	6,15
679,918	6,18
680,366	6,24
680,814	6,27
681,261	6,39
681,709	6,57
682,156	6,59
682,604	6,63
683,051	6,7
683,498	6,78
683,945	6,95
684,392	6,97
684,839	7,21
685,286	7,15
685,732	7,26
686,179	7,33
686,625	7,49
687,071	7,42
687,518	7,69
687,964	7,9
688,41	7,94
688,856	8,08
689,301	8,29
689,747	8,44
690,193	8,64
690,638	8,92
691,084	9,16
691,529	9,35
691,974	9,81
692,419	10,08
692,864	10,48
693,309	10,56
693,754	10,99
694,199	11,42
694,643	11,76
695,088	12,21
695,532	12,54
695,977	12,99
696,421	13,45
696,865	13,79
697,309	14,17
697,753	14,61
698,197	15,04
698,64	15,5
699,084	16,1
699,527	16,4
699,971	17,08
700,414	17,35
700,857	18,12
701,3	18,09
701,743	18,56
702,186	19,03
702,629	19,55
703,072	20,07
703,515	20,35
703,957	20,47
704,399	21,14
704,842	21,61
705,284	21,76
705,726	22,14
706,168	22,55
706,61	22,99
707,052	23,29
707,494	23,94
707,935	23,99
708,377	24,45
708,818	24,8
709,26	25,13
709,701	25,19
710,142	25,81
710,583	26,05
711,024	26,56
711,465	26,64
711,905	27,34
712,346	27,1
712,787	27,48
713,227	27,83
713,667	28,13
714,108	28,44
714,548	28,79
714,988	29,24
715,428	29,4
715,868	29,84
716,307	29,86
716,747	30,1
717,186	30,46
717,626	30,69
718,065	31,04
718,504	31,22
718,944	31,41
719,383	31,61
719,822	32,09
720,261	32,27
720,699	32,31
721,138	32,27
721,576	32,71
722,015	32,98
722,453	33,18
722,892	33,32
723,33	33,44
723,768	33,94
724,206	33,78
724,644	34,07
725,081	34,21
725,519	34,21
725,957	34,28
726,394	34,45
726,832	34,67
727,269	34,84
727,706	34,91
728,143	34,91
728,58	35,41
729,017	35,22
729,454	35,24
729,89	35,65
730,327	35,63
730,764	36,03
731,2	35,91
731,636	36,05
732,072	36,3
732,509	36,14
732,945	36,45
733,38	36,29
733,816	36,49
734,252	36,58
734,688	36,54
735,123	36,57
735,559	36,64
735,994	36,75
736,429	36,97
736,864	37,06
737,299	36,78
737,734	36,98
738,169	36,87
738,604	36,94
739,038	36,99
739,473	36,93
739,907	37,17
740,342	37,21
740,776	37,19
741,21	36,91
741,644	37,38
742,078	37,24
742,512	37,11
742,946	37,33
743,379	37
743,813	37,18
744,246	37,13
744,68	37,49
745,113	37,2
745,546	37,38
745,979	37,21
746,412	37,05
746,845	37,09
747,278	37,2
747,711	36,95
748,143	36,92
748,576	37,21
749,008	37,3
749,441	36,92
749,873	36,87
750,305	36,84
750,737	36,79
751,169	37,07
751,601	36,79
752,032	36,73
752,464	36,62
752,896	36,58
753,327	37,1
753,758	37,08
754,19	36,83
754,621	36,76
755,052	36,57
755,483	36,79
755,914	37,02
756,344	36,79
756,775	36,84
757,206	36,69
757,636	36,87
758,066	36,56
758,497	36,74
758,927	36,85
759,357	36,73
759,787	36,48
760,217	36,28
760,647	36,61
761,076	36,35
761,506	36,18
761,935	36,26
762,365	36,38
762,794	36,47
763,223	36,5
763,653	36,25
764,082	36,01
764,51	36,34
764,939	36,32
765,368	36,19
765,797	36,24
766,225	36,1
766,654	36,12
767,082	36,02
767,51	36,27
767,938	35,74
768,367	36,1
768,795	35,91
769,222	36,43
769,65	36,28
770,078	35,78
770,505	35,9
770,933	35,97
771,36	36,12
771,788	35,96
772,215	35,65
772,642	35,85
773,069	35,94
773,496	35,63
773,923	35,7
774,349	35,82
774,776	35,93
775,203	35,86
775,629	35,72
776,055	35,33
776,482	35,78
776,908	35,45
777,334	35,42
777,76	35,6
778,186	35,72
778,611	35,82
779,037	35,47
779,463	35,51
779,888	35,7
780,314	35,51
780,739	35,96
781,164	35,73
781,589	35,47
782,014	35,63
782,439	35,54
782,864	35,65
783,289	35,69
783,713	35,38
784,138	35,6
784,562	35,27
784,987	35,49
785,411	35,35
785,835	35,19
786,259	35,33
786,683	35,77
787,107	35,42
787,531	35,3
787,954	35,24
788,378	35,26
788,802	35,32
789,225	35,15
789,648	35,54
790,071	34,81
790,495	35,38
790,918	35,51
791,34	35,16
791,763	35,35
792,186	35,27
792,609	35,19
793,031	35,25
793,454	35,07
793,876	35,47
794,298	35,33
794,721	35,23
795,143	35,18
795,565	35,12
795,986	35,13
796,408	35,41
796,83	35,2
797,252	35,11
797,673	35,43
798,094	35,7
798,516	35,32
798,937	35,24
799,358	35,15
799,779	35,26
800,2	35,39
800,621	35,13
801,042	34,97
801,462	35,08
801,883	34,91
802,303	34,84
802,724	35,15
803,144	35,07
803,564	35,18
803,984	35,11
804,404	35,3
804,824	35,21
805,244	34,96
805,664	35,43
806,084	35,12
806,503	35,11
806,923	35,1
807,342	35,19
807,761	34,91
808,18	35,18
808,599	34,85
809,018	35,03
809,437	34,99
809,856	34,85
810,275	35,3
810,693	34,93
811,112	35,16
811,53	35,4
811,949	35,22
812,367	35,11
812,785	34,92
813,203	35,06
813,621	35,11
814,039	35,15
814,457	34,96
814,874	34,92
815,292	34,86
815,709	35,09
816,127	34,99
816,544	35,3
816,961	35,01
817,378	35,33
817,795	35,03
818,212	34,86
818,629	35,11
819,046	34,85
819,462	34,61
819,879	34,79
820,295	34,8
820,712	34,99
821,128	34,91
821,544	35,03
821,96	35,09
822,376	34,98
822,792	35,09
823,208	34,97
823,624	35,2
824,039	35,03
824,455	35,09
824,87	34,8
825,286	34,82
825,701	34,78
826,116	34,66
826,531	34,76
826,946	34,86
827,361	34,98
827,776	34,69
828,19	34,75
828,605	34,81
829,02	34,88
829,434	34,77
829,848	34,79
830,263	34,99
830,677	34,76
831,091	34,49
831,505	34,61
831,919	34,67
832,332	35,01
832,746	34,93
833,16	34,27
833,573	34,7
833,987	35,12
834,4	34,6
834,813	34,23
835,226	34,67
835,639	34,84
836,052	34,42
836,465	34,76
836,878	34,85
837,29	34,62
837,703	34,87
838,116	34,78
838,528	34,55
838,94	34,68
839,352	34,67
839,765	34,83
840,177	34,78
840,589	34,65
841	34,6
841,412	34,84
841,824	34,71
842,235	34,38
842,647	34,56
843,058	35
843,47	34,63
843,881	34,91
844,292	34,63
844,703	34,63
845,114	34,58
845,525	34,72
845,935	34,58
846,346	34,94
846,757	34,59
847,167	34,55
847,577	34,49
847,988	34,62
848,398	34,29
848,808	34,56
849,218	34,55
849,628	34,57
850,038	34,68
850,448	34,61
850,857	34,69
851,267	34,99
851,676	34,55
852,086	34,57
852,495	34,53
852,904	34,42
853,313	34,52
853,722	34,77
854,131	34,63
854,54	34,38
854,949	34,49
855,357	34,37
855,766	34,56
856,174	34,37
856,583	34,48
856,991	34,26
857,399	34,79
857,807	34,59
858,215	34,29
858,623	34,82
859,031	34,54
859,439	34,93
859,846	34,45
860,254	34,52
860,661	34,95
861,069	34,72
861,476	34,49
861,883	34,37
862,29	34,18
862,697	34,71
863,104	34,39
863,511	34,55
863,918	34,23
864,325	34,55
864,731	34,38
865,138	34,31
865,544	34,28
865,95	34,57
866,357	34,45
866,763	34,79
867,169	34,62
867,575	34,46
867,98	34,34
868,386	34,58
868,792	34,77
869,197	34,41
869,603	34,69
870,008	34,41
870,414	34,54
870,819	34,49
871,224	34,58
871,629	34,32
872,034	34,43
872,439	34,03
872,844	34,33
873,248	34,34
873,653	34,42
874,057	34,28
874,462	34,45
874,866	34,6
875,27	34,82
875,674	34,73
876,078	34,58
876,482	34,47
876,886	34,34
877,29	34,34
877,694	34,34
878,097	34,45
878,501	34,14
878,904	33,9
879,308	34,18
879,711	34,36
880,114	34,49
880,517	34,78
880,92	34,28
881,323	34,38
881,726	34,46
882,128	34,83
882,531	34,26
882,934	34,4
883,336	34,54
883,738	34,16
884,141	34,37
884,543	34,16
884,945	34,19
885,347	34,23
885,749	34,26
886,151	34,56
886,552	34,41
886,954	33,89
887,355	34,15
887,757	34,36
888,158	34,18
888,56	34,5
888,961	34,35
889,362	34,41
889,763	34,13
890,164	34,49
890,565	34,27
890,965	34,33
891,366	34,36
891,767	34,72
892,167	34,22
892,567	34,35
892,968	34,38
893,368	34,3
893,768	34,2
894,168	33,94
894,568	34
894,968	34,06
895,368	34,32
895,767	34,4
896,167	34,19
896,566	34,29
896,966	34,3
897,365	34,57
897,764	34,33
898,164	34,57
898,563	34,39
898,962	34,49
899,361	34,69
899,759	34,38
900,158	33,9
900,557	34,43
900,955	34,13
901,354	33,84
901,752	34,12
902,15	34,03
902,548	34,32
902,947	34,09
903,345	34,21
903,742	34,36
904,14	34,31
904,538	34,23
904,936	34,5
905,333	34,09
905,731	34,28
906,128	34,33
906,525	34,56
906,923	34,26
907,32	34,39
907,717	34,26
908,114	34,48
908,511	34,13
908,907	34,43
909,304	34,22
909,701	34,03
910,097	34,13
910,494	34,17
910,89	34,45
911,286	33,91
911,682	34,34
912,078	34,34
912,474	34,6
912,87	34,63
913,266	34,19
913,662	33,95
914,058	34,15
914,453	33,88
914,849	33,96
915,244	33,83
915,639	34,66
916,034	33,9
916,43	34,63
916,825	34,28
917,22	34,14
917,614	34,53
918,009	34,7
918,404	34,2
918,798	33,94
919,193	34,26
919,587	34,37
919,982	34,15
920,376	33,96
920,77	34,15
921,164	34,38
921,558	34,17
921,952	34,34
922,346	34,24
922,74	34,34
923,133	34,33
923,527	34,13
923,92	34,61
924,314	34,37
924,707	34,03
925,1	34,21
925,493	34,45
925,886	33,98
926,279	34,01
926,672	34,35
927,065	33,88
927,457	34,44
927,85	34,33
928,243	34,32
928,635	34,02
929,027	34,55
929,42	34,6
929,812	34,11
930,204	35,05
930,596	34,61
930,988	34,58
931,379	34,29
931,771	34,33
932,163	34,11
932,554	34,12
932,946	33,76
933,337	34,09
933,729	34,21
934,12	33,99
934,511	34,37
934,902	34,21
935,293	33,73
935,684	34,59
936,075	34,81
936,465	34,66
936,856	33,92
937,246	34,91
937,637	34,25
938,027	34,54
938,417	33,77
938,808	34,44
939,198	33,93
939,588	35,04
939,978	34,72
940,368	34,26
940,757	34,85
941,147	35,03
941,537	34,43
941,926	35,28
942,315	34,51
942,705	34,81
943,094	34,89
943,483	35,25
943,872	34,01
944,261	34,27
944,65	34,08
945,039	35,17
945,428	34,99
945,816	35,17
946,205	35,07
946,593	34,95
946,982	34,76
947,37	34,96
947,758	34,39
948,146	34,68
948,534	34,65
948,922	34,51
949,31	34,32
949,698	34,95
950,086	34,23
950,473	34,1
950,861	34,92
951,248	34,41
951,636	33,76
952,023	34,57
952,41	34,22
952,797	34,41
953,184	34,46
953,571	34,37
953,958	33,89
954,345	33,76
954,731	34,34
955,118	34,35
955,505	34,04
955,891	34,11
956,277	34,2
956,664	34,19
957,05	33,99
957,436	34,22
957,822	34,06
958,208	33,54
958,594	33,21
958,979	34,32
959,365	33,4
959,751	34,12
960,136	33,63
960,522	33,91
960,907	33,69
961,292	34,15
961,677	33,87
962,062	33,82
962,447	33,89
962,832	33,75
963,217	34,26
963,602	34,43
963,986	34,31
964,371	33,55
964,756	33,82
965,14	33,87
965,524	33,97
965,908	33,92
966,293	33,66
966,677	33,87
967,061	34,54
967,445	33,91
967,828	33,89
968,212	33,62
968,596	33,99
968,979	33,99
969,363	34,13
969,746	34,43
970,129	34,04
970,513	33,93
970,896	33,9
971,279	33,92
971,662	33,89
972,045	33,84
972,428	34,25
972,81	33,66
973,193	34,47
973,575	33,47
973,958	33,53
974,34	33,95
974,723	33,7
975,105	33,59
975,487	33,84
975,869	34,15
976,251	33,82
976,633	33,9
977,015	33,84
977,396	33,81
977,778	33,86
978,16	33,54
978,541	33,91
978,922	33,79
979,304	33,86
979,685	34,39
980,066	33,7
980,447	33,57
980,828	34
981,209	33,87
981,59	33,85
981,97	33,82
982,351	34,26
982,732	34,53
983,112	34,1
983,493	34,12
983,873	33,89
984,253	33,98
984,633	34
985,013	34,15
985,393	34,25
985,773	33,81
986,153	34,29
986,533	33,64
986,912	34,57
987,292	34,13
987,671	33,97
988,051	34,41
988,43	33,71
988,809	33,86
989,188	34,19
989,567	34,01
989,946	34,24
990,325	34,08
990,704	34,04
991,083	34,45
991,461	34,56
991,84	34,59
992,218	34,1
992,597	33,84
992,975	34,06
993,353	33,91
993,732	34,02
994,11	34,52
994,488	34,87
994,866	34,16
995,243	34,02
995,621	34,85
995,999	35,06
996,376	34,46
996,754	34,17
997,131	34,48
997,509	34,17
997,886	34
998,263	34,77
998,64	33,87
999,017	34,04
999,394	34,43
999,771	34,52
1000,148	33,95
1000,524	33,87
1000,901	34,12
1001,277	35,15
1001,654	34,25
1002,03	35,39
1002,406	34,72
1002,783	34,41
1003,159	34,93
1003,535	34,89
1003,911	34,62
1004,286	34,99
1004,662	35,15
1005,038	34,78
1005,414	35,41
1005,789	34,58
1006,164	34,45
1006,54	34,69
1006,915	34,89
1007,29	34,64
1007,665	34,46
1008,04	34,54
1008,415	34,81
1008,79	34,58
1009,165	34,35
1009,54	34,63
1009,914	34,76
1010,289	34,76
1010,663	34,71
1011,038	35,12
1011,412	35,3
1011,786	35,12
1012,16	35,03
1012,535	34,21
1012,909	35,2
1013,282	35,24
1013,656	34,83
1014,03	34,63
1014,404	35,19
1014,777	34,64
1015,151	35,49
1015,524	35,05
1015,897	34,81
1016,271	35,54
1016,644	35,04
1017,017	34,58
1017,39	35,34
1017,763	34,75
1018,136	34,84
1018,508	35,09
1018,881	34,89
1019,254	35,14
1019,626	34,61
1019,999	35,41
1020,371	34,59
1020,743	35,18
1021,116	34,34
1021,488	36,12
1021,86	35,31
1022,232	35,85
1022,604	35,08
1022,975	35,85
1023,347	35,27
1023,719	35,47
1024,09	35,78
1024,462	34,98
1024,833	36,41
1025,204	35,52
1025,576	35,46
1025,947	35,83
1026,318	35,26
1026,689	35,94
1027,06	35,99
1027,431	36,12
1027,801	36,25
1028,172	35,41
1028,543	36,19
1028,913	36,16
1029,284	36,44
1029,654	35,51
1030,024	35,77
1030,394	35,42
1030,764	35,43
1031,135	36,1
1031,504	35,53
1031,874	36,2
1032,244	35,39
1032,614	35,77
1032,983	36,09
1033,353	35,76
1033,722	35,69
1034,092	36,75
1034,461	35,98
1034,83	36,44
1035,2	36,34
1035,569	36,35
1035,938	36,1
1036,307	36,29
1036,675	35,97
1037,044	36,62
1037,413	36,82
1037,781	36,74
1038,15	36,32
1038,518	36,93
1038,887	36,2
1039,255	36,36
1039,623	36,24
1039,991	36,44
1040,359	35,78
1040,727	36,39
1041,095	36,41
1041,463	36,26
1041,831	36,75
1042,198	36,44
1042,566	37,1
1042,933	37,09
1043,301	36,55
1043,668	36,25
1044,035	36,32
1044,402	36,96
1044,77	36,85
1045,137	36,94
1045,503	36,94
1045,87	36,43
1046,237	36,89
1046,604	36,99
1046,97	36,09
1047,337	37,55
1047,703	37,43
1048,07	37,17
1048,436	37,36
1048,802	37,42
1049,168	38,17
1049,534	36,91
1049,9	37,57
1050,266	37,55
1050,632	37,46
1050,998	37,82
1051,364	37,86
1051,729	38,28
1052,095	37,31
1052,46	38,07
1052,825	37,93
1053,191	37,51
1053,556	36,62
1053,921	36,82
1054,286	37,95
1054,651	37,91
1055,016	38,88
1055,381	37,6
1055,745	37,05
1056,11	38,78
1056,475	38,45
1056,839	38,23
1057,203	38,63
1057,568	38
1057,932	39,02
1058,296	37,71
1058,66	37,09
1059,024	38,56
1059,388	38,92
1059,752	38,15
1060,116	38,8
1060,48	39,73
1060,843	37,15
1061,207	39,16
1061,57	38,28
1061,934	38,03
1062,297	38,65
1062,66	39,25
1063,023	39,19
1063,386	40,17
1063,749	40
1064,112	39,58
1064,475	38,95
1064,838	39,45
1065,201	39,35
1065,563	40,67
1065,926	39,06
1066,288	38,36
1066,651	39,25
1067,013	38,92
1067,375	39,69
1067,737	39,81
1068,099	38,32
1068,461	39,91
1068,823	38,36
1069,185	38,53
1069,547	39,45
1069,909	38,06
1070,27	40,14
1070,632	38,77
1070,993	38,71
1071,355	39,6
1071,716	38,74
1072,077	39,46
1072,438	40,11
1072,799	39,12
1073,16	39,44
1073,521	39,57
1073,882	40,65
1074,243	41
1074,603	40,69
1074,964	39,59
1075,325	40,41
1075,685	38,74
1076,045	39,16
1076,406	39,2
1076,766	38,64
1077,126	39,65
1077,486	40,96
1077,846	39,79
1078,206	40,99
1078,566	41,35
1078,925	40,36
1079,285	41,83
1079,645	40,75
1080,004	39,5
1080,364	40,66
1080,723	40,99
1081,082	40,97
1081,442	40,03
1081,801	40,48
1082,16	40,97
1082,519	40,37
1082,878	41,48
1083,237	39,71
1083,595	41,02
1083,954	39,36
1084,313	39,47
1084,671	40,55
1085,03	40,54
1085,388	41,78
1085,746	42,36
1086,104	40,63
1086,463	42,06
1086,821	42,91
1087,179	42,18
1087,537	41,38
1087,894	41,92
1088,252	42,61
1088,61	41,58
1088,967	43,08
1089,325	44
1089,682	42,22
1090,04	43,61
1090,397	41,8
1090,754	43,71
1091,111	41,11
1091,469	44,45
1091,826	42,68
1092,182	43,77
1092,539	41,02
1092,896	43,33
1093,253	42,58
1093,609	42,67
1093,966	42,19
1094,322	42,4
1094,679	41,8
1095,035	42,74
1095,391	41,54
1095,748	44,76
1096,104	42,84
1096,46	44,9
1096,816	43,67
1097,171	45,09
1097,527	43,65
1097,883	44,5
1098,239	42,03
1098,594	42,06
1098,95	45,23
1099,305	45,42
1099,66	44,93
1100,016	43,37
1100,371	46,68
1100,726	45
1101,081	42,01
1101,436	46,42
1101,791	45,21
1102,146	45,54
1102,5	46,18
1102,855	45,03
1103,21	45,35
1103,564	44,72
1103,918	44,13
1104,273	45,3
1104,627	45,51
1104,981	44,53
1105,335	46,59
1105,69	49,8
1106,043	46,06
1106,397	43,21
1106,751	46,66
1107,105	46,88
1107,459	47,14
1107,812	49,34
1108,166	48,19
1108,519	45,65
1108,873	47,63
1109,226	51,91
1109,579	49,85
1109,932	46,34
1110,285	48,62
1110,638	49,49
1110,991	48,02
1111,344	42,9
1111,697	48,63
1112,05	47,19
1112,402	52,26
1112,755	50,46
1113,107	52,52
1113,46	51,11
1113,812	52,52
1114,164	55,97
1114,517	52,82
1114,869	146,3
1115,221	158,77
1115,573	143,18
1115,924	168,87
