Data from F5__Relative__8__00114.txt Node

Date: Wed Jan 31 18:35:44 CET 2024
User: diatiterra
Spectrometer: HDX00911
Trigger mode: 0
Integration Time (sec): 6,000000E-3
Scans to average: 2
Nonlinearity correction enabled: false
Boxcar width: 0
Storing dark spectrum: false
XAxis mode: Wavelengths
Number of Pixels in Spectrum: 2068
>>>>>Begin Spectral Data<<<<<
194,468	253,77
195,025	160,91
195,581	217,07
196,138	210,26
196,694	130,25
197,251	115,15
197,807	102,36
198,363	107,2
198,919	87,24
199,474	95,96
200,03	102,87
200,586	120,09
201,141	83,87
201,696	92,28
202,251	94,32
202,806	92,66
203,361	100,37
203,916	87,85
204,471	102,19
205,025	117,74
205,58	95,71
206,134	99,2
206,688	100,38
207,242	111,5
207,796	95,86
208,35	101,09
208,904	103,79
209,457	89,58
210,011	88,65
210,564	91,55
211,117	98,5
211,67	105,22
212,223	97,95
212,776	109,68
213,329	91,33
213,881	125,98
214,434	91,45
214,986	107,44
215,538	101,84
216,09	88,03
216,642	109,09
217,194	105,3
217,746	100
218,297	96,56
218,849	99,63
219,4	107,56
219,951	100
220,502	96,28
221,053	107,25
221,604	97,65
222,155	100,4
222,705	95,22
223,256	97,39
223,806	108,27
224,356	100,77
224,906	108,87
225,456	100
226,006	100
226,556	83,44
227,106	105,65
227,655	90,62
228,204	102,08
228,754	92,61
229,303	96,07
229,852	90,65
230,401	95,52
230,949	95,68
231,498	84,86
232,047	87,34
232,595	100,69
233,143	103,54
233,691	94,96
234,239	91,79
234,787	89,2
235,335	98,51
235,883	94,76
236,43	95,45
236,978	100,77
237,525	93,8
238,072	89,01
238,619	104,17
239,166	89,01
239,713	92,34
240,26	89,64
240,806	97,57
241,353	101,59
241,899	92,66
242,445	100,73
242,991	96,56
243,537	87,5
244,083	101,53
244,629	95
245,174	105,31
245,72	91,85
246,265	90,87
246,81	107,6
247,355	101,98
247,9	92,16
248,445	101,98
248,99	94,7
249,534	110
250,079	98,12
250,623	87,41
251,168	102,07
251,712	96,09
252,256	99,59
252,8	100,38
253,343	93,93
253,887	95,97
254,43	101,15
254,974	101,53
255,517	92,12
256,06	111,15
256,603	88,89
257,146	99,61
257,689	103,15
258,232	109,75
258,774	102,84
259,317	103,81
259,859	106,42
260,401	109,69
260,943	89,01
261,485	102,84
262,027	97,2
262,569	102,61
263,11	95,38
263,652	111,02
264,193	97,11
264,734	100,73
265,275	103,28
265,816	101,53
266,357	100,39
266,898	98,85
267,438	108,66
267,979	95,68
268,519	92,91
269,059	121,96
269,6	107,89
270,14	110,08
270,68	103,62
271,219	115,25
271,759	90,98
272,298	98,87
272,838	101,92
273,377	96,03
273,916	95,68
274,455	97,81
274,994	99,6
275,533	101,09
276,072	103,25
276,61	93,84
277,149	105,42
277,687	104,51
278,225	93,67
278,763	109,21
279,301	110
279,839	113,71
280,377	106,15
280,914	96,15
281,452	104,27
281,989	107,85
282,526	96,46
283,064	112,61
283,601	88,51
284,137	101,65
284,674	103,75
285,211	114,47
285,747	96,59
286,284	118,47
286,82	101,65
287,356	92,11
287,892	110,85
288,428	97,11
288,964	123,53
289,5	113,64
290,035	96,8
290,571	96,64
291,106	110,98
291,641	116,96
292,176	107,81
292,711	108,54
293,246	98,46
293,781	105,79
294,315	90,49
294,85	112,5
295,384	98,77
295,918	97,43
296,453	95,9
296,987	106,2
297,52	106,2
298,054	96,95
298,588	109,17
299,121	98,88
299,655	101,46
300,188	100,42
300,721	103,66
301,254	100,81
301,787	102,73
302,32	107,72
302,853	107,6
303,385	102,14
303,918	109,3
304,45	103,46
304,982	91,49
305,514	99,61
306,046	92,98
306,578	96,51
307,11	97,29
307,641	101,29
308,173	107,02
308,704	96,69
309,236	93,98
309,767	101,77
310,298	99,6
310,829	108,26
311,359	108,47
311,89	105,04
312,421	104,95
312,951	104,47
313,481	88,97
314,012	93,66
314,542	113,14
315,072	98,09
315,601	105,6
316,131	98,03
316,661	102,08
317,19	101,48
317,72	107,44
318,249	111,51
318,778	104,69
319,307	100,78
319,836	111,95
320,365	104,35
320,893	106,61
321,422	113,82
321,95	101,5
322,479	106,11
323,007	121,36
323,535	99,64
324,063	104
324,591	107,2
325,118	108,76
325,646	108,82
326,173	105,42
326,701	109,76
327,228	111,64
327,755	101,5
328,282	93,89
328,809	113,14
329,336	101,18
329,862	104,41
330,389	98,05
330,915	102,76
331,441	101,15
331,968	113,51
332,494	98,11
333,02	105
333,545	90,67
334,071	118,18
334,597	91,2
335,122	97,78
335,648	115,09
336,173	96,59
336,698	89,56
337,223	98,16
337,748	85,42
338,272	97,26
338,797	100,72
339,322	92,34
339,846	90,81
340,37	108,06
340,894	94,44
341,419	92,48
341,942	89,16
342,466	86,86
342,99	84,56
343,514	91,9
344,037	85,76
344,56	104,44
345,084	94,52
345,607	94,79
346,13	86,27
346,653	95
347,175	84,29
347,698	82,08
348,221	91,79
348,743	86,65
349,265	86,33
349,787	75,77
350,309	78,16
350,831	77,16
351,353	80,18
351,875	79,53
352,397	87,06
352,918	87,5
353,439	89,4
353,961	70,06
354,482	79,53
355,003	83,43
355,524	78,61
356,044	71,59
356,565	82,23
357,086	78,53
357,606	69,78
358,126	70,21
358,646	64,29
359,167	83,51
359,687	73,16
360,206	66,12
360,726	65,17
361,246	72,07
361,765	71,47
362,285	62,75
362,804	69,47
363,323	61,22
363,842	72,25
364,361	65,42
364,88	63,79
365,398	61,35
365,917	60,85
366,435	70,83
366,954	62,28
367,472	60,61
367,99	64,93
368,508	64,98
369,026	63,86
369,544	64,25
370,061	59,66
370,579	61,48
371,096	67,43
371,613	59,05
372,131	54,33
372,648	54,72
373,165	52,15
373,681	55,06
374,198	64,26
374,715	53,57
375,231	58,14
375,747	53,45
376,264	51,36
376,78	55,04
377,296	55,2
377,812	50
378,327	49,5
378,843	54,61
379,359	52,48
379,874	52,42
380,389	46,21
380,905	46,57
381,42	45,74
381,935	47,87
382,449	45,72
382,964	45
383,479	41,67
383,993	41,14
384,508	41,6
385,022	39,38
385,536	44,08
386,05	42,52
386,564	44,53
387,078	41,15
387,592	38,81
388,105	41,61
388,619	35,71
389,132	35,51
389,645	39,2
390,158	34,76
390,671	36,56
391,184	33,1
391,697	35,77
392,21	30,78
392,722	34,23
393,235	33,11
393,747	32,78
394,259	34,36
394,771	32,18
395,283	32,97
395,795	32,18
396,307	33,74
396,818	31,4
397,33	26,45
397,841	30,27
398,353	27,94
398,864	28,61
399,375	27,88
399,886	28,23
400,397	27,54
400,907	25,96
401,418	24,51
401,928	24,09
402,439	25,52
402,949	22,44
403,459	23,66
403,969	23,6
404,479	21,64
404,989	21,75
405,498	22,29
406,008	20,21
406,517	21,27
407,027	18,76
407,536	18,27
408,045	17,78
408,554	16,91
409,063	16,62
409,572	16,38
410,08	17,24
410,589	14,42
411,097	15,46
411,606	14,42
412,114	14,23
412,622	13,09
413,13	12,74
413,638	12,67
414,145	13,12
414,653	12,22
415,16	11,3
415,668	11,24
416,175	10,83
416,682	10,87
417,189	10,08
417,696	10,75
418,203	10,42
418,71	11,08
419,216	9,47
419,723	9,69
420,229	9,99
420,735	9,59
421,242	10,14
421,748	9,84
422,254	8,88
422,759	9,01
423,265	9,5
423,771	8,78
424,276	8,62
424,781	8,44
425,287	8,72
425,792	8,35
426,297	8,76
426,802	7,81
427,306	8,15
427,811	7,93
428,316	8,25
428,82	8,21
429,324	7,93
429,829	7,85
430,333	7,63
430,837	7,67
431,34	7,63
431,844	7,5
432,348	7
432,851	7,77
433,355	6,82
433,858	7,69
434,361	6,98
434,864	6,97
435,367	7,07
435,87	7,84
436,373	7,57
436,876	7,21
437,378	7,24
437,88	7
438,383	6,87
438,885	6,78
439,387	7,04
439,889	7,04
440,391	6,86
440,892	6,79
441,394	6,8
441,896	6,52
442,397	6,91
442,898	6,5
443,399	7,07
443,9	6,67
444,401	6,73
444,902	6,68
445,403	6,9
445,903	6,95
446,404	7
446,904	6,83
447,405	6,42
447,905	6,68
448,405	6,73
448,905	6,75
449,404	6,75
449,904	6,53
450,404	6,89
450,903	6,94
451,403	6,97
451,902	6,61
452,401	6,61
452,9	6,52
453,399	6,49
453,898	6,6
454,396	6,59
454,895	6,37
455,393	6,72
455,892	6,37
456,39	6,56
456,888	6,55
457,386	6,62
457,884	6,29
458,382	6,88
458,879	6,77
459,377	6,94
459,874	6,41
460,372	6,67
460,869	6,48
461,366	6,6
461,863	6,49
462,36	6,76
462,857	6,59
463,353	6,65
463,85	6,44
464,346	6,23
464,843	6,86
465,339	6,43
465,835	6,72
466,331	6,24
466,827	6,37
467,323	6,56
467,818	6,26
468,314	6,61
468,809	6,43
469,305	5,99
469,8	6,46
470,295	6,33
470,79	6,23
471,285	6,37
471,78	6,47
472,274	6,08
472,769	6,11
473,263	6,2
473,758	6,29
474,252	6,42
474,746	6,24
475,24	6,47
475,734	6,15
476,228	6,02
476,721	6,1
477,215	5,77
477,708	6,36
478,202	6,32
478,695	6,38
479,188	6,43
479,681	6,17
480,174	6,06
480,667	6,21
481,159	6,25
481,652	6,43
482,144	6,22
482,637	6,18
483,129	6,1
483,621	6,29
484,113	6,39
484,605	6,33
485,097	6,46
485,588	6,08
486,08	6,2
486,571	6,36
487,063	6,17
487,554	6,33
488,045	6,22
488,536	6,34
489,027	6,32
489,518	6,33
490,008	6,25
490,499	6,42
490,989	6,29
491,48	6,51
491,97	6,48
492,46	6,26
492,95	6,68
493,44	6,67
493,93	6,54
494,419	6,81
494,909	6,49
495,398	6,65
495,888	6,56
496,377	6,7
496,866	6,81
497,355	6,78
497,844	6,67
498,333	7,02
498,821	6,86
499,31	6,95
499,798	7,14
500,287	7,14
500,775	7,32
501,263	7,11
501,751	7,37
502,239	7,37
502,727	7,34
503,215	7,43
503,702	7,54
504,19	7,38
504,677	7,76
505,164	8,16
505,651	8,07
506,139	8,16
506,625	8,25
507,112	8,19
507,599	8,51
508,086	8,78
508,572	8,69
509,058	8,95
509,545	8,78
510,031	9,21
510,517	9,32
511,003	9,48
511,489	9,68
511,974	9,95
512,46	9,97
512,946	10,07
513,431	10,41
513,916	10,81
514,401	11,03
514,887	11,06
515,371	11,27
515,856	11,45
516,341	11,58
516,826	12,05
517,31	12
517,795	12,49
518,279	12,76
518,763	12,88
519,247	12,84
519,731	13,46
520,215	13,51
520,699	13,7
521,182	14,14
521,666	14,39
522,149	14,56
522,633	15,06
523,116	15,33
523,599	15,78
524,082	15,63
524,565	15,75
525,048	16,07
525,53	16,44
526,013	16,44
526,495	16,99
526,978	17,13
527,46	17,43
527,942	17,08
528,424	17,79
528,906	17,82
529,388	18,54
529,87	18,41
530,351	17,8
530,833	18,54
531,314	18,68
531,795	18,65
532,277	18,89
532,758	18,77
533,238	18,82
533,719	19,01
534,2	18,8
534,681	19,45
535,161	19,11
535,642	19,98
536,122	19,43
536,602	19,34
537,082	19,69
537,562	19,98
538,042	19,74
538,522	19,77
539,001	19,98
539,481	20,02
539,96	20,07
540,44	20,19
540,919	20,21
541,398	20,3
541,877	20,11
542,356	20,58
542,835	20
543,313	20,17
543,792	20,36
544,27	20,57
544,749	20,66
545,227	20,43
545,705	20,74
546,183	20,83
546,661	20,81
547,139	20,75
547,616	20,88
548,094	20,55
548,571	20,38
549,049	20,7
549,526	20,79
550,003	21,08
550,48	20,79
550,957	20,8
551,434	20,64
551,911	20,74
552,387	20,62
552,864	21,12
553,34	21,16
553,817	20,53
554,293	20,81
554,769	20,95
555,245	20,77
555,721	21,1
556,197	21,21
556,672	20,9
557,148	20,88
557,623	20,85
558,099	20,67
558,574	20,8
559,049	20,57
559,524	20,56
559,999	20,42
560,474	20,22
560,948	20,26
561,423	20,66
561,897	20,45
562,372	20,22
562,846	20,2
563,32	20,03
563,794	20,26
564,268	20,11
564,742	19,56
565,216	19,93
565,69	19,44
566,163	19,41
566,636	19,33
567,11	19,09
567,583	18,88
568,056	18,95
568,529	18,82
569,002	18,61
569,475	18,64
569,947	18,25
570,42	18,49
570,892	18,28
571,365	18,07
571,837	18,02
572,309	17,76
572,781	17,68
573,253	17,48
573,725	17,34
574,197	17,17
574,668	16,97
575,14	16,84
575,611	16,94
576,082	16,31
576,554	16,5
577,025	16,26
577,496	16,12
577,967	16,07
578,437	16,31
578,908	15,83
579,379	15,86
579,849	15,54
580,319	15,64
580,79	15,23
581,26	15,39
581,73	15,08
582,2	15,18
582,669	15,12
583,139	14,94
583,609	14,81
584,078	15,03
584,548	14,63
585,017	14,62
585,486	14,28
585,955	14,6
586,424	14,15
586,893	14,24
587,362	14,28
587,83	14,09
588,299	14,08
588,767	14,13
589,236	14,21
589,704	13,86
590,172	14,03
590,64	13,82
591,108	13,69
591,576	13,57
592,043	13,66
592,511	13,85
592,978	13,77
593,446	13,56
593,913	13,31
594,38	13,5
594,847	13,17
595,314	13,56
595,781	13,14
596,248	13,28
596,715	13,04
597,181	13,19
597,647	13,19
598,114	13,16
598,58	13,1
599,046	13,21
599,512	13,16
599,978	13,13
600,444	13,12
600,91	13,02
601,375	13,06
601,841	13,09
602,306	13,16
602,771	12,75
603,236	12,83
603,702	13,01
604,167	12,66
604,631	12,81
605,096	12,52
605,561	12,6
606,025	12,76
606,49	12,61
606,954	12,5
607,418	12,25
607,882	12,32
608,347	12,1
608,81	12,06
609,274	12,06
609,738	11,86
610,202	12,07
610,665	11,81
611,128	11,71
611,592	11,79
612,055	11,69
612,518	11,79
612,981	11,83
613,444	11,46
613,907	11,38
614,369	11,32
614,832	11,25
615,294	11,21
615,757	11,1
616,219	11,28
616,681	10,93
617,143	11,01
617,605	10,81
618,067	10,87
618,529	10,83
618,99	10,67
619,452	10,66
619,913	10,58
620,375	10,57
620,836	10,47
621,297	10,38
621,758	10,38
622,219	10,44
622,68	10,33
623,14	10,2
623,601	10,43
624,061	10,41
624,522	10,2
624,982	10,17
625,442	10,28
625,902	10,23
626,362	10,16
626,822	10,09
627,282	10,03
627,742	10,18
628,201	10,14
628,661	10,27
629,12	10,24
629,579	9,91
630,038	10,16
630,497	10,18
630,956	10,05
631,415	9,86
631,874	9,92
632,332	9,8
632,791	9,93
633,249	9,8
633,708	9,82
634,166	9,64
634,624	9,66
635,082	9,78
635,54	9,83
635,998	9,44
636,455	9,56
636,913	9,51
637,37	9,36
637,828	9,31
638,285	9,26
638,742	9,2
639,199	9,08
639,656	8,94
640,113	8,84
640,57	8,92
641,027	8,68
641,483	8,75
641,94	8,67
642,396	8,57
642,852	8,42
643,309	8,36
643,765	8,08
644,221	8,12
644,676	7,99
645,132	7,95
645,588	7,89
646,043	7,62
646,499	7,68
646,954	7,6
647,409	7,54
647,864	7,55
648,319	7,37
648,774	7,41
649,229	7,29
649,684	7,23
650,139	7,2
650,593	7,13
651,047	7,11
651,502	7,01
651,956	6,98
652,41	7,08
652,864	7
653,318	7,01
653,772	6,84
654,225	6,89
654,679	6,86
655,133	6,81
655,586	6,9
656,039	6,75
656,492	6,68
656,946	6,57
657,399	6,68
657,851	6,64
658,304	6,65
658,757	6,59
659,209	6,39
659,662	6,38
660,114	6,37
660,567	6,4
661,019	6,24
661,471	6,32
661,923	6,17
662,375	6,07
662,826	6,21
663,278	6,01
663,73	5,95
664,181	6,03
664,632	5,94
665,084	6
665,535	6,01
665,986	5,92
666,437	5,93
666,888	5,93
667,338	5,85
667,789	6,06
668,24	6,07
668,69	5,93
669,14	6,1
669,591	6,04
670,041	6,14
670,491	6,16
670,941	6,04
671,391	6,11
671,84	6,13
672,29	6,26
672,74	6,32
673,189	6,43
673,638	6,4
674,088	6,54
674,537	6,54
674,986	6,62
675,435	6,69
675,883	6,82
676,332	6,89
676,781	6,99
677,229	7,12
677,678	7,19
678,126	7,15
678,574	7,24
679,022	7,53
679,47	7,45
679,918	7,76
680,366	7,75
680,814	7,77
681,261	7,89
681,709	7,95
682,156	8,12
682,604	8,29
683,051	8,25
683,498	8,39
683,945	8,45
684,392	8,65
684,839	8,6
685,286	8,78
685,732	8,71
686,179	8,9
686,625	9,03
687,071	9,15
687,518	9,2
687,964	9,36
688,41	9,38
688,856	9,56
689,301	9,7
689,747	9,92
690,193	10,19
690,638	10,32
691,084	10,52
691,529	10,86
691,974	11,08
692,419	11,66
692,864	11,94
693,309	12,03
693,754	12,42
694,199	12,88
694,643	13,04
695,088	13,46
695,532	13,91
695,977	14,38
696,421	14,68
696,865	15,15
697,309	15,61
697,753	16,03
698,197	16,59
698,64	17,1
699,084	17,53
699,527	17,92
699,971	18,32
700,414	18,75
700,857	19,15
701,3	19,46
701,743	19,99
702,186	20,6
702,629	21,07
703,072	21,44
703,515	21,69
703,957	22,18
704,399	22,35
704,842	22,98
705,284	23,23
705,726	23,73
706,168	23,91
706,61	24,44
707,052	24,72
707,494	25,17
707,935	25,23
708,377	25,84
708,818	26,16
709,26	26,42
709,701	26,67
710,142	27,1
710,583	27,19
711,024	27,68
711,465	28,07
711,905	28,26
712,346	28,63
712,787	28,97
713,227	29,11
713,667	29,46
714,108	29,82
714,548	29,94
714,988	30,28
715,428	30,76
715,868	31,13
716,307	31
716,747	31,52
717,186	31,69
717,626	31,74
718,065	32,24
718,504	32,49
718,944	32,64
719,383	32,61
719,822	33,25
720,261	33,26
720,699	33,5
721,138	33,54
721,576	33,79
722,015	34,16
722,453	34,17
722,892	34,38
723,33	34,55
723,768	35,33
724,206	35,26
724,644	34,92
725,081	35,27
725,519	35,47
725,957	35,68
726,394	35,62
726,832	35,76
727,269	35,87
727,706	36,29
728,143	35,96
728,58	36,44
729,017	36,14
729,454	36,78
729,89	36,69
730,327	36,63
730,764	36,85
731,2	37,02
731,636	36,98
732,072	37,29
732,509	37,24
732,945	37,17
733,38	37,34
733,816	37,56
734,252	37,4
734,688	37,6
735,123	37,64
735,559	37,7
735,994	37,71
736,429	38,03
736,864	38,08
737,299	37,92
737,734	38,1
738,169	38,09
738,604	37,97
739,038	37,59
739,473	38,11
739,907	38,11
740,342	37,98
740,776	38,12
741,21	37,98
741,644	38,25
742,078	37,89
742,512	38,09
742,946	38,28
743,379	38,08
743,813	38,14
744,246	38,19
744,68	37,98
745,113	37,84
745,546	38,02
745,979	38,05
746,412	37,97
746,845	38,01
747,278	38,04
747,711	37,81
748,143	37,93
748,576	37,93
749,008	38,07
749,441	37,91
749,873	37,52
750,305	37,93
750,737	37,77
751,169	37,84
751,601	37,72
752,032	37,69
752,464	37,61
752,896	37,46
753,327	37,42
753,758	37,65
754,19	37,46
754,621	37,29
755,052	37,36
755,483	37,57
755,914	37,61
756,344	37,51
756,775	37,44
757,206	37,32
757,636	37,38
758,066	37,11
758,497	37,35
758,927	37,69
759,357	37,31
759,787	37,19
760,217	37,25
760,647	37,16
761,076	37,18
761,506	37
761,935	36,98
762,365	37,4
762,794	36,72
763,223	37,13
763,653	37,09
764,082	36,59
764,51	36,9
764,939	36,72
765,368	36,97
765,797	36,94
766,225	36,49
766,654	36,7
767,082	36,43
767,51	36,78
767,938	36,73
768,367	36,58
768,795	36,43
769,222	36,77
769,65	36,64
770,078	36,52
770,505	36,69
770,933	36,62
771,36	36,67
771,788	36,55
772,215	36,43
772,642	36,63
773,069	36,55
773,496	36,31
773,923	36,27
774,349	36,1
774,776	36,58
775,203	36,29
775,629	36,25
776,055	36,19
776,482	36,09
776,908	36,03
777,334	36,28
777,76	36,12
778,186	36,08
778,611	36,36
779,037	36,08
779,463	36,31
779,888	36,22
780,314	36,1
780,739	36,14
781,164	36,2
781,589	36,03
782,014	36,1
782,439	36,01
782,864	36,26
783,289	36,08
783,713	36,11
784,138	36,09
784,562	35,9
784,987	35,83
785,411	35,99
785,835	35,95
786,259	35,87
786,683	36,24
787,107	35,91
787,531	35,73
787,954	36,1
788,378	35,99
788,802	36,03
789,225	35,72
789,648	35,94
790,071	35,57
790,495	36,15
790,918	36,11
791,34	35,69
791,763	35,95
792,186	35,79
792,609	35,79
793,031	35,98
793,454	35,64
793,876	36,09
794,298	35,97
794,721	35,76
795,143	35,97
795,565	35,64
795,986	35,5
796,408	35,58
796,83	35,72
797,252	35,9
797,673	35,88
798,094	36,2
798,516	35,88
798,937	36,14
799,358	35,5
799,779	35,92
800,2	35,94
800,621	35,96
801,042	35,69
801,462	35,76
801,883	35,46
802,303	35,35
802,724	35,9
803,144	35,62
803,564	35,78
803,984	36,06
804,404	35,86
804,824	36,11
805,244	35,68
805,664	36,01
806,084	36,15
806,503	35,76
806,923	35,51
807,342	35,87
807,761	35,36
808,18	35,56
808,599	35,52
809,018	35,65
809,437	35,81
809,856	35,51
810,275	35,65
810,693	35,71
811,112	36,02
811,53	35,99
811,949	35,75
812,367	35,86
812,785	35,59
813,203	35,62
813,621	35,58
814,039	35,53
814,457	35,63
814,874	35,61
815,292	35,45
815,709	35,56
816,127	35,63
816,544	35,47
816,961	35,6
817,378	35,73
817,795	35,73
818,212	35,44
818,629	35,98
819,046	35,76
819,462	35,7
819,879	35,58
820,295	35,25
820,712	35,57
821,128	35,25
821,544	35,58
821,96	35,59
822,376	35,6
822,792	35,61
823,208	35,59
823,624	35,55
824,039	35,53
824,455	35,65
824,87	35,38
825,286	35,82
825,701	35,17
826,116	35,2
826,531	35,5
826,946	35,33
827,361	35,2
827,776	35,57
828,19	35,22
828,605	35,45
829,02	35,42
829,434	35,31
829,848	35,41
830,263	35,57
830,677	35,51
831,091	35,21
831,505	35,43
831,919	35,47
832,332	35,51
832,746	35,68
833,16	35,12
833,573	35,2
833,987	35,3
834,4	35,24
834,813	35,1
835,226	34,96
835,639	35,43
836,052	35,26
836,465	35,15
836,878	35,38
837,29	35,36
837,703	35,11
838,116	35,45
838,528	35,46
838,94	35,63
839,352	35,26
839,765	35,53
840,177	35,42
840,589	35,24
841	34,83
841,412	35,41
841,824	35,3
842,235	35,1
842,647	35,3
843,058	35,27
843,47	35,46
843,881	35,46
844,292	35,06
844,703	35,53
845,114	35,01
845,525	35,54
845,935	35,51
846,346	35,47
846,757	35,4
847,167	35,24
847,577	35,19
847,988	35,26
848,398	35,2
848,808	35,06
849,218	35,37
849,628	34,99
850,038	35,45
850,448	35,19
850,857	35,41
851,267	35,25
851,676	35,21
852,086	35,42
852,495	35,38
852,904	35,17
853,313	34,82
853,722	34,96
854,131	35,39
854,54	35,02
854,949	35,19
855,357	35,24
855,766	35,19
856,174	35,18
856,583	35,05
856,991	34,95
857,399	35,36
857,807	34,98
858,215	35,28
858,623	35,56
859,031	35,25
859,439	35,34
859,846	35,22
860,254	35,31
860,661	35,48
861,069	35,34
861,476	35,04
861,883	35,1
862,29	35,19
862,697	35,26
863,104	35,13
863,511	35,1
863,918	35,11
864,325	35,25
864,731	35,36
865,138	35,28
865,544	35,06
865,95	35,41
866,357	35,22
866,763	35,4
867,169	35,21
867,575	35,2
867,98	35,18
868,386	35,19
868,792	35,17
869,197	35,12
869,603	35,43
870,008	35,26
870,414	35,58
870,819	34,89
871,224	35,13
871,629	34,88
872,034	34,85
872,439	34,98
872,844	35,16
873,248	35,19
873,653	35,32
874,057	35,14
874,462	35,31
874,866	35,41
875,27	35,22
875,674	35,16
876,078	35,14
876,482	35,29
876,886	35,12
877,29	35,07
877,694	35,36
878,097	35
878,501	34,88
878,904	34,66
879,308	34,88
879,711	34,9
880,114	35,21
880,517	35,1
880,92	35,19
881,323	35,26
881,726	35,38
882,128	35,23
882,531	35,13
882,934	35,16
883,336	35,43
883,738	35,17
884,141	35,03
884,543	35,04
884,945	34,99
885,347	35,14
885,749	35,03
886,151	35,32
886,552	35,04
886,954	34,84
887,355	35,01
887,757	34,81
888,158	35,07
888,56	35,11
888,961	35,03
889,362	35,01
889,763	35,04
890,164	35,44
890,565	35,03
890,965	34,99
891,366	35,21
891,767	35,39
892,167	35,06
892,567	35,25
892,968	34,98
893,368	34,93
893,768	35,24
894,168	34,95
894,568	34,74
894,968	35,13
895,368	34,9
895,767	35,08
896,167	35,09
896,566	34,9
896,966	34,94
897,365	34,94
897,764	35,08
898,164	34,97
898,563	35,08
898,962	35,03
899,361	35,67
899,759	35,23
900,158	34,98
900,557	35,2
900,955	34,75
901,354	34,95
901,752	34,89
902,15	34,64
902,548	34,92
902,947	35,11
903,345	35,21
903,742	35,05
904,14	35,25
904,538	34,88
904,936	35,07
905,333	34,89
905,731	35,12
906,128	34,75
906,525	35,39
906,923	35,2
907,32	34,84
907,717	35,03
908,114	35,09
908,511	35,04
908,907	35,32
909,304	34,75
909,701	35,22
910,097	35,13
910,494	34,88
910,89	35,14
911,286	34,75
911,682	35,23
912,078	35,48
912,474	35,35
912,87	35,36
913,266	35,05
913,662	34,94
914,058	34,95
914,453	35,1
914,849	35,25
915,244	34,96
915,639	35,32
916,034	34,89
916,43	35,12
916,825	35,29
917,22	35,47
917,614	35,14
918,009	35,32
918,404	34,91
918,798	34,94
919,193	34,94
919,587	34,87
919,982	34,98
920,376	34,88
920,77	35,19
921,164	35,07
921,558	35,03
921,952	34,99
922,346	34,93
922,74	35,37
923,133	35,32
923,527	35,25
923,92	35,09
924,314	34,84
924,707	34,75
925,1	35,04
925,493	35,47
925,886	34,92
926,279	34,95
926,672	34,93
927,065	34,82
927,457	35,1
927,85	34,31
928,243	35,04
928,635	34,74
929,027	35,15
929,42	35,18
929,812	34,97
930,204	35,51
930,596	35,26
930,988	34,89
931,379	34,77
931,771	35,23
932,163	35,01
932,554	35,24
932,946	34,6
933,337	35,02
933,729	34,93
934,12	34,69
934,511	35,45
934,902	34,8
935,293	34,32
935,684	35,03
936,075	35,53
936,465	35,31
936,856	34,73
937,246	35,48
937,637	34,96
938,027	35,17
938,417	35,04
938,808	35,34
939,198	35,09
939,588	35,28
939,978	35,35
940,368	34,83
940,757	35,64
941,147	35,96
941,537	35,24
941,926	36,31
942,315	36,15
942,705	35,6
943,094	35,42
943,483	35,09
943,872	35,1
944,261	35,25
944,65	35,45
945,039	35,72
945,428	35,52
945,816	35,55
946,205	35,26
946,593	35,59
946,982	35,24
947,37	35,81
947,758	36,01
948,146	35,47
948,534	35,39
948,922	34,81
949,31	34,78
949,698	35,94
950,086	35,39
950,473	34,87
950,861	35,51
951,248	34,85
951,636	34,55
952,023	34,94
952,41	35,2
952,797	34,48
953,184	35,65
953,571	35,32
953,958	34,77
954,345	34,51
954,731	35,29
955,118	34,32
955,505	34,9
955,891	34,63
956,277	35,07
956,664	34,74
957,05	34,15
957,436	34,14
957,822	34,52
958,208	34,37
958,594	34,2
958,979	34,37
959,365	34,55
959,751	34,68
960,136	34,27
960,522	34,55
960,907	34,64
961,292	34,39
961,677	34,8
962,062	34,77
962,447	34,47
962,832	35,17
963,217	34,4
963,602	34,65
963,986	34,93
964,371	34,29
964,756	34,42
965,14	34,14
965,524	34,62
965,908	34,43
966,293	34,32
966,677	33,93
967,061	34,63
967,445	34,44
967,828	34,43
968,212	34,13
968,596	34,69
968,979	34,49
969,363	34,94
969,746	34,3
970,129	34,69
970,513	34,32
970,896	34,61
971,279	34,56
971,662	34,67
972,045	34,07
972,428	35,1
972,81	34,74
973,193	34,88
973,575	34,56
973,958	33,84
974,34	34,22
974,723	34,23
975,105	34,38
975,487	34,45
975,869	34,65
976,251	34,39
976,633	34,4
977,015	34,95
977,396	34,64
977,778	34,1
978,16	34,81
978,541	35,04
978,922	34,69
979,304	34,57
979,685	35,03
980,066	34,44
980,447	34,64
980,828	34,59
981,209	34,65
981,59	34,56
981,97	34,43
982,351	34,39
982,732	35,12
983,112	34,36
983,493	34,96
983,873	34,44
984,253	34,71
984,633	34,71
985,013	34,39
985,393	34,72
985,773	34,94
986,153	35,05
986,533	34,56
986,912	34,74
987,292	34,72
987,671	34,81
988,051	35,19
988,43	34,57
988,809	34,67
989,188	34,67
989,567	34,79
989,946	34,83
990,325	35,16
990,704	34,59
991,083	34,65
991,461	34,8
991,84	34,88
992,218	34,81
992,597	35,22
992,975	35,32
993,353	34,72
993,732	34,41
994,11	35,46
994,488	35,13
994,866	34,74
995,243	34,74
995,621	35,42
995,999	35,22
996,376	35,12
996,754	35,23
997,131	34,42
997,509	34,7
997,886	34,8
998,263	35,72
998,64	34,56
999,017	35,03
999,394	34,74
999,771	35,61
1000,148	35,47
1000,524	34,92
1000,901	34,9
1001,277	35,35
1001,654	35,36
1002,03	35,58
1002,406	35,01
1002,783	35,75
1003,159	34,93
1003,535	35,03
1003,911	35,21
1004,286	35,48
1004,662	36,01
1005,038	35,44
1005,414	35,9
1005,789	34,9
1006,164	35,07
1006,54	35,27
1006,915	35,18
1007,29	34,95
1007,665	35,25
1008,04	34,92
1008,415	35,39
1008,79	35,49
1009,165	35,03
1009,54	35,12
1009,914	35,87
1010,289	35,24
1010,663	35,43
1011,038	35,36
1011,412	36,03
1011,786	35,45
1012,16	35,8
1012,535	35,78
1012,909	36,22
1013,282	35,9
1013,656	35,16
1014,03	34,97
1014,404	35,74
1014,777	35,42
1015,151	35,81
1015,524	36,12
1015,897	35,48
1016,271	36,12
1016,644	35,69
1017,017	35,28
1017,39	35,49
1017,763	35,47
1018,136	35,88
1018,508	35,89
1018,881	35,73
1019,254	35,79
1019,626	35,5
1019,999	35,63
1020,371	35,89
1020,743	36,13
1021,116	36,07
1021,488	36,15
1021,86	37,19
1022,232	36,48
1022,604	36,13
1022,975	37,16
1023,347	36,28
1023,719	36,41
1024,09	36,37
1024,462	35,82
1024,833	37,04
1025,204	37,06
1025,576	36,01
1025,947	35,99
1026,318	36,27
1026,689	37,21
1027,06	37,18
1027,431	36,64
1027,801	37
1028,172	36,11
1028,543	36,77
1028,913	37,17
1029,284	36,62
1029,654	37,31
1030,024	36,44
1030,394	37,36
1030,764	36,56
1031,135	36,27
1031,504	36,8
1031,874	36,28
1032,244	35,99
1032,614	36,74
1032,983	36,7
1033,353	36,5
1033,722	37,11
1034,092	36,6
1034,461	36,43
1034,83	36,91
1035,2	37,3
1035,569	36,96
1035,938	37,18
1036,307	37,27
1036,675	36,74
1037,044	37,82
1037,413	37,21
1037,781	37,29
1038,15	38,23
1038,518	37,42
1038,887	37,43
1039,255	36,91
1039,623	36,91
1039,991	37,38
1040,359	36,81
1040,727	37,9
1041,095	38,01
1041,463	37,45
1041,831	37,77
1042,198	37,05
1042,566	38,04
1042,933	37,43
1043,301	37,09
1043,668	37,67
1044,035	37,44
1044,402	38,68
1044,77	37,32
1045,137	37,9
1045,503	38,18
1045,87	37,93
1046,237	38,12
1046,604	39,15
1046,97	37,4
1047,337	38,61
1047,703	38,07
1048,07	38,1
1048,436	38,19
1048,802	37,74
1049,168	38,48
1049,534	37,71
1049,9	38,96
1050,266	38,84
1050,632	38,36
1050,998	39,39
1051,364	38,72
1051,729	38,95
1052,095	39,37
1052,46	37,58
1052,825	38,58
1053,191	38,74
1053,556	38,24
1053,921	39,11
1054,286	39,24
1054,651	38,78
1055,016	39,41
1055,381	38,82
1055,745	37,99
1056,11	39,16
1056,475	40,14
1056,839	40,7
1057,203	39,05
1057,568	39,26
1057,932	40,33
1058,296	39,79
1058,66	39,64
1059,024	40,4
1059,388	41,38
1059,752	39,19
1060,116	39,98
1060,48	41,64
1060,843	39,66
1061,207	39,68
1061,57	39,92
1061,934	41,08
1062,297	40,36
1062,66	40,12
1063,023	39,83
1063,386	40,95
1063,749	41,07
1064,112	39,74
1064,475	40,98
1064,838	40,39
1065,201	40,79
1065,563	40,89
1065,926	40,39
1066,288	41,18
1066,651	40,63
1067,013	40,92
1067,375	39,84
1067,737	41,15
1068,099	40,64
1068,461	40,47
1068,823	39,62
1069,185	39,8
1069,547	40,09
1069,909	39,95
1070,27	41,67
1070,632	40,37
1070,993	41,48
1071,355	41,66
1071,716	40,96
1072,077	42,26
1072,438	42,9
1072,799	40,97
1073,16	41,44
1073,521	40,22
1073,882	42,05
1074,243	42,15
1074,603	42,72
1074,964	41,14
1075,325	41,88
1075,685	39,37
1076,045	41,13
1076,406	42,02
1076,766	41,17
1077,126	41,13
1077,486	43,2
1077,846	42,92
1078,206	42,94
1078,566	41,17
1078,925	41,99
1079,285	42,13
1079,645	42,68
1080,004	41,97
1080,364	42,14
1080,723	41,33
1081,082	43,57
1081,442	41,5
1081,801	42,74
1082,16	42,08
1082,519	42,34
1082,878	43,43
1083,237	41,87
1083,595	44,46
1083,954	42,85
1084,313	42,56
1084,671	42,16
1085,03	42,59
1085,388	41,99
1085,746	44,23
1086,104	43,09
1086,463	42,2
1086,821	43,48
1087,179	44,39
1087,537	42,71
1087,894	44,64
1088,252	44,64
1088,61	42,08
1088,967	43,36
1089,325	44,36
1089,682	44,71
1090,04	43,41
1090,397	44,09
1090,754	45,13
1091,111	42,79
1091,469	47,05
1091,826	44,53
1092,182	46,14
1092,539	43,88
1092,896	45,16
1093,253	45,24
1093,609	43,83
1093,966	43,31
1094,322	43,43
1094,679	44,92
1095,035	46,85
1095,391	44,19
1095,748	44,62
1096,104	43,41
1096,46	47,01
1096,816	44,68
1097,171	46,22
1097,527	45,25
1097,883	47,58
1098,239	45,11
1098,594	46,52
1098,95	45,91
1099,305	43,93
1099,66	47,09
1100,016	43,22
1100,371	45,11
1100,726	45,54
1101,081	45,13
1101,436	46,42
1101,791	49,54
1102,146	47,51
1102,5	46,94
1102,855	46,9
1103,21	45,99
1103,564	48,74
1103,918	46,79
1104,273	48,31
1104,627	47,66
1104,981	44,47
1105,335	46,27
1105,69	50,74
1106,043	47,81
1106,397	47,58
1106,751	49,73
1107,105	48,85
1107,459	49,65
1107,812	50,15
1108,166	50,07
1108,519	48,33
1108,873	50,44
1109,226	51,75
1109,579	49,19
1109,932	50,31
1110,285	52,51
1110,638	52,62
1110,991	51,24
1111,344	47,21
1111,697	53,75
1112,05	49,74
1112,402	56,59
1112,755	52,02
1113,107	56,59
1113,46	55,65
1113,812	55,57
1114,164	60,7
1114,517	53,58
1114,869	166,67
1115,221	173,68
1115,573	149,24
1115,924	175,47
