Data from G2__Relative__2__00117.txt Node

Date: Wed Jan 31 18:36:48 CET 2024
User: diatiterra
Spectrometer: HDX00911
Trigger mode: 0
Integration Time (sec): 6,000000E-3
Scans to average: 2
Nonlinearity correction enabled: false
Boxcar width: 0
Storing dark spectrum: false
XAxis mode: Wavelengths
Number of Pixels in Spectrum: 2068
>>>>>Begin Spectral Data<<<<<
194,468	250
195,025	170
195,581	242,68
196,138	238,46
196,694	151,85
197,251	134,34
197,807	110,63
198,363	115,2
198,919	101,72
199,474	104,41
200,03	112,3
200,586	120,54
201,141	91,29
201,696	96,64
202,251	104,92
202,806	95,1
203,361	108,89
203,916	99,31
204,471	111,68
205,025	122,98
205,58	104,64
206,134	114,4
206,688	102,31
207,242	120,8
207,796	106,39
208,35	110,51
208,904	103,79
209,457	95,14
210,011	100,35
210,564	108,45
211,117	106,77
211,67	115,67
212,223	103,77
212,776	116,53
213,329	103,33
213,881	132,84
214,434	101,32
214,986	121,07
215,538	118,01
216,09	100,7
216,642	121,9
217,194	112,5
217,746	104,51
218,297	107,63
218,849	113,6
219,4	119,75
219,951	109,68
220,502	107,43
221,053	122,52
221,604	105,7
222,155	115,48
222,705	109,93
223,256	112,31
223,806	111,81
224,356	112,31
224,906	119,35
225,456	118,6
226,006	112,7
226,556	90,91
227,106	114,92
227,655	95,49
228,204	109,17
228,754	101,76
229,303	100
229,852	103,6
230,401	107,09
230,949	98,92
231,498	97,18
232,047	90,58
232,595	106,9
233,143	112,99
233,691	107,36
234,239	93,93
234,787	106,4
235,335	102,24
235,883	97,55
236,43	107,58
236,978	115,38
237,525	103,28
238,072	98,94
238,619	104,17
239,166	101,06
239,713	103,65
240,26	103,21
240,806	109,72
241,353	101,98
241,899	98,6
242,445	107,3
242,991	110,69
243,537	107,58
244,083	112,98
244,629	101,92
245,174	113,72
245,72	104,07
246,265	101,98
246,81	109,2
247,355	112,3
247,9	98,88
248,445	114,68
248,99	105,3
249,534	117,39
250,079	101,13
250,623	105,19
251,168	119,01
251,712	104,69
252,256	114,75
252,8	106,15
253,343	97,86
253,887	108,06
254,43	101,91
254,974	107,25
255,517	107,53
256,06	115,38
256,603	101,48
257,146	116,28
257,689	113,78
258,232	129,24
258,774	108,16
259,317	121,61
259,859	118,35
260,401	116,28
260,943	103,19
261,485	109,57
262,027	113,6
262,569	112,31
263,11	103,85
263,652	124,02
264,193	114,05
264,734	106,57
265,275	116,8
265,816	100,76
266,357	118,99
266,898	109,62
267,438	118,11
267,979	111,51
268,519	104,85
269,059	140,19
269,6	112,41
270,14	124,6
270,68	106,16
271,219	117,8
271,759	105,64
272,298	103,76
272,838	114,23
273,377	115,08
273,916	106,83
274,455	103,65
274,994	109,2
275,533	101,09
276,072	110,57
276,61	98,55
277,149	113,33
277,687	110,53
278,225	97,33
278,763	122,37
279,301	116,25
279,839	118,15
280,377	115,16
280,914	100,7
281,452	124,79
281,989	114,88
282,526	113,39
283,064	123,95
283,601	97,64
284,137	116,12
284,674	117,08
285,211	121,49
285,747	103,41
286,284	129,73
286,82	118,18
287,356	98,68
287,892	115,5
288,428	118,6
288,964	127,73
289,5	118,18
290,035	115,6
290,571	113,87
291,106	128,05
291,641	130,8
292,176	110,94
292,711	122,36
293,246	113,46
293,781	118,18
294,315	102,46
294,85	128,24
295,384	114,34
295,918	113,24
296,453	96,64
296,987	111,57
297,52	116,53
298,054	108,4
298,588	117,92
299,121	104,1
299,655	110,22
300,188	120,42
300,721	120,73
301,254	118,55
301,787	110,94
302,32	116,26
302,853	110,4
303,385	108,93
303,918	112,79
304,45	114,23
304,982	100,71
305,514	115,5
306,046	107,02
306,578	115,12
307,11	110,47
307,641	119,83
308,173	117,77
308,704	104,13
309,236	97,74
309,767	108,51
310,298	106,05
310,829	122,61
311,359	116,53
311,89	118,07
312,421	115,77
312,951	120,33
313,481	100
314,012	105,6
314,542	118,22
315,072	110,69
315,601	115,2
316,131	115,75
316,661	105,42
317,19	108,89
317,72	115,7
318,249	124,6
318,778	117,97
319,307	112,89
319,836	127,43
320,365	117,83
320,893	110,33
321,422	126,83
321,95	120,68
322,479	117,94
323,007	123,18
323,535	107,86
324,063	116,8
324,591	113,6
325,118	120,44
325,646	123,53
326,173	120,42
326,701	124,39
327,228	129,74
327,755	108,27
328,282	109,92
328,809	119,49
329,336	114,17
329,862	111,03
330,389	106,64
330,915	108,66
331,441	106,87
331,968	125,23
332,494	108,71
333,02	112,08
333,545	106,72
334,071	127,27
334,597	94,37
335,122	109,63
335,648	126,29
336,173	104,92
336,698	101,9
337,223	107,72
337,748	103,12
338,272	110,27
338,797	111,23
339,322	103,65
339,846	102,21
340,37	119,76
340,894	97,57
341,419	101,88
341,942	103,15
342,466	94,87
342,99	98,99
343,514	97,54
344,037	89,24
344,56	108,89
345,084	96,92
345,607	94,44
346,13	96,83
346,653	105,33
347,175	103,21
347,698	85,53
348,221	97,86
348,743	90,06
349,265	95,32
349,787	81,6
350,309	88,61
350,831	81,79
351,353	88,41
351,875	93,57
352,397	94,76
352,918	97,37
353,439	93,71
353,961	83,43
354,482	86,26
355,003	85,47
355,524	82,22
356,044	79,55
356,565	89,46
357,086	87,85
357,606	72,8
358,126	77,66
358,646	73,72
359,167	85,95
359,687	79,66
360,206	77,05
360,726	73,22
361,246	81,91
361,765	81,92
362,285	70,25
362,804	80
363,323	65,85
363,842	79,12
364,361	74,88
364,88	71,18
365,398	64,85
365,917	69,81
366,435	80,99
366,954	68,97
367,472	66,98
367,99	65,88
368,508	64,78
369,026	71,36
369,544	63,6
370,061	66,81
370,579	61,07
371,096	68,35
371,613	63,58
372,131	61,02
372,648	59,84
373,165	58,2
373,681	59,49
374,198	63,87
374,715	60,71
375,231	58,71
375,747	56,9
376,264	54,59
376,78	54,86
377,296	57,43
377,812	54,32
378,327	53,48
378,843	53,92
379,359	52,81
379,874	56,92
380,389	50,32
380,905	48,36
381,42	49,85
381,935	48,02
382,449	50,74
382,964	48,43
383,479	47,99
383,993	48,2
384,508	45,93
385,022	45,08
385,536	45,66
386,05	42,65
386,564	43,03
387,078	39
387,592	42,21
388,105	44,09
388,619	39,84
389,132	38,2
389,645	38,85
390,158	35,62
390,671	37,68
391,184	35,83
391,697	33,97
392,21	30,69
392,722	32,94
393,235	34,52
393,747	35,8
394,259	33,9
394,771	32,72
395,283	32,14
395,795	32,09
396,307	33,18
396,818	29,39
397,33	28,23
397,841	30,8
398,353	31,26
398,864	30,18
399,375	29,47
399,886	28,01
400,397	26,09
400,907	26,24
401,418	24,77
401,928	23,96
402,439	24,35
402,949	23
403,459	23
403,969	23,6
404,479	22,52
404,989	20,93
405,498	21,57
406,008	20,5
406,517	18,22
407,027	18,17
407,536	17,5
408,045	17,43
408,554	17,09
409,063	15,3
409,572	15,51
410,08	15,07
410,589	15,85
411,097	14,03
411,606	14,6
412,114	13,77
412,622	13,15
413,13	13,04
413,638	12,6
414,145	11,73
414,653	11,78
415,16	11,67
415,668	10,79
416,175	10,13
416,682	9,99
417,189	9,33
417,696	9,95
418,203	10,18
418,71	10,1
419,216	9,5
419,723	9,46
420,229	9,45
420,735	8,96
421,242	9,06
421,748	8,9
422,254	8,97
422,759	8,51
423,265	8,53
423,771	7,75
424,276	8,48
424,781	7,82
425,287	8,08
425,792	7,6
426,297	7,9
426,802	7,75
427,306	7,73
427,811	7,43
428,316	7,47
428,82	7,73
429,324	7,83
429,829	7,18
430,333	6,89
430,837	7,19
431,34	6,94
431,844	6,94
432,348	6,76
432,851	6,56
433,355	6,82
433,858	7,1
434,361	6,72
434,864	6,64
435,367	6,52
435,87	6,89
436,373	6,47
436,876	7,14
437,378	6,52
437,88	6,22
438,383	6,51
438,885	6,35
439,387	6,54
439,889	6,33
440,391	6,15
440,892	6,53
441,394	6,31
441,896	6,35
442,397	6,35
442,898	5,96
443,399	6,22
443,9	5,81
444,401	5,98
444,902	6
445,403	6,1
445,903	5,99
446,404	6,1
446,904	6,41
447,405	5,57
447,905	5,97
448,405	6,2
448,905	6,26
449,404	6,27
449,904	6,18
450,404	6
450,903	6,39
451,403	5,96
451,902	6,48
452,401	6,1
452,9	6
453,399	6,18
453,898	5,96
454,396	6,08
454,895	5,98
455,393	6,05
455,892	6,18
456,39	6,11
456,888	5,95
457,386	6,01
457,884	6,46
458,382	6,23
458,879	5,91
459,377	6,49
459,874	5,95
460,372	6,05
460,869	6,22
461,366	5,99
461,863	5,81
462,36	6,22
462,857	6,35
463,353	6,04
463,85	5,89
464,346	5,91
464,843	6,12
465,339	5,98
465,835	6,15
466,331	6,03
466,827	6
467,323	6,24
467,818	6,06
468,314	6,12
468,809	5,77
469,305	5,83
469,8	5,97
470,295	5,61
470,79	6,19
471,285	5,98
471,78	5,76
472,274	5,61
472,769	5,53
473,263	5,82
473,758	5,82
474,252	5,57
474,746	5,82
475,24	5,86
475,734	5,84
476,228	5,67
476,721	5,59
477,215	5,59
477,708	6,03
478,202	5,6
478,695	5,9
479,188	5,8
479,681	5,79
480,174	5,74
480,667	5,83
481,159	5,94
481,652	5,79
482,144	5,73
482,637	6,01
483,129	5,61
483,621	5,72
484,113	6,08
484,605	5,94
485,097	6,14
485,588	5,66
486,08	6,04
486,571	5,84
487,063	6,08
487,554	5,96
488,045	5,75
488,536	5,99
489,027	5,96
489,518	6,3
490,008	5,84
490,499	6
490,989	5,79
491,48	6,11
491,97	6,17
492,46	6,18
492,95	5,95
493,44	6,37
493,93	6,25
494,419	6,32
494,909	6,5
495,398	6,51
495,888	6,22
496,377	6,67
496,866	6,6
497,355	6,61
497,844	6,76
498,333	7,02
498,821	6,88
499,31	7,09
499,798	7,21
500,287	7,01
500,775	7,25
501,263	7,49
501,751	7,74
502,239	7,65
502,727	7,68
503,215	7,8
503,702	8,13
504,19	8,01
504,677	8,5
505,164	8,67
505,651	8,77
506,139	8,63
506,625	8,93
507,112	9,15
507,599	9,36
508,086	9,35
508,572	9,88
509,058	10,02
509,545	10,15
510,031	10,18
510,517	10,5
511,003	10,62
511,489	11,23
511,974	11,43
512,46	11,35
512,946	11,69
513,431	12,08
513,916	12,42
514,401	12,83
514,887	12,63
515,371	13,18
515,856	13,58
516,341	13,73
516,826	14,16
517,31	14,53
517,795	15,2
518,279	14,95
518,763	15,72
519,247	15,81
519,731	16,4
520,215	16,6
520,699	16,79
521,182	17,33
521,666	17,48
522,149	17,95
522,633	18,1
523,116	18,81
523,599	19,13
524,082	19,38
524,565	19,56
525,048	19,84
525,53	20,11
526,013	20,55
526,495	20,75
526,978	20,94
527,46	21,45
527,942	21,67
528,424	22,02
528,906	21,78
529,388	21,99
529,87	22,87
530,351	22,48
530,833	23,31
531,314	23,26
531,795	23,18
532,277	23,28
532,758	23,77
533,238	24,07
533,719	23,65
534,2	24,3
534,681	24,41
535,161	23,99
535,642	24,73
536,122	24,27
536,602	24,54
537,082	24,92
537,562	25,07
538,042	24,82
538,522	24,8
539,001	25,11
539,481	25,39
539,96	24,92
540,44	25,19
540,919	25,41
541,398	25,29
541,877	25,34
542,356	25,51
542,835	25,2
543,313	25,38
543,792	25,58
544,27	25,62
544,749	26,03
545,227	25,63
545,705	26,06
546,183	25,89
546,661	26,23
547,139	25,99
547,616	26,1
548,094	26,14
548,571	26,34
549,049	26,36
549,526	25,9
550,003	26,46
550,48	26,15
550,957	25,96
551,434	26,24
551,911	26,46
552,387	26,3
552,864	26,41
553,34	26,87
553,817	26,48
554,293	26,31
554,769	26,47
555,245	26,38
555,721	26,4
556,197	26,5
556,672	26,05
557,148	26,25
557,623	26,67
558,099	25,96
558,574	26,29
559,049	25,77
559,524	26,3
559,999	26,23
560,474	25,93
560,948	25,82
561,423	25,8
561,897	25,39
562,372	25,49
562,846	25,42
563,32	25,27
563,794	25,28
564,268	25,52
564,742	24,6
565,216	24,6
565,69	24,51
566,163	24,5
566,636	24,16
567,11	24,13
567,583	23,95
568,056	23,54
568,529	23,79
569,002	23,54
569,475	23,02
569,947	22,92
570,42	23,21
570,892	22,4
571,365	22,29
571,837	22,34
572,309	22,2
572,781	21,89
573,253	21,81
573,725	21,3
574,197	21,28
574,668	21,17
575,14	20,95
575,611	20,74
576,082	20,5
576,554	20,31
577,025	20,3
577,496	20,15
577,967	19,66
578,437	19,7
578,908	19,71
579,379	19,53
579,849	19,05
580,319	18,91
580,79	18,76
581,26	19,04
581,73	18,61
582,2	18,68
582,669	18,27
583,139	18,23
583,609	18,16
584,078	18,28
584,548	17,87
585,017	18,12
585,486	17,67
585,955	17,69
586,424	17,74
586,893	17,55
587,362	17,69
587,83	17,2
588,299	17,26
588,767	17,26
589,236	17,27
589,704	16,98
590,172	16,84
590,64	16,53
591,108	16,83
591,576	16,61
592,043	16,48
592,511	16,61
592,978	16,69
593,446	16,38
593,913	16,3
594,38	16,41
594,847	16,07
595,314	16,37
595,781	16,22
596,248	15,96
596,715	15,94
597,181	15,92
597,647	15,91
598,114	15,93
598,58	15,78
599,046	15,82
599,512	16,04
599,978	15,65
600,444	15,61
600,91	15,69
601,375	15,43
601,841	15,65
602,306	15,42
602,771	15,37
603,236	15,38
603,702	15,42
604,167	15,33
604,631	15,19
605,096	15,17
605,561	15,04
606,025	15,01
606,49	14,97
606,954	14,84
607,418	14,71
607,882	14,67
608,347	14,55
608,81	14,58
609,274	14,39
609,738	14,15
610,202	14,41
610,665	14,17
611,128	13,97
611,592	13,94
612,055	13,8
612,518	13,56
612,981	13,68
613,444	13,47
613,907	13,39
614,369	13,39
614,832	13,21
615,294	13,08
615,757	13,09
616,219	13,06
616,681	12,72
617,143	12,77
617,605	12,81
618,067	12,62
618,529	12,49
618,99	12,48
619,452	12,33
619,913	12,27
620,375	12,15
620,836	12,12
621,297	12,1
621,758	12,17
622,219	11,93
622,68	11,94
623,14	11,74
623,601	11,65
624,061	11,92
624,522	11,88
624,982	11,68
625,442	11,76
625,902	11,91
626,362	11,75
626,822	11,5
627,282	11,56
627,742	11,77
628,201	11,6
628,661	11,57
629,12	11,6
629,579	11,33
630,038	11,45
630,497	11,6
630,956	11,32
631,415	11,39
631,874	11,38
632,332	11,39
632,791	11,27
633,249	11,16
633,708	11,24
634,166	11,03
634,624	11,16
635,082	11,14
635,54	10,93
635,998	10,82
636,455	10,91
636,913	10,73
637,37	10,5
637,828	10,53
638,285	10,27
638,742	10,32
639,199	10,11
639,656	9,93
640,113	10,05
640,57	9,72
641,027	9,56
641,483	9,48
641,94	9,35
642,396	9,11
642,852	9,25
643,309	9,05
643,765	8,95
644,221	8,92
644,676	8,63
645,132	8,49
645,588	8,36
646,043	8,25
646,499	8,08
646,954	7,96
647,409	7,94
647,864	7,89
648,319	7,65
648,774	7,62
649,229	7,45
649,684	7,61
650,139	7,42
650,593	7,35
651,047	7,32
651,502	7,26
651,956	7,28
652,41	7,22
652,864	7,07
653,318	7,16
653,772	7,14
654,225	7,09
654,679	6,96
655,133	6,79
655,586	6,81
656,039	6,81
656,492	6,8
656,946	6,69
657,399	6,73
657,851	6,56
658,304	6,5
658,757	6,52
659,209	6,31
659,662	6,36
660,114	6,2
660,567	6,31
661,019	6,06
661,471	6,01
661,923	5,89
662,375	5,82
662,826	5,82
663,278	5,75
663,73	5,69
664,181	5,74
664,632	5,49
665,084	5,6
665,535	5,49
665,986	5,58
666,437	5,54
666,888	5,37
667,338	5,47
667,789	5,62
668,24	5,43
668,69	5,47
669,14	5,49
669,591	5,52
670,041	5,4
670,491	5,57
670,941	5,6
671,391	5,62
671,84	5,66
672,29	5,65
672,74	5,71
673,189	5,78
673,638	5,8
674,088	5,97
674,537	5,95
674,986	6,01
675,435	6,18
675,883	6,22
676,332	6,3
676,781	6,38
677,229	6,62
677,678	6,55
678,126	6,62
678,574	6,94
679,022	7
679,47	7,04
679,918	7,14
680,366	7,11
680,814	7,31
681,261	7,5
681,709	7,65
682,156	7,62
682,604	7,91
683,051	8,06
683,498	8,16
683,945	8,27
684,392	8,32
684,839	8,46
685,286	8,56
685,732	8,68
686,179	8,9
686,625	9,02
687,071	9,1
687,518	9,5
687,964	9,66
688,41	9,8
688,856	10,2
689,301	10,38
689,747	10,61
690,193	11,01
690,638	11,15
691,084	11,54
691,529	12,2
691,974	12,45
692,419	12,81
692,864	13,52
693,309	13,9
693,754	14,44
694,199	15,06
694,643	15,56
695,088	16,1
695,532	16,84
695,977	17,27
696,421	17,99
696,865	18,42
697,309	19,06
697,753	19,83
698,197	20,38
698,64	20,98
699,084	21,5
699,527	22,15
699,971	22,58
700,414	23,23
700,857	23,94
701,3	24,46
701,743	25,15
702,186	25,68
702,629	26,17
703,072	26,82
703,515	27,2
703,957	27,82
704,399	28,38
704,842	28,89
705,284	29,34
705,726	29,86
706,168	30,26
706,61	31,04
707,052	31,32
707,494	31,74
707,935	32,23
708,377	32,56
708,818	33,11
709,26	33,56
709,701	33,84
710,142	34,73
710,583	34,9
711,024	35,49
711,465	35,64
711,905	36,05
712,346	36,33
712,787	36,8
713,227	37,2
713,667	37,37
714,108	37,99
714,548	38,45
714,988	38,79
715,428	39,29
715,868	39,59
716,307	39,79
716,747	40,37
717,186	40,56
717,626	40,51
718,065	41,35
718,504	41,18
718,944	41,69
719,383	42,48
719,822	42,44
720,261	42,42
720,699	42,8
721,138	42,93
721,576	43,43
722,015	43,99
722,453	43,58
722,892	44,18
723,33	44,51
723,768	44,87
724,206	45,11
724,644	44,8
725,081	45,17
725,519	45,31
725,957	45,44
726,394	45,94
726,832	45,83
727,269	45,65
727,706	46,46
728,143	46,6
728,58	46,52
729,017	46,65
729,454	46,95
729,89	47,16
730,327	47,17
730,764	47,74
731,2	47,66
731,636	47,68
732,072	48,15
732,509	48,09
732,945	47,8
733,38	47,97
733,816	48,14
734,252	48,23
734,688	48,35
735,123	48,08
735,559	48,37
735,994	48,56
736,429	48,73
736,864	48,79
737,299	48,45
737,734	48,91
738,169	48,78
738,604	49,08
739,038	48,44
739,473	48,97
739,907	48,87
740,342	49,22
740,776	49,16
741,21	49,16
741,644	49,49
742,078	49,37
742,512	48,86
742,946	49,33
743,379	48,98
743,813	49,24
744,246	49,03
744,68	49,28
745,113	48,82
745,546	48,89
745,979	49,16
746,412	48,63
746,845	49,09
747,278	49,1
747,711	49,03
748,143	49,09
748,576	49,17
749,008	49,02
749,441	48,89
749,873	48,99
750,305	48,85
750,737	48,71
751,169	48,67
751,601	48,79
752,032	48,7
752,464	48,4
752,896	48,65
753,327	48,67
753,758	48,7
754,19	48,57
754,621	48,4
755,052	48,52
755,483	48,57
755,914	48,69
756,344	48,17
756,775	48,46
757,206	48,41
757,636	48,4
758,066	48,39
758,497	48,2
758,927	48,45
759,357	48,61
759,787	48,02
760,217	48,22
760,647	47,99
761,076	48,02
761,506	47,8
761,935	47,9
762,365	48,1
762,794	47,96
763,223	47,96
763,653	47,97
764,082	47,62
764,51	47,96
764,939	47,93
765,368	47,59
765,797	48,09
766,225	47,64
766,654	47,56
767,082	47,46
767,51	47,5
767,938	47,33
768,367	47,65
768,795	46,98
769,222	47,48
769,65	47,58
770,078	47,2
770,505	47,43
770,933	47,41
771,36	47,66
771,788	47,42
772,215	47,32
772,642	47,35
773,069	47,26
773,496	47,29
773,923	46,73
774,349	46,96
774,776	47,12
775,203	47,11
775,629	47,16
776,055	46,74
776,482	46,97
776,908	46,83
777,334	46,67
777,76	46,7
778,186	47,17
778,611	47,36
779,037	46,89
779,463	46,72
779,888	46,59
780,314	46,75
780,739	47,3
781,164	46,97
781,589	46,67
782,014	46,99
782,439	46,58
782,864	46,6
783,289	46,71
783,713	46,84
784,138	46,77
784,562	46,54
784,987	46,78
785,411	46,47
785,835	46,33
786,259	46,63
786,683	46,77
787,107	46,87
787,531	46,79
787,954	46,66
788,378	46,2
788,802	46,69
789,225	46,43
789,648	46,64
790,071	46,2
790,495	46,62
790,918	46,74
791,34	46,68
791,763	46,22
792,186	46,32
792,609	46,47
793,031	46,41
793,454	46,19
793,876	46,73
794,298	46,4
794,721	46,34
795,143	46,56
795,565	46,44
795,986	46,25
796,408	46,2
796,83	46,21
797,252	46,41
797,673	46,58
798,094	46,71
798,516	46,58
798,937	46,62
799,358	46,3
799,779	46,29
800,2	46,24
800,621	46,24
801,042	45,97
801,462	46,2
801,883	46,51
802,303	46,15
802,724	46,53
803,144	46,34
803,564	46,39
803,984	46,33
804,404	46,54
804,824	46,51
805,244	46,41
805,664	46,87
806,084	46,6
806,503	46,6
806,923	46,23
807,342	46,44
807,761	45,96
808,18	46,29
808,599	45,91
809,018	46,16
809,437	46,27
809,856	45,86
810,275	46,19
810,693	46,07
811,112	46,48
811,53	46,37
811,949	46,24
812,367	46,44
812,785	46,4
813,203	46,37
813,621	46,41
814,039	46,17
814,457	46,24
814,874	45,91
815,292	46,25
815,709	46,06
816,127	46,21
816,544	46,25
816,961	46,05
817,378	46,43
817,795	45,98
818,212	46,46
818,629	46,39
819,046	45,99
819,462	46,24
819,879	46,07
820,295	46,08
820,712	46,46
821,128	45,91
821,544	46,39
821,96	46,2
822,376	45,75
822,792	45,82
823,208	46,11
823,624	46,45
824,039	45,98
824,455	46,34
824,87	45,93
825,286	46,27
825,701	46,35
826,116	45,61
826,531	46,51
826,946	46,03
827,361	45,9
827,776	45,81
828,19	45,99
828,605	45,98
829,02	46,18
829,434	46,07
829,848	45,82
830,263	45,93
830,677	45,69
831,091	45,93
831,505	45,89
831,919	46,12
832,332	46,06
832,746	46,28
833,16	45,63
833,573	45,8
833,987	46,26
834,4	45,79
834,813	45,55
835,226	45,6
835,639	45,94
836,052	45,64
836,465	46,03
836,878	46,06
837,29	45,98
837,703	45,64
838,116	45,93
838,528	46,3
838,94	45,97
839,352	46,06
839,765	45,89
840,177	46,03
840,589	45,95
841	45,74
841,412	45,92
841,824	45,81
842,235	45,95
842,647	45,67
843,058	45,83
843,47	45,87
843,881	45,94
844,292	45,5
844,703	45,99
845,114	45,51
845,525	45,9
845,935	45,68
846,346	45,47
846,757	45,86
847,167	45,56
847,577	45,67
847,988	45,67
848,398	45,67
848,808	45,64
849,218	45,84
849,628	45,61
850,038	45,68
850,448	45,49
850,857	46,01
851,267	45,75
851,676	45,75
852,086	46,04
852,495	45,89
852,904	45,9
853,313	45,21
853,722	45,57
854,131	45,65
854,54	45,5
854,949	45,23
855,357	45,57
855,766	45,88
856,174	45,12
856,583	45,23
856,991	45,55
857,399	45,83
857,807	45,61
858,215	45,83
858,623	46,09
859,031	45,29
859,439	46,1
859,846	45,44
860,254	45,51
860,661	45,94
861,069	45,73
861,476	45,6
861,883	45,35
862,29	45,38
862,697	45,67
863,104	45,23
863,511	45,39
863,918	45,42
864,325	45,87
864,731	45,73
865,138	45,32
865,544	45,41
865,95	45,73
866,357	45,98
866,763	45,66
867,169	45,78
867,575	45,67
867,98	45,79
868,386	45,39
868,792	45,9
869,197	45,61
869,603	45,51
870,008	45,53
870,414	45,93
870,819	45,3
871,224	45,31
871,629	45,62
872,034	45,52
872,439	45,28
872,844	45,43
873,248	45,4
873,653	45,49
874,057	45,17
874,462	45,84
874,866	45,71
875,27	45,89
875,674	46,03
876,078	45,76
876,482	45,51
876,886	45,59
877,29	45,35
877,694	45,71
878,097	45,08
878,501	44,88
878,904	45,04
879,308	45,28
879,711	45,24
880,114	45,61
880,517	45,62
880,92	45,67
881,323	45,51
881,726	46,04
882,128	45,39
882,531	45,56
882,934	45,31
883,336	45,83
883,738	45,58
884,141	45,74
884,543	45,21
884,945	45,23
885,347	45,61
885,749	45,11
886,151	45,79
886,552	45,58
886,954	45,22
887,355	45,55
887,757	45,3
888,158	45,49
888,56	45,58
888,961	45,48
889,362	45,49
889,763	45,28
890,164	45,51
890,565	45,43
890,965	45,5
891,366	45,52
891,767	45,86
892,167	45,52
892,567	45,79
892,968	45,2
893,368	45,21
893,768	45,15
894,168	45,41
894,568	44,81
894,968	45,41
895,368	45,36
895,767	45,52
896,167	45,53
896,566	45,43
896,966	45,41
897,365	45,56
897,764	45,76
898,164	45,37
898,563	45,81
898,962	45,7
899,361	45,77
899,759	45,71
900,158	45,3
900,557	45,51
900,955	45,51
901,354	45,27
901,752	44,97
902,15	45,02
902,548	45,23
902,947	45,37
903,345	45,42
903,742	45,33
904,14	45,63
904,538	45,22
904,936	45,61
905,333	45,32
905,731	45,61
906,128	45,61
906,525	45,83
906,923	45,78
907,32	45,41
907,717	45,67
908,114	45,85
908,511	45,72
908,907	46,08
909,304	45,54
909,701	45,32
910,097	45,93
910,494	45,23
910,89	46,05
911,286	44,98
911,682	45,88
912,078	45,61
912,474	45,92
912,87	45,79
913,266	45,29
913,662	45,31
914,058	45,32
914,453	45,38
914,849	45,42
915,244	44,98
915,639	45,45
916,034	45,39
916,43	45,68
916,825	45,56
917,22	45,42
917,614	45,83
918,009	45,49
918,404	44,92
918,798	45,04
919,193	45,51
919,587	45,39
919,982	45,41
920,376	45,47
920,77	45,35
921,164	45,33
921,558	45,17
921,952	45,29
922,346	45,2
922,74	45,31
923,133	45,52
923,527	45,18
923,92	45
924,314	45,48
924,707	45,19
925,1	45,25
925,493	45,62
925,886	45,02
926,279	45,26
926,672	45,73
927,065	45,2
927,457	45,3
927,85	44,83
928,243	45,15
928,635	45,52
929,027	45,15
929,42	45,89
929,812	45,15
930,204	45,98
930,596	45,52
930,988	45,42
931,379	45,18
931,771	45,83
932,163	45,47
932,554	44,92
932,946	44,51
933,337	45,27
933,729	45,7
934,12	45,29
934,511	45,52
934,902	45,72
935,293	44,8
935,684	45,41
936,075	46
936,465	45,5
936,856	45,45
937,246	46,4
937,637	45,56
938,027	46,06
938,417	44,86
938,808	45,09
939,198	45,26
939,588	45,9
939,978	45,82
940,368	45,41
940,757	45,58
941,147	46,81
941,537	45,24
941,926	46,32
942,315	47,04
942,705	45,84
943,094	45,89
943,483	45,24
943,872	44,51
944,261	45,59
944,65	45,57
945,039	45,77
945,428	46,74
945,816	46,57
946,205	45,1
946,593	45,86
946,982	46,23
947,37	45,53
947,758	45,45
948,146	46,02
948,534	45,94
948,922	45,57
949,31	45,57
949,698	46,1
950,086	45,17
950,473	45,1
950,861	45,54
951,248	45,15
951,636	45,93
952,023	44,94
952,41	45,41
952,797	44,55
953,184	45,57
953,571	45,67
953,958	44,51
954,345	44,64
954,731	45,54
955,118	44,89
955,505	44,95
955,891	44,87
956,277	45,63
956,664	45,12
957,05	44,88
957,436	44,55
957,822	44,07
958,208	44,21
958,594	44,41
958,979	44,71
959,365	44,6
959,751	44,34
960,136	44,85
960,522	44,99
960,907	44,66
961,292	43,9
961,677	44,87
962,062	45,01
962,447	44,94
962,832	44,41
963,217	44,92
963,602	45,14
963,986	45,31
964,371	44,06
964,756	44,68
965,14	44,38
965,524	45,14
965,908	44,95
966,293	44,27
966,677	44,35
967,061	45,26
967,445	44,8
967,828	44,47
968,212	44,82
968,596	44,38
968,979	45,08
969,363	45,02
969,746	44,81
970,129	44,54
970,513	44,55
970,896	44,82
971,279	44,6
971,662	44,89
972,045	44,48
972,428	45,6
972,81	44,73
973,193	45,53
973,575	44,83
973,958	44,03
974,34	44,48
974,723	44,74
975,105	44,45
975,487	44,94
975,869	44,57
976,251	45,1
976,633	44,86
977,015	45,04
977,396	45,26
977,778	44,71
978,16	44,62
978,541	44,97
978,922	45,2
979,304	45
979,685	45,8
980,066	45,17
980,447	45,25
980,828	45,17
981,209	44,99
981,59	45,15
981,97	44,73
982,351	45,06
982,732	45,55
983,112	45,04
983,493	44,83
983,873	45,08
984,253	44,44
984,633	44,91
985,013	45
985,393	45,51
985,773	45,22
986,153	45,62
986,533	45,18
986,912	45,04
987,292	45,18
987,671	45,32
988,051	45,47
988,43	44,79
988,809	44,85
989,188	45,4
989,567	44,88
989,946	45,07
990,325	45,49
990,704	45
991,083	45,91
991,461	45,41
991,84	45,71
992,218	45,39
992,597	46,08
992,975	45,2
993,353	45,33
993,732	44,71
994,11	45,81
994,488	45,52
994,866	45,12
995,243	45,82
995,621	45,65
995,999	45,4
996,376	45,54
996,754	45,37
997,131	45,2
997,509	45,01
997,886	45,75
998,263	45,65
998,64	45,51
999,017	45,19
999,394	46,07
999,771	45,71
1000,148	44,87
1000,524	45,02
1000,901	44,84
1001,277	46,02
1001,654	45,99
1002,03	45,92
1002,406	46,05
1002,783	45,59
1003,159	45,87
1003,535	45,44
1003,911	45,86
1004,286	46,1
1004,662	45,99
1005,038	46,28
1005,414	45,96
1005,789	45,99
1006,164	46,02
1006,54	45,99
1006,915	45,48
1007,29	45,2
1007,665	45,98
1008,04	45,68
1008,415	46,3
1008,79	46,23
1009,165	44,94
1009,54	46,19
1009,914	46,25
1010,289	45,33
1010,663	45,89
1011,038	46,26
1011,412	46,2
1011,786	45,96
1012,16	47,18
1012,535	46,25
1012,909	46,43
1013,282	46,7
1013,656	46,75
1014,03	45,95
1014,404	46,88
1014,777	46,31
1015,151	46,86
1015,524	46,69
1015,897	46,21
1016,271	46,16
1016,644	46,44
1017,017	46,41
1017,39	45,89
1017,763	46,47
1018,136	46,39
1018,508	46,41
1018,881	46,59
1019,254	46,21
1019,626	46,03
1019,999	46,13
1020,371	46,92
1020,743	46,56
1021,116	46,33
1021,488	47,27
1021,86	47,71
1022,232	47,38
1022,604	46,5
1022,975	47,3
1023,347	46,46
1023,719	47,94
1024,09	47,15
1024,462	46,2
1024,833	48,04
1025,204	47,8
1025,576	47,06
1025,947	46,9
1026,318	45,93
1026,689	47,69
1027,06	47,09
1027,431	48,27
1027,801	48,22
1028,172	46,84
1028,543	47,81
1028,913	48,1
1029,284	47,27
1029,654	46,77
1030,024	47,17
1030,394	47,71
1030,764	46,7
1031,135	47,14
1031,504	46,57
1031,874	47,09
1032,244	46,95
1032,614	47,67
1032,983	47,55
1033,353	46,99
1033,722	47,12
1034,092	47,83
1034,461	47,51
1034,83	46,93
1035,2	48,22
1035,569	47,79
1035,938	47,58
1036,307	48,72
1036,675	46,88
1037,044	49,01
1037,413	47,58
1037,781	48,15
1038,15	49,35
1038,518	48,97
1038,887	48,3
1039,255	48
1039,623	48,43
1039,991	48,45
1040,359	47,67
1040,727	48,51
1041,095	47,96
1041,463	48,5
1041,831	48,45
1042,198	47,7
1042,566	49,35
1042,933	48,44
1043,301	47,96
1043,668	48,57
1044,035	48,26
1044,402	49,53
1044,77	48
1045,137	48,5
1045,503	48,06
1045,87	48,59
1046,237	49,15
1046,604	49,92
1046,97	47,79
1047,337	49,07
1047,703	49,94
1048,07	49,35
1048,436	50,83
1048,802	50,21
1049,168	50,39
1049,534	48,94
1049,9	50,94
1050,266	50,66
1050,632	49,71
1050,998	51,18
1051,364	49,73
1051,729	50,25
1052,095	49,01
1052,46	49,15
1052,825	49,94
1053,191	50,86
1053,556	50,3
1053,921	49,22
1054,286	49,68
1054,651	50,55
1055,016	51,14
1055,381	49,85
1055,745	49,49
1056,11	50,8
1056,475	51,56
1056,839	49,54
1057,203	51,46
1057,568	50,32
1057,932	50,9
1058,296	51,08
1058,66	50,84
1059,024	51,89
1059,388	50,81
1059,752	50,47
1060,116	51,81
1060,48	52,44
1060,843	49,98
1061,207	50,3
1061,57	52,72
1061,934	51,45
1062,297	51,23
1062,66	51,28
1063,023	51,64
1063,386	53,11
1063,749	51,47
1064,112	51,5
1064,475	52,63
1064,838	52,36
1065,201	52,05
1065,563	52,06
1065,926	50,88
1066,288	52
1066,651	51,89
1067,013	51,57
1067,375	52,67
1067,737	53,4
1068,099	50,95
1068,461	52,2
1068,823	49,54
1069,185	52,58
1069,547	52,29
1069,909	49,35
1070,27	52,39
1070,632	50,78
1070,993	53,25
1071,355	52,42
1071,716	51,92
1072,077	52,82
1072,438	52,61
1072,799	52,84
1073,16	53,6
1073,521	51,76
1073,882	53,47
1074,243	54,64
1074,603	52,59
1074,964	52,27
1075,325	52,5
1075,685	51,45
1076,045	51,94
1076,406	52,8
1076,766	53,14
1077,126	53,79
1077,486	53,28
1077,846	52,07
1078,206	53,95
1078,566	53,27
1078,925	52,51
1079,285	52,86
1079,645	51,9
1080,004	53,46
1080,364	53,7
1080,723	54,44
1081,082	53,97
1081,442	53,4
1081,801	53,65
1082,16	52,69
1082,519	54,14
1082,878	54,28
1083,237	52,97
1083,595	54,29
1083,954	52,64
1084,313	51,95
1084,671	53,06
1085,03	54,76
1085,388	53,71
1085,746	53,75
1086,104	53,92
1086,463	54,31
1086,821	55,58
1087,179	54,94
1087,537	56,23
1087,894	53,51
1088,252	55,51
1088,61	55,11
1088,967	55,19
1089,325	56,37
1089,682	55,74
1090,04	56,51
1090,397	56,55
1090,754	56,08
1091,111	53,2
1091,469	57,46
1091,826	54,84
1092,182	55,84
1092,539	54,88
1092,896	55,29
1093,253	54,45
1093,609	55,68
1093,966	55,49
1094,322	54,92
1094,679	55,91
1095,035	56,61
1095,391	55,08
1095,748	56,59
1096,104	53,67
1096,46	56,97
1096,816	57,59
1097,171	56,23
1097,527	57,45
1097,883	57,61
1098,239	56,91
1098,594	58,46
1098,95	57,03
1099,305	57,03
1099,66	56,08
1100,016	54,78
1100,371	57,88
1100,726	58,53
1101,081	58,1
1101,436	60,41
1101,791	61,09
1102,146	57,74
1102,5	58,41
1102,855	56,43
1103,21	57,21
1103,564	58,57
1103,918	58,35
1104,273	61,97
1104,627	59,92
1104,981	55,59
1105,335	57,9
1105,69	61,46
1106,043	59,16
1106,397	55,81
1106,751	60,88
1107,105	59,51
1107,459	61,79
1107,812	61,35
1108,166	62,57
1108,519	59,86
1108,873	61,69
1109,226	64,04
1109,579	59,19
1109,932	60,2
1110,285	65,64
1110,638	66,92
1110,991	63,22
1111,344	59,09
1111,697	61,52
1112,05	62,59
1112,402	69,77
1112,755	61,95
1113,107	65,6
1113,46	64,92
1113,812	65,97
1114,164	68,47
1114,517	63,12
1114,869	166,67
1115,221	183,33
1115,573	161,36
1115,924	188,68
