Data from G4__Relative__7__00131.txt Node

Date: Wed Jan 31 18:38:37 CET 2024
User: diatiterra
Spectrometer: HDX00911
Trigger mode: 0
Integration Time (sec): 6,000000E-3
Scans to average: 2
Nonlinearity correction enabled: false
Boxcar width: 0
Storing dark spectrum: false
XAxis mode: Wavelengths
Number of Pixels in Spectrum: 2068
>>>>>Begin Spectral Data<<<<<
194,468	267,92
195,025	168,18
195,581	242,68
196,138	238,46
196,694	161,11
197,251	137,37
197,807	114,57
198,363	115,2
198,919	98,62
199,474	113,6
200,03	130,74
200,586	132,14
201,141	99,68
201,696	102,01
202,251	107,58
202,806	106,64
203,361	120,74
203,916	111,46
204,471	103,65
205,025	125,4
205,58	113,57
206,134	116,8
206,688	121,92
207,242	125,22
207,796	112,41
208,35	121,01
208,904	116,55
209,457	107,29
210,011	107,09
210,564	112,32
211,117	113,53
211,67	119,78
212,223	110,96
212,776	128,63
213,329	110
213,881	138,73
214,434	107,89
214,986	124,79
215,538	121,69
216,09	109,15
216,642	133,88
217,194	120,08
217,746	113,16
218,297	111,07
218,849	112,13
219,4	126,47
219,951	122,18
220,502	109,8
221,053	117,18
221,604	111,41
222,155	116,27
222,705	109,56
223,256	114,18
223,806	116,54
224,356	114,62
224,906	119,35
225,456	127,52
226,006	114,68
226,556	96,43
227,106	125
227,655	109,03
228,204	122,92
228,754	112,32
229,303	112,86
229,852	106,83
230,401	117,91
230,949	113,31
231,498	108,8
232,047	99,68
232,595	110,34
233,143	127,17
233,691	112,02
234,239	105,71
234,787	117,2
235,335	115,3
235,883	106,64
236,43	105,3
236,978	120,77
237,525	106,57
238,072	103,19
238,619	115,15
239,166	107,09
239,713	108,39
240,26	111,07
240,806	114,58
241,353	120,63
241,899	112,94
242,445	113,14
242,991	121,76
243,537	114,77
244,083	122,52
244,629	116,54
245,174	124,34
245,72	108,89
246,265	107,94
246,81	123,2
247,355	126,59
247,9	108,21
248,445	120,63
248,99	115,91
249,534	127,39
250,079	111,28
250,623	110,37
251,168	118,18
251,712	111,33
252,256	120,9
252,8	121,54
253,343	109,29
253,887	107,26
254,43	114,12
254,974	116,79
255,517	110,62
256,06	118,46
256,603	107,04
257,146	120,54
257,689	118,9
258,232	132,2
258,774	107,8
259,317	124,15
259,859	125,23
260,401	123,26
260,943	101,06
261,485	106,03
262,027	118,8
262,569	118,28
263,11	110,77
263,652	127,56
264,193	120,25
264,734	112,77
265,275	122,13
265,816	116,79
266,357	124,42
266,898	114,23
267,438	125,2
267,979	113,31
268,519	114,93
269,059	136,45
269,6	114,66
270,14	130,65
270,68	113,77
271,219	127,54
271,759	113,16
272,298	115,41
272,838	118,08
273,377	112,7
273,916	107,19
274,455	115,33
274,994	115,2
275,533	108,7
276,072	113,01
276,61	103,99
277,149	135
277,687	119,17
278,225	103
278,763	139,91
279,301	128,33
279,839	122,98
280,377	115,98
280,914	105,59
281,452	129,91
281,989	126,03
282,526	118,11
283,064	131,09
283,601	108,78
284,137	122,31
284,674	117,92
285,211	127,19
285,747	109,09
286,284	141,44
286,82	120,66
287,356	102,96
287,892	116,67
288,428	116,94
288,964	140,34
289,5	131,82
290,035	116
290,571	117,65
291,106	124,39
291,641	130,36
292,176	119,14
292,711	118,29
293,246	106,15
293,781	114,88
294,315	100
294,85	134,26
295,384	115,16
295,918	112,87
296,453	101,12
296,987	121,49
297,52	119,42
298,054	109,16
298,588	116,67
299,121	101,12
299,655	115,33
300,188	117,08
300,721	117,48
301,254	114,92
301,787	117,19
302,32	126,02
302,853	115,2
303,385	115,36
303,918	110,08
304,45	111,54
304,982	101,42
305,514	110,85
306,046	106,61
306,578	105,04
307,11	112,4
307,641	118,53
308,173	119,83
308,704	109,09
309,236	101,5
309,767	110,28
310,298	112,9
310,829	121,3
311,359	120,97
311,89	119,75
312,421	123,42
312,951	115,45
313,481	97,24
314,012	108,96
314,542	126,69
315,072	116,03
315,601	114,4
316,131	119,69
316,661	110,42
317,19	105,19
317,72	118,6
318,249	119,84
318,778	112,5
319,307	113,67
319,836	126,99
320,365	114,35
320,893	116,12
321,422	121,54
321,95	119,92
322,479	114,12
323,007	128,18
323,535	102,14
324,063	122
324,591	115,2
325,118	115,33
325,646	118,07
326,173	107,92
326,701	117,48
327,228	128,02
327,755	107,14
328,282	111,45
328,809	130,51
329,336	106,3
329,862	111,76
330,389	106,25
330,915	118,9
331,441	111,83
331,968	125,23
332,494	107,95
333,02	113,75
333,545	106,34
334,071	121,9
334,597	105,63
335,122	115,93
335,648	123,71
336,173	112,12
336,698	98,1
337,223	101,47
337,748	100
338,272	103,08
338,797	110,14
339,322	96,35
339,846	95,59
340,37	125,81
340,894	98,61
341,419	109,77
341,942	101,75
342,466	104,49
342,99	97,32
343,514	103,52
344,037	91,14
344,56	113,7
345,084	103,42
345,607	103,12
346,13	103,52
346,653	100,33
347,175	101,28
347,698	88,99
348,221	97,14
348,743	93,48
349,265	99,64
349,787	93,56
350,309	92,72
350,831	94,14
351,353	87,5
351,875	87,72
352,397	95,8
352,918	98,36
353,439	102,65
353,961	86,92
354,482	96,2
355,003	86,63
355,524	83,89
356,044	85,51
356,565	90,36
357,086	91,24
357,606	75,55
358,126	81,38
358,646	79,85
359,167	88,11
359,687	90,68
360,206	84,97
360,726	74,64
361,246	85,64
361,765	87,29
362,285	74,25
362,804	83,68
363,323	77,56
363,842	80,77
364,361	79,35
364,88	74,63
365,398	75,76
365,917	75,24
366,435	88,28
366,954	73,66
367,472	74,53
367,99	80,09
368,508	68,83
369,026	80,91
369,544	73,68
370,061	75,84
370,579	72,95
371,096	79,36
371,613	72,84
372,131	69,88
372,648	68,11
373,165	68,36
373,681	68,78
374,198	74,41
374,715	71,8
375,231	69,13
375,747	64,14
376,264	64,29
376,78	68,71
377,296	69,14
377,812	62,79
378,327	63,25
378,843	64,85
379,359	62,42
379,874	73,36
380,389	60,57
380,905	58,51
381,42	58,36
381,935	62,35
382,449	59,29
382,964	57,43
383,479	57,47
383,993	54,99
384,508	56,96
385,022	51,3
385,536	53,95
386,05	53,94
386,564	55,22
387,078	48,44
387,592	51,22
388,105	55,67
388,619	50,56
389,132	46,63
389,645	50,34
390,158	49,36
390,671	48,27
391,184	44,53
391,697	44,99
392,21	40,26
392,722	44,35
393,235	46,44
393,747	46,4
394,259	43,45
394,771	42,69
395,283	40,84
395,795	42,72
396,307	42,06
396,818	42,37
397,33	38,01
397,841	40,62
398,353	40,29
398,864	38,56
399,375	36,23
399,886	40,87
400,397	35,39
400,907	35,65
401,418	33,73
401,928	31,97
402,439	34,23
402,949	31,94
403,459	31,13
403,969	33,19
404,479	30,84
404,989	28,72
405,498	29,81
406,008	29,95
406,517	26,31
407,027	25,56
407,536	25,29
408,045	23,51
408,554	24,54
409,063	22,25
409,572	21,79
410,08	20,48
410,589	21,81
411,097	20,47
411,606	19,92
412,114	19,26
412,622	19,14
413,13	18,78
413,638	18,23
414,145	16,78
414,653	17,2
415,16	15,48
415,668	16,48
416,175	15,54
416,682	15,44
417,189	14
417,696	14,9
418,203	14,69
418,71	13,98
419,216	14,22
419,723	14,04
420,229	12,86
420,735	13,18
421,242	13,55
421,748	13,79
422,254	12,28
422,759	11,93
423,265	12,68
423,771	12
424,276	12,78
424,781	11,61
425,287	11,77
425,792	11,87
426,297	12,11
426,802	11,5
427,306	11,61
427,811	11,5
428,316	11,63
428,82	11,45
429,324	11,54
429,829	11,29
430,333	9,94
430,837	11,53
431,34	10,84
431,844	10,75
432,348	10,38
432,851	10,03
433,355	10,64
433,858	10,39
434,361	10,45
434,864	10,09
435,367	10,3
435,87	10,71
436,373	10,72
436,876	10,54
437,378	10,67
437,88	10,34
438,383	10,13
438,885	9,95
439,387	10,15
439,889	10,17
440,391	10,06
440,892	10,42
441,394	10,25
441,896	10,03
442,397	10,12
442,898	9,87
443,399	10,28
443,9	9,73
444,401	9,65
444,902	9,66
445,403	9,85
445,903	9,89
446,404	10,12
446,904	10,01
447,405	9,64
447,905	9,46
448,405	9,87
448,905	10,05
449,404	9,69
449,904	9,83
450,404	9,47
450,903	10,19
451,403	9,45
451,902	9,98
452,401	9,64
452,9	10
453,399	9,73
453,898	9,42
454,396	9,93
454,895	9,59
455,393	10,05
455,892	9,67
456,39	9,91
456,888	9,81
457,386	9,94
457,884	10,04
458,382	9,86
458,879	9,61
459,377	10,13
459,874	9,93
460,372	9,83
460,869	9,84
461,366	9,96
461,863	9,68
462,36	9,86
462,857	9,72
463,353	9,65
463,85	9,6
464,346	9,51
464,843	9,73
465,339	9,87
465,835	10,03
466,331	9,73
466,827	9,69
467,323	9,56
467,818	10,07
468,314	9,6
468,809	9,66
469,305	9,67
469,8	9,67
470,295	9,71
470,79	9,77
471,285	9,6
471,78	9,17
472,274	9,33
472,769	9,4
473,263	9,66
473,758	9,67
474,252	9,54
474,746	9,64
475,24	9,26
475,734	9,46
476,228	9,63
476,721	9,66
477,215	9,4
477,708	9,16
478,202	9,48
478,695	9,61
479,188	9,68
479,681	9,54
480,174	9,55
480,667	9,72
481,159	9,57
481,652	9,5
482,144	9,65
482,637	9,72
483,129	9,59
483,621	10,14
484,113	10,07
484,605	10,03
485,097	9,79
485,588	9,74
486,08	9,61
486,571	9,52
487,063	9,62
487,554	10
488,045	9,82
488,536	9,68
489,027	9,67
489,518	9,88
490,008	9,89
490,499	9,89
490,989	9,57
491,48	10,3
491,97	10,04
492,46	10,03
492,95	9,91
493,44	10,18
493,93	10,07
494,419	9,84
494,909	10,11
495,398	10,18
495,888	10,3
496,377	10,51
496,866	10,59
497,355	10,18
497,844	10,11
498,333	10,73
498,821	10,72
499,31	10,95
499,798	10,83
500,287	10,68
500,775	11,2
501,263	10,9
501,751	10,96
502,239	11,5
502,727	11,08
503,215	11,37
503,702	11,77
504,19	11,82
504,677	11,97
505,164	12,22
505,651	12,4
506,139	12,2
506,625	12,51
507,112	12,59
507,599	13,01
508,086	13,06
508,572	13,5
509,058	13,54
509,545	13,66
510,031	13,85
510,517	14,22
511,003	13,98
511,489	14,97
511,974	15,07
512,46	15
512,946	15,03
513,431	15,18
513,916	15,84
514,401	16,1
514,887	16,09
515,371	16,81
515,856	17,29
516,341	17,26
516,826	17,56
517,31	17,98
517,795	18,02
518,279	17,94
518,763	18,93
519,247	19,26
519,731	19,86
520,215	20,09
520,699	20,28
521,182	20,61
521,666	21,13
522,149	21,7
522,633	21,92
523,116	22,37
523,599	22,55
524,082	22,84
524,565	23,17
525,048	23,42
525,53	24,02
526,013	23,73
526,495	24,35
526,978	24,51
527,46	25,02
527,942	25,06
528,424	25,63
528,906	25,45
529,388	26,14
529,87	26,38
530,351	25,88
530,833	26,67
531,314	26,82
531,795	26,58
532,277	27,32
532,758	27,63
533,238	27,75
533,719	27,78
534,2	27,52
534,681	28,07
535,161	27,84
535,642	28,47
536,122	28,13
536,602	28,51
537,082	28,55
537,562	28,93
538,042	28,5
538,522	28,96
539,001	28,93
539,481	28,85
539,96	29,29
540,44	29,33
540,919	29,1
541,398	29,59
541,877	29,37
542,356	28,91
542,835	29,13
543,313	29,33
543,792	29,8
544,27	29,09
544,749	29,62
545,227	29,81
545,705	29,81
546,183	30,17
546,661	29,89
547,139	29,68
547,616	29,37
548,094	29,61
548,571	29,91
549,049	30,47
549,526	30,06
550,003	30
550,48	30,1
550,957	30,13
551,434	30,24
551,911	30,39
552,387	29,85
552,864	30,5
553,34	30,22
553,817	30
554,293	30,07
554,769	29,89
555,245	30,4
555,721	30,29
556,197	30,13
556,672	30,31
557,148	30,17
557,623	30,3
558,099	29,83
558,574	30,19
559,049	29,69
559,524	29,86
559,999	30,2
560,474	30,04
560,948	29,19
561,423	29,78
561,897	29,37
562,372	29,56
562,846	29,02
563,32	28,92
563,794	29,35
564,268	29,21
564,742	28,63
565,216	28,74
565,69	28,14
566,163	28,16
566,636	27,95
567,11	27,74
567,583	27,64
568,056	27,52
568,529	27,37
569,002	27,19
569,475	27,09
569,947	26,68
570,42	26,88
570,892	26,38
571,365	26,35
571,837	26,27
572,309	26,09
572,781	25,83
573,253	25,58
573,725	25,57
574,197	25,19
574,668	25,08
575,14	24,54
575,611	24,56
576,082	24,33
576,554	23,93
577,025	23,95
577,496	24,01
577,967	23,54
578,437	23,38
578,908	23,18
579,379	23,01
579,849	23,09
580,319	22,85
580,79	22,59
581,26	22,5
581,73	22,32
582,2	22,18
582,669	22,13
583,139	21,86
583,609	21,69
584,078	21,97
584,548	21,47
585,017	21,56
585,486	21,38
585,955	21,54
586,424	21,46
586,893	21,39
587,362	21,06
587,83	21,09
588,299	20,95
588,767	20,94
589,236	20,77
589,704	20,55
590,172	20,38
590,64	20,33
591,108	20,47
591,576	20,53
592,043	20,18
592,511	20,22
592,978	20,38
593,446	20,08
593,913	19,94
594,38	19,84
594,847	19,92
595,314	20,02
595,781	19,89
596,248	19,55
596,715	19,73
597,181	19,74
597,647	19,57
598,114	19,61
598,58	19,51
599,046	19,57
599,512	19,54
599,978	19,45
600,444	19,63
600,91	19,09
601,375	19,41
601,841	19,43
602,306	19,15
602,771	19,02
603,236	18,94
603,702	19,23
604,167	18,86
604,631	18,94
605,096	19,04
605,561	18,8
606,025	18,66
606,49	18,77
606,954	18,66
607,418	18,35
607,882	18,34
608,347	18,23
608,81	18,26
609,274	17,97
609,738	18,05
610,202	17,99
610,665	17,72
611,128	17,81
611,592	17,37
612,055	17,41
612,518	17,37
612,981	17,43
613,444	17,26
613,907	17,03
614,369	16,99
614,832	16,95
615,294	16,9
615,757	16,75
616,219	16,73
616,681	16,36
617,143	16,47
617,605	16,35
618,067	16,18
618,529	16,38
618,99	16,14
619,452	16,1
619,913	16,09
620,375	16,12
620,836	15,79
621,297	15,91
621,758	15,68
622,219	15,67
622,68	15,64
623,14	15,32
623,601	15,82
624,061	15,53
624,522	15,65
624,982	15,49
625,442	15,44
625,902	15,51
626,362	15,26
626,822	15,26
627,282	15,33
627,742	15,4
628,201	15,29
628,661	15,41
629,12	15,26
629,579	15,17
630,038	15,05
630,497	15,26
630,956	15,14
631,415	15,03
631,874	15,08
632,332	15,06
632,791	14,84
633,249	14,85
633,708	15,03
634,166	14,83
634,624	14,73
635,082	14,61
635,54	14,58
635,998	14,4
636,455	14,37
636,913	14,31
637,37	14,36
637,828	14,14
638,285	14,03
638,742	13,84
639,199	13,8
639,656	13,68
640,113	13,53
640,57	13,32
641,027	13,21
641,483	13,09
641,94	13,05
642,396	13,27
642,852	12,82
643,309	12,74
643,765	12,4
644,221	12,55
644,676	12,2
645,132	12,22
645,588	11,82
646,043	11,78
646,499	11,69
646,954	11,61
647,409	11,57
647,864	11,52
648,319	11,27
648,774	11,18
649,229	11,18
649,684	11,12
650,139	10,97
650,593	11,07
651,047	10,99
651,502	10,8
651,956	10,77
652,41	10,81
652,864	10,64
653,318	10,64
653,772	10,6
654,225	10,56
654,679	10,67
655,133	10,52
655,586	10,63
656,039	10,41
656,492	10,42
656,946	10,4
657,399	10,28
657,851	10,19
658,304	10,04
658,757	10,07
659,209	10
659,662	9,98
660,114	9,78
660,567	9,78
661,019	9,66
661,471	9,6
661,923	9,55
662,375	9,5
662,826	9,38
663,278	9,32
663,73	9,3
664,181	9,33
664,632	9,31
665,084	9,27
665,535	9,29
665,986	9,11
666,437	9,11
666,888	9,15
667,338	9,16
667,789	9,18
668,24	9,19
668,69	9,2
669,14	9,11
669,591	8,91
670,041	9,25
670,491	9,15
670,941	9,13
671,391	9,31
671,84	9,31
672,29	9,34
672,74	9,36
673,189	9,43
673,638	9,62
674,088	9,66
674,537	9,64
674,986	9,79
675,435	9,84
675,883	10,02
676,332	10,02
676,781	10,19
677,229	10,11
677,678	10,26
678,126	10,46
678,574	10,52
679,022	10,64
679,47	10,84
679,918	10,89
680,366	10,94
680,814	10,97
681,261	11,06
681,709	11,42
682,156	11,48
682,604	11,57
683,051	11,63
683,498	11,87
683,945	11,92
684,392	12,08
684,839	12,27
685,286	12,38
685,732	12,4
686,179	12,41
686,625	12,71
687,071	12,79
687,518	13,04
687,964	13,11
688,41	13,53
688,856	13,65
689,301	13,93
689,747	14,16
690,193	14,47
690,638	14,8
691,084	15,13
691,529	15,57
691,974	16,07
692,419	16,57
692,864	17,11
693,309	17,53
693,754	17,91
694,199	18,35
694,643	18,84
695,088	19,59
695,532	20,17
695,977	20,89
696,421	21,39
696,865	21,84
697,309	22,41
697,753	23,03
698,197	23,73
698,64	24,46
699,084	25,26
699,527	25,58
699,971	26,27
700,414	26,69
700,857	27,48
701,3	28,07
701,743	28,57
702,186	29,18
702,629	30,1
703,072	30,46
703,515	30,89
703,957	31,08
704,399	31,76
704,842	32,43
705,284	33,1
705,726	33,42
706,168	33,85
706,61	34,79
707,052	35,07
707,494	35,66
707,935	36,25
708,377	36,51
708,818	37,03
709,26	37,57
709,701	38,14
710,142	38,57
710,583	38,8
711,024	39,09
711,465	39,67
711,905	40,05
712,346	40,1
712,787	40,67
713,227	41,3
713,667	41,83
714,108	42,03
714,548	42,45
714,988	43,12
715,428	43,54
715,868	44,01
716,307	43,81
716,747	44,19
717,186	44,51
717,626	44,78
718,065	45,39
718,504	45,47
718,944	46,06
719,383	46,46
719,822	46,69
720,261	46,84
720,699	47,05
721,138	47,04
721,576	47,66
722,015	48,06
722,453	48,32
722,892	48,46
723,33	49,12
723,768	49,35
724,206	49,46
724,644	49,32
725,081	49,86
725,519	49,69
725,957	49,78
726,394	50,3
726,832	50,32
727,269	50,23
727,706	50,58
728,143	50,9
728,58	51,2
729,017	50,95
729,454	51,15
729,89	51,54
730,327	51,47
730,764	51,88
731,2	51,77
731,636	51,75
732,072	52,42
732,509	52,39
732,945	52,34
733,38	52,28
733,816	52,61
734,252	52,32
734,688	52,94
735,123	53,02
735,559	53,01
735,994	52,89
736,429	53,35
736,864	53,27
737,299	52,99
737,734	53,45
738,169	53,19
738,604	53,35
739,038	53,07
739,473	53,39
739,907	53,46
740,342	53,32
740,776	53,8
741,21	53,53
741,644	53,78
742,078	53,3
742,512	53,26
742,946	53,61
743,379	53,19
743,813	53,4
744,246	53,3
744,68	53,24
745,113	53,57
745,546	53,05
745,979	53,54
746,412	53,25
746,845	53,38
747,278	53,1
747,711	53,48
748,143	53,39
748,576	53,64
749,008	53,6
749,441	53,18
749,873	52,87
750,305	53,24
750,737	53,34
751,169	53
751,601	52,93
752,032	52,8
752,464	52,83
752,896	52,77
753,327	53,01
753,758	52,66
754,19	52,88
754,621	52,64
755,052	52,48
755,483	52,83
755,914	52,88
756,344	52,53
756,775	52,55
757,206	52,64
757,636	52,24
758,066	52,27
758,497	52,33
758,927	52,59
759,357	52,72
759,787	52,32
760,217	52,15
760,647	52,17
761,076	52,46
761,506	51,77
761,935	52,08
762,365	52,21
762,794	51,99
763,223	52,31
763,653	52,31
764,082	51,75
764,51	51,91
764,939	51,93
765,368	52,04
765,797	51,77
766,225	51,6
766,654	51,4
767,082	51,38
767,51	51,65
767,938	51,58
768,367	51,51
768,795	51,36
769,222	51,79
769,65	51,68
770,078	51,5
770,505	51,64
770,933	51,48
771,36	51,68
771,788	51,4
772,215	51,23
772,642	51,55
773,069	50,99
773,496	51,32
773,923	50,84
774,349	50,99
774,776	51,34
775,203	51,06
775,629	51,12
776,055	50,61
776,482	50,73
776,908	50,75
777,334	50,96
777,76	50,92
778,186	50,87
778,611	51,24
779,037	51,02
779,463	51,03
779,888	51,02
780,314	50,9
780,739	50,92
781,164	50,97
781,589	50,52
782,014	50,99
782,439	50,58
782,864	50,94
783,289	50,88
783,713	50,47
784,138	50,52
784,562	50,53
784,987	50,45
785,411	50,58
785,835	50,5
786,259	50,61
786,683	50,97
787,107	50,34
787,531	50,46
787,954	50,52
788,378	50,18
788,802	50,4
789,225	50,19
789,648	50,5
790,071	50,01
790,495	50,53
790,918	50,7
791,34	50,45
791,763	50,41
792,186	50,25
792,609	50,2
793,031	50,3
793,454	50,55
793,876	50,62
794,298	50,25
794,721	50,05
795,143	50,56
795,565	50,31
795,986	50,21
796,408	50,35
796,83	50,15
797,252	50,28
797,673	50,57
798,094	50,25
798,516	50,44
798,937	50,47
799,358	49,89
799,779	50,16
800,2	50,43
800,621	50,17
801,042	50,05
801,462	50,05
801,883	50,03
802,303	49,8
802,724	50,03
803,144	50,32
803,564	50,18
803,984	50,51
804,404	50,07
804,824	50,21
805,244	50,1
805,664	50,51
806,084	50,45
806,503	50,3
806,923	50,22
807,342	49,74
807,761	49,77
808,18	49,83
808,599	49,88
809,018	50,16
809,437	50,12
809,856	50,01
810,275	50,09
810,693	49,98
811,112	50,38
811,53	50,3
811,949	49,86
812,367	50,23
812,785	50,18
813,203	50,2
813,621	49,9
814,039	49,86
814,457	50,15
814,874	49,68
815,292	49,85
815,709	49,97
816,127	50,29
816,544	49,92
816,961	50,06
817,378	50,07
817,795	49,93
818,212	50,22
818,629	50,62
819,046	49,7
819,462	49,58
819,879	50
820,295	49,75
820,712	49,64
821,128	49,94
821,544	50,28
821,96	49,88
822,376	50,15
822,792	49,79
823,208	50,12
823,624	50,06
824,039	49,81
824,455	50
824,87	49,47
825,286	49,84
825,701	49,81
826,116	49,76
826,531	50,02
826,946	49,65
827,361	49,47
827,776	49,76
828,19	49,83
828,605	49,18
829,02	49,59
829,434	49,57
829,848	49,64
830,263	50,06
830,677	49,56
831,091	49,62
831,505	49,63
831,919	49,79
832,332	49,65
832,746	49,99
833,16	49,41
833,573	49,61
833,987	49,8
834,4	49,57
834,813	49,18
835,226	49,07
835,639	49,61
836,052	49,3
836,465	49,99
836,878	49,5
837,29	49,27
837,703	49,79
838,116	49,6
838,528	49,48
838,94	49,76
839,352	49,44
839,765	49,42
840,177	49,65
840,589	49,49
841	49,08
841,412	49,66
841,824	49,27
842,235	49,27
842,647	49,32
843,058	49,35
843,47	49,31
843,881	49,77
844,292	49,34
844,703	49,59
845,114	49,32
845,525	49,29
845,935	49,46
846,346	49,58
846,757	49,32
847,167	49,49
847,577	49,17
847,988	49,75
848,398	49,08
848,808	49,44
849,218	49,37
849,628	49,4
850,038	49,43
850,448	49,17
850,857	49,36
851,267	49,56
851,676	49,35
852,086	49,36
852,495	49,42
852,904	49,37
853,313	48,97
853,722	49,44
854,131	49,64
854,54	48,97
854,949	49,31
855,357	49,32
855,766	48,99
856,174	48,95
856,583	49
856,991	49,24
857,399	49,47
857,807	49,42
858,215	49,14
858,623	49,63
859,031	48,89
859,439	49,84
859,846	49,37
860,254	49,04
860,661	49,77
861,069	49,31
861,476	49,31
861,883	48,76
862,29	49,03
862,697	49,14
863,104	48,98
863,511	49,18
863,918	49,09
864,325	49,25
864,731	49,04
865,138	48,97
865,544	49,1
865,95	49,11
866,357	49,5
866,763	49,48
867,169	49,15
867,575	49,22
867,98	49,38
868,386	48,96
868,792	49,41
869,197	49,18
869,603	49,36
870,008	48,93
870,414	49,45
870,819	49,12
871,224	49,11
871,629	49,14
872,034	48,72
872,439	49,15
872,844	48,98
873,248	48,96
873,653	49,22
874,057	48,98
874,462	49,37
874,866	49,46
875,27	49,05
875,674	49,23
876,078	49,46
876,482	49,24
876,886	48,74
877,29	48,98
877,694	49,29
878,097	48,67
878,501	48,49
878,904	48,7
879,308	48,72
879,711	48,81
880,114	49,17
880,517	49,15
880,92	49,37
881,323	49,18
881,726	49,38
882,128	49,44
882,531	48,97
882,934	48,79
883,336	49,18
883,738	48,85
884,141	49,18
884,543	48,97
884,945	49,26
885,347	49,05
885,749	48,78
886,151	49,24
886,552	49,22
886,954	48,51
887,355	48,78
887,757	48,75
888,158	48,91
888,56	48,91
888,961	49,27
889,362	49,13
889,763	49,22
890,164	49,21
890,565	48,82
890,965	49,07
891,366	49,14
891,767	49,61
892,167	49
892,567	49,24
892,968	48,79
893,368	48,67
893,768	48,87
894,168	48,61
894,568	48,27
894,968	48,71
895,368	48,7
895,767	49,02
896,167	48,67
896,566	48,72
896,966	48,91
897,365	49,24
897,764	49,13
898,164	49,3
898,563	48,99
898,962	49,14
899,361	49,43
899,759	49,32
900,158	48,63
900,557	48,89
900,955	48,59
901,354	48,45
901,752	48,74
902,15	48,54
902,548	48,92
902,947	48,86
903,345	48,85
903,742	48,44
904,14	48,91
904,538	48,92
904,936	49,27
905,333	48,73
905,731	49,17
906,128	48,63
906,525	49,41
906,923	49,35
907,32	48,87
907,717	49,08
908,114	49,3
908,511	49,25
908,907	49,53
909,304	48,95
909,701	48,86
910,097	49,21
910,494	48,62
910,89	49,26
911,286	48,54
911,682	49,24
912,078	49,07
912,474	49,36
912,87	49,03
913,266	49,08
913,662	48,91
914,058	48,81
914,453	48,94
914,849	48,84
915,244	48,75
915,639	49,32
916,034	48,53
916,43	49,37
916,825	49,43
917,22	48,91
917,614	48,99
918,009	49,31
918,404	48,63
918,798	48,84
919,193	48,9
919,587	48,64
919,982	48,58
920,376	48,85
920,77	48,92
921,164	48,82
921,558	48,7
921,952	48,8
922,346	48,33
922,74	49,17
923,133	49,3
923,527	48,67
923,92	48,82
924,314	48,55
924,707	48,48
925,1	48,62
925,493	49,22
925,886	48,35
926,279	48,76
926,672	49,13
927,065	48,49
927,457	48,67
927,85	48
928,243	48,5
928,635	49,13
929,027	49,31
929,42	48,94
929,812	48,68
930,204	49,5
930,596	49,2
930,988	48,73
931,379	48,84
931,771	49,04
932,163	48,64
932,554	48,41
932,946	48,23
933,337	48,82
933,729	49,18
934,12	48,73
934,511	48,29
934,902	48,67
935,293	48,04
935,684	48,99
936,075	49,38
936,465	49,46
936,856	48,56
937,246	49,73
937,637	49,2
938,027	48,71
938,417	48,24
938,808	48,79
939,198	47,93
939,588	49,24
939,978	48,99
940,368	48,52
940,757	48,47
941,147	49,6
941,537	48,73
941,926	50,08
942,315	49,87
942,705	48,28
943,094	48,67
943,483	48,92
943,872	48,17
944,261	49,01
944,65	48,78
945,039	49,06
945,428	49,14
945,816	48,91
946,205	49,2
946,593	49,13
946,982	48,9
947,37	49
947,758	49,05
948,146	48,83
948,534	49,18
948,922	48,83
949,31	48,12
949,698	50,09
950,086	48,65
950,473	48,44
950,861	48,89
951,248	48,55
951,636	48,84
952,023	48,05
952,41	48,33
952,797	48,73
953,184	48,68
953,571	48,55
953,958	47,7
954,345	48,3
954,731	48,76
955,118	48,48
955,505	47,83
955,891	48,31
956,277	48,76
956,664	47,62
957,05	48,2
957,436	47,73
957,822	46,98
958,208	47,7
958,594	47,88
958,979	47,84
959,365	47,92
959,751	47,61
960,136	47,78
960,522	47,63
960,907	48,34
961,292	47,86
961,677	48,77
962,062	48,12
962,447	47,83
962,832	47,77
963,217	47,88
963,602	48,24
963,986	48,5
964,371	48,16
964,756	47,76
965,14	47,94
965,524	48,07
965,908	47,71
966,293	47,49
966,677	48,39
967,061	48,76
967,445	48,03
967,828	48,55
968,212	48,12
968,596	48,17
968,979	48,45
969,363	48,62
969,746	48,12
970,129	47,93
970,513	48,42
970,896	48,32
971,279	47,98
971,662	48,55
972,045	47,36
972,428	48,46
972,81	48,58
973,193	48,24
973,575	48,24
973,958	47
974,34	47,87
974,723	47,93
975,105	47,7
975,487	48,12
975,869	47,76
976,251	48,5
976,633	47,54
977,015	48,15
977,396	47,96
977,778	48,1
978,16	48,16
978,541	47,94
978,922	48,19
979,304	48,39
979,685	48,62
980,066	48,2
980,447	47,96
980,828	48,37
981,209	48,27
981,59	47,46
981,97	47,83
982,351	47,88
982,732	47,83
983,112	48,02
983,493	48,96
983,873	48,02
984,253	47,84
984,633	48,41
985,013	48,38
985,393	48,29
985,773	48,58
986,153	48,54
986,533	48,11
986,912	48,72
987,292	48,96
987,671	47,82
988,051	49,32
988,43	47,89
988,809	47,94
989,188	48,34
989,567	48,32
989,946	48,15
990,325	48,91
990,704	48,63
991,083	48,58
991,461	49
991,84	49,04
992,218	48,29
992,597	48,94
992,975	49,08
993,353	48,8
993,732	48,36
994,11	49,3
994,488	49,16
994,866	48,06
995,243	48,83
995,621	49,13
995,999	49,05
996,376	48,78
996,754	48,5
997,131	48,81
997,509	48,64
997,886	48,64
998,263	49,13
998,64	48,4
999,017	48,93
999,394	49,1
999,771	49,27
1000,148	48,32
1000,524	48,25
1000,901	48,32
1001,277	49,81
1001,654	48,72
1002,03	49,39
1002,406	48,66
1002,783	49,33
1003,159	49,36
1003,535	48,95
1003,911	48,68
1004,286	49,23
1004,662	48,84
1005,038	49,68
1005,414	49,41
1005,789	49,01
1006,164	49,16
1006,54	49,74
1006,915	49,48
1007,29	48,87
1007,665	49,26
1008,04	49,13
1008,415	49,62
1008,79	49,16
1009,165	48,99
1009,54	50,02
1009,914	49,34
1010,289	49,14
1010,663	49,73
1011,038	49,74
1011,412	49,46
1011,786	49,55
1012,16	50,18
1012,535	48,88
1012,909	50,68
1013,282	49,94
1013,656	49,68
1014,03	49,49
1014,404	49,64
1014,777	49,04
1015,151	49,93
1015,524	50,18
1015,897	48,96
1016,271	50,39
1016,644	49,87
1017,017	50,83
1017,39	49,54
1017,763	49,25
1018,136	50,23
1018,508	50,54
1018,881	49,17
1019,254	49,54
1019,626	49,92
1019,999	49,24
1020,371	49,9
1020,743	50,05
1021,116	49,49
1021,488	50,46
1021,86	51,04
1022,232	51,19
1022,604	50,31
1022,975	51,42
1023,347	49,95
1023,719	50,84
1024,09	50,63
1024,462	50,16
1024,833	51,57
1025,204	50,72
1025,576	50,19
1025,947	50,41
1026,318	51,2
1026,689	50,59
1027,06	50,91
1027,431	51,34
1027,801	51,32
1028,172	50,43
1028,543	51,34
1028,913	51,15
1029,284	51,13
1029,654	51
1030,024	50,71
1030,394	51,24
1030,764	51,26
1031,135	51,72
1031,504	51,17
1031,874	51
1032,244	50,57
1032,614	51,41
1032,983	50,91
1033,353	50,52
1033,722	52,1
1034,092	50,68
1034,461	51,28
1034,83	50,73
1035,2	51,88
1035,569	51,88
1035,938	51,89
1036,307	52,13
1036,675	51,14
1037,044	52,5
1037,413	52,24
1037,781	51,74
1038,15	53,44
1038,518	52,66
1038,887	51,98
1039,255	52,37
1039,623	51,25
1039,991	52,57
1040,359	51,83
1040,727	52,64
1041,095	52,66
1041,463	52,65
1041,831	52,19
1042,198	50,71
1042,566	52,86
1042,933	51,93
1043,301	51,35
1043,668	51,66
1044,035	50,8
1044,402	52,79
1044,77	51,27
1045,137	52,46
1045,503	52,79
1045,87	51,26
1046,237	52,01
1046,604	53,16
1046,97	51,13
1047,337	52,8
1047,703	53,46
1048,07	52,01
1048,436	53,41
1048,802	53,19
1049,168	53,79
1049,534	53,3
1049,9	54,15
1050,266	53,74
1050,632	53,71
1050,998	53,78
1051,364	53,19
1051,729	53,99
1052,095	53,39
1052,46	53,95
1052,825	53,75
1053,191	54,45
1053,556	52,08
1053,921	52,67
1054,286	54,64
1054,651	53,83
1055,016	55
1055,381	53,06
1055,745	52,81
1056,11	54,1
1056,475	55,51
1056,839	53,84
1057,203	54,94
1057,568	54,14
1057,932	54,55
1058,296	54
1058,66	54,35
1059,024	55,62
1059,388	55,62
1059,752	54,94
1060,116	54,9
1060,48	57,52
1060,843	52,57
1061,207	54,79
1061,57	55
1061,934	54,5
1062,297	54,96
1062,66	54,91
1063,023	55,63
1063,386	55,55
1063,749	55,41
1064,112	53,68
1064,475	56,31
1064,838	55,34
1065,201	55,14
1065,563	56,37
1065,926	55,36
1066,288	54,62
1066,651	57,41
1067,013	54,39
1067,375	55,02
1067,737	56,75
1068,099	55,52
1068,461	56,03
1068,823	54,91
1069,185	54,75
1069,547	55,38
1069,909	53,02
1070,27	55,89
1070,632	55,59
1070,993	56,44
1071,355	55,02
1071,716	55,44
1072,077	57,83
1072,438	56,78
1072,799	57,28
1073,16	58,14
1073,521	55,84
1073,882	57,31
1074,243	57,74
1074,603	57,55
1074,964	55,98
1075,325	56,5
1075,685	54,39
1076,045	56,47
1076,406	57,26
1076,766	55,36
1077,126	55,63
1077,486	57,86
1077,846	56,59
1078,206	56,77
1078,566	56,05
1078,925	56,29
1079,285	56,31
1079,645	58,4
1080,004	55,19
1080,364	56,83
1080,723	56,74
1081,082	58,42
1081,442	55,76
1081,801	58,33
1082,16	56,37
1082,519	55,17
1082,878	58,86
1083,237	56,66
1083,595	59,73
1083,954	58,3
1084,313	55,63
1084,671	57,77
1085,03	56,19
1085,388	58,15
1085,746	58,69
1086,104	56,66
1086,463	57,62
1086,821	59,39
1087,179	59,13
1087,537	59,8
1087,894	58,08
1088,252	59,04
1088,61	58,03
1088,967	59,16
1089,325	58,89
1089,682	60,1
1090,04	61,19
1090,397	57,88
1090,754	61,03
1091,111	57,45
1091,469	62,58
1091,826	61,44
1092,182	61,06
1092,539	58,55
1092,896	59,69
1093,253	59,83
1093,609	59,35
1093,966	59,95
1094,322	58,14
1094,679	58,42
1095,035	60,13
1095,391	58,97
1095,748	60,34
1096,104	58,9
1096,46	62,51
1096,816	59,57
1097,171	60,65
1097,527	59,95
1097,883	62,8
1098,239	59,49
1098,594	60,12
1098,95	62,07
1099,305	60,54
1099,66	60,52
1100,016	58,02
1100,371	62,28
1100,726	60,22
1101,081	60,74
1101,436	63,77
1101,791	64,2
1102,146	60,85
1102,5	63,65
1102,855	61,93
1103,21	62,5
1103,564	61,93
1103,918	61,32
1104,273	63,78
1104,627	63,53
1104,981	59,53
1105,335	62,96
1105,69	69,37
1106,043	62,13
1106,397	61,03
1106,751	64,15
1107,105	63,04
1107,459	65,13
1107,812	66,01
1108,166	64,96
1108,519	63,99
1108,873	63,76
1109,226	69,62
1109,579	65,41
1109,932	67,6
1110,285	65,8
1110,638	69,88
1110,991	66,12
1111,344	60,85
1111,697	65,96
1112,05	65,56
1112,402	69,21
1112,755	66,08
1113,107	71,03
1113,46	70,87
1113,812	72,58
1114,164	72,18
1114,517	71,8
1114,869	173,15
1115,221	185,96
1115,573	168,18
1115,924	189,62
