Data from I2__Relative__4__00146.txt Node

Date: Wed Jan 31 18:41:09 CET 2024
User: diatiterra
Spectrometer: HDX00911
Trigger mode: 0
Integration Time (sec): 6,000000E-3
Scans to average: 2
Nonlinearity correction enabled: false
Boxcar width: 0
Storing dark spectrum: false
XAxis mode: Wavelengths
Number of Pixels in Spectrum: 2068
>>>>>Begin Spectral Data<<<<<
194,468	283,02
195,025	163,64
195,581	245,12
196,138	248,72
196,694	169,75
197,251	131,82
197,807	113,78
198,363	118,8
198,919	108,62
199,474	116,91
200,03	120,9
200,586	137,5
201,141	96,77
201,696	108,39
202,251	109,47
202,806	102,8
203,361	116,67
203,916	102,08
204,471	116,42
205,025	128,23
205,58	116,07
206,134	115,2
206,688	112,31
207,242	129,2
207,796	113,91
208,35	116,3
208,904	111,72
209,457	96,53
210,011	105,32
210,564	108,45
211,117	110,15
211,67	119,78
212,223	113,01
212,776	114,52
213,329	100
213,881	136,27
214,434	106,25
214,986	119,83
215,538	116,91
216,09	109,51
216,642	122,73
217,194	120,45
217,746	115,04
218,297	108,02
218,849	112,5
219,4	126,05
219,951	127,82
220,502	112,5
221,053	122,52
221,604	115,44
222,155	122,62
222,705	108,82
223,256	110,45
223,806	119,69
224,356	119,62
224,906	131,85
225,456	124,03
226,006	114,29
226,556	101,62
227,106	127,42
227,655	101,04
228,204	126,67
228,754	105,28
229,303	112,5
229,852	111,15
230,401	117,16
230,949	115,83
231,498	107,39
232,047	99,68
232,595	102,07
233,143	113,39
233,691	115,89
234,239	110,71
234,787	111,6
235,335	109,33
235,883	112,59
236,43	114,02
236,978	117,31
237,525	113,14
238,072	105,67
238,619	107,58
239,166	103,9
239,713	105,11
240,26	107,5
240,806	107,99
241,353	117,06
241,899	111,54
242,445	106,93
242,991	122,9
243,537	108,71
244,083	112,6
244,629	112,31
245,174	117,26
245,72	112,22
246,265	109,13
246,81	121,6
247,355	116,67
247,9	108,58
248,445	127,38
248,99	118,18
249,534	123,48
250,079	116,54
250,623	107,04
251,168	115,29
251,712	112,5
252,256	128,69
252,8	121,15
253,343	109,29
253,887	115,32
254,43	111,45
254,974	113,36
255,517	104,45
256,06	131,15
256,603	112,22
257,146	119,38
257,689	117,72
258,232	124,15
258,774	118,09
259,317	125,42
259,859	129,36
260,401	127,52
260,943	112,41
261,485	115,96
262,027	118,8
262,569	118,28
263,11	106,92
263,652	133,46
264,193	121,9
264,734	117,52
265,275	117,62
265,816	120,99
266,357	116,28
266,898	116,15
267,438	120,47
267,979	103,24
268,519	108,96
269,059	135,05
269,6	121,05
270,14	125
270,68	117,39
271,219	126,27
271,759	111,65
272,298	116,54
272,838	111,54
273,377	120,24
273,916	102,16
274,455	113,5
274,994	116,4
275,533	111,59
276,072	118,29
276,61	105,8
277,149	125,83
277,687	116,54
278,225	102,67
278,763	132,02
279,301	116,25
279,839	118,95
280,377	121,72
280,914	103,85
281,452	131,2
281,989	119,83
282,526	123,62
283,064	123,95
283,601	101,01
284,137	112,81
284,674	127,08
285,211	132,89
285,747	110,98
286,284	136,94
286,82	126,45
287,356	99,01
287,892	120,93
288,428	125,62
288,964	135,29
289,5	126,03
290,035	118
290,571	128,15
291,106	124,8
291,641	129,02
292,176	124,61
292,711	128,46
293,246	114,23
293,781	129,75
294,315	100,7
294,85	136,11
295,384	120,49
295,918	116,91
296,453	100,37
296,987	110,74
297,52	114,88
298,054	112,21
298,588	113,33
299,121	109,7
299,655	112,41
300,188	122,92
300,721	122,76
301,254	116,13
301,787	110,94
302,32	130,08
302,853	114,8
303,385	117,86
303,918	116,67
304,45	119,23
304,982	107,45
305,514	110,85
306,046	114,88
306,578	113,18
307,11	113,95
307,641	121,55
308,173	121,9
308,704	116,53
309,236	104,14
309,767	112,06
310,298	109,68
310,829	124,78
311,359	122,58
311,89	118,49
312,421	123,42
312,951	122,36
313,481	98,62
314,012	108,96
314,542	129,66
315,072	104,96
315,601	114
316,131	121,65
316,661	113,33
317,19	107,04
317,72	135,95
318,249	121,03
318,778	116,41
319,307	112,11
319,836	124,78
320,365	122,17
320,893	121,9
321,422	131,71
321,95	124,81
322,479	112,21
323,007	138,64
323,535	110
324,063	118
324,591	118,8
325,118	115,69
325,646	126,89
326,173	118,75
326,701	123,58
327,228	131,03
327,755	108,27
328,282	117,18
328,809	125,85
329,336	114,96
329,862	111,76
330,389	114,84
330,915	113,78
331,441	113,74
331,968	128,38
332,494	115,91
333,02	123,75
333,545	109,7
334,071	130,17
334,597	100,35
335,122	108,52
335,648	125,86
336,173	107,58
336,698	104,11
337,223	105,88
337,748	103,82
338,272	102,05
338,797	112,68
339,322	100
339,846	109,19
340,37	120,56
340,894	102,43
341,419	110,15
341,942	102,8
342,466	100,96
342,99	104,03
343,514	110,21
344,037	86,39
344,56	112,22
345,084	103,42
345,607	112,5
346,13	108,1
346,653	104,67
347,175	98,4
347,698	95,28
348,221	102,86
348,743	92,55
349,265	107,91
349,787	89,26
350,309	94,62
350,831	92,59
351,353	94,82
351,875	92,69
352,397	101,05
352,918	101,32
353,439	100,66
353,961	88,08
354,482	93,57
355,003	86,92
355,524	90,56
356,044	85,51
356,565	94,88
357,086	90,96
357,606	86,54
358,126	83,24
358,646	78,83
359,167	90,81
359,687	88,7
360,206	81,42
360,726	79,38
361,246	88,03
361,765	88,7
362,285	81,75
362,804	86,05
363,323	74,63
363,842	84,07
364,361	83,33
364,88	80,79
365,398	71,4
365,917	76,89
366,435	90,62
366,954	75,67
367,472	79,25
367,99	80,81
368,508	69,03
369,026	83,41
369,544	78,07
370,061	72,69
370,579	74,18
371,096	77,75
371,613	73,92
372,131	67,13
372,648	74,02
373,165	70,9
373,681	71,94
374,198	77,54
374,715	66,92
375,231	68,94
375,747	63,62
376,264	61,9
376,78	62,59
377,296	67,84
377,812	60,8
378,327	65,07
378,843	64,33
379,359	67,38
379,874	68,86
380,389	60,73
380,905	57,46
381,42	57,14
381,935	60,82
382,449	57,96
382,964	57,71
383,479	59,63
383,993	51,39
384,508	54,72
385,022	51,42
385,536	54,34
386,05	53,94
386,564	54,48
387,078	53,11
387,592	50,24
388,105	52,84
388,619	48,1
389,132	47,3
389,645	51,38
390,158	45,71
390,671	46,13
391,184	44,64
391,697	44,09
392,21	42,17
392,722	42,56
393,235	43,25
393,747	44,26
394,259	40,54
394,771	41,32
395,283	39,29
395,795	39,83
396,307	42,43
396,818	41,93
397,33	36,39
397,841	38,32
398,353	38,33
398,864	38,06
399,375	35,73
399,886	35,46
400,397	31,83
400,907	33,79
401,418	32,67
401,928	32,42
402,439	34,03
402,949	30,56
403,459	31,19
403,969	31,82
404,479	29,19
404,989	28,25
405,498	27,38
406,008	27,2
406,517	25,58
407,027	24,59
407,536	24,07
408,045	22,87
408,554	22,94
409,063	21,94
409,572	21,88
410,08	20,11
410,589	20,61
411,097	20,02
411,606	18,9
412,114	17,72
412,622	17,98
413,13	17,75
413,638	16,53
414,145	15,75
414,653	16,12
415,16	15,48
415,668	14,87
416,175	14,47
416,682	13,84
417,189	13,27
417,696	13,83
418,203	13,86
418,71	13,4
419,216	12,9
419,723	13,15
420,229	12,27
420,735	12,24
421,242	12,45
421,748	12,12
422,254	11,76
422,759	11,53
423,265	11,51
423,771	11,81
424,276	11,43
424,781	11,29
425,287	11,49
425,792	11,35
426,297	10,87
426,802	10,51
427,306	10,77
427,811	10,86
428,316	10,65
428,82	10,64
429,324	10,68
429,829	10,26
430,333	10,13
430,837	10,25
431,34	10,35
431,844	10,07
432,348	9,86
432,851	9,39
433,355	10,21
433,858	10,04
434,361	9,86
434,864	10,05
435,367	9,08
435,87	10,05
436,373	9,72
436,876	9,71
437,378	9,79
437,88	9,39
438,383	9,47
438,885	9,45
439,387	9,39
439,889	9,43
440,391	9,24
440,892	9,68
441,394	9,26
441,896	9,43
442,397	9,07
442,898	8,96
443,399	9,56
443,9	8,79
444,401	8,66
444,902	8,77
445,403	8,9
445,903	9,05
446,404	9,15
446,904	8,79
447,405	8,87
447,905	8,66
448,405	9,07
448,905	8,87
449,404	9,1
449,904	8,93
450,404	8,89
450,903	9,52
451,403	9,07
451,902	8,99
452,401	9,34
452,9	9,11
453,399	8,86
453,898	9,25
454,396	8,72
454,895	8,98
455,393	8,66
455,892	8,75
456,39	8,81
456,888	9,01
457,386	8,79
457,884	8,82
458,382	9,17
458,879	9,42
459,377	9,44
459,874	8,93
460,372	9,2
460,869	9,3
461,366	8,98
461,863	9,1
462,36	9,14
462,857	9,14
463,353	8,87
463,85	9,24
464,346	8,91
464,843	9,3
465,339	9,11
465,835	9,21
466,331	8,96
466,827	8,9
467,323	8,89
467,818	9,23
468,314	9,26
468,809	8,7
469,305	8,68
469,8	8,98
470,295	8,74
470,79	9,12
471,285	8,74
471,78	8,5
472,274	8,76
472,769	8,63
473,263	8,67
473,758	8,93
474,252	8,38
474,746	8,87
475,24	8,88
475,734	8,8
476,228	9,07
476,721	8,83
477,215	8,61
477,708	8,82
478,202	8,81
478,695	8,77
479,188	8,74
479,681	8,58
480,174	9,03
480,667	8,94
481,159	9,03
481,652	8,83
482,144	8,91
482,637	8,9
483,129	8,54
483,621	9,03
484,113	9,01
484,605	8,93
485,097	9
485,588	8,91
486,08	8,88
486,571	9,26
487,063	8,97
487,554	8,98
488,045	9,35
488,536	9,37
489,027	9,21
489,518	9,31
490,008	9,03
490,499	9,06
490,989	9,22
491,48	9,67
491,97	9,19
492,46	9,19
492,95	9,25
493,44	9,4
493,93	9,61
494,419	9,55
494,909	9,86
495,398	9,64
495,888	9,75
496,377	9,75
496,866	9,96
497,355	10,02
497,844	9,99
498,333	10,35
498,821	10,05
499,31	10,53
499,798	10,49
500,287	10,71
500,775	10,85
501,263	10,96
501,751	10,98
502,239	11,12
502,727	11,33
503,215	11,37
503,702	11,74
504,19	11,56
504,677	12,31
505,164	12,23
505,651	12,43
506,139	12,4
506,625	12,61
507,112	13,26
507,599	13,59
508,086	13,21
508,572	13,67
509,058	14,02
509,545	13,71
510,031	14,31
510,517	14,65
511,003	14,72
511,489	15,23
511,974	15,4
512,46	15,45
512,946	15,5
513,431	16,21
513,916	16,88
514,401	16,59
514,887	16,92
515,371	17,26
515,856	17,94
516,341	17,79
516,826	18,35
517,31	18,45
517,795	19,31
518,279	18,94
518,763	20,03
519,247	20,04
519,731	20,79
520,215	20,92
520,699	21,2
521,182	21,69
521,666	21,58
522,149	22,4
522,633	22,45
523,116	23,07
523,599	23,18
524,082	23,51
524,565	23,95
525,048	24,45
525,53	24,05
526,013	24,78
526,495	25,09
526,978	25,23
527,46	25,62
527,942	25,97
528,424	26,29
528,906	25,84
529,388	26,3
529,87	27,32
530,351	26,62
530,833	27,39
531,314	27,81
531,795	27,36
532,277	27,86
532,758	27,94
533,238	28,28
533,719	28,52
534,2	28,23
534,681	28,48
535,161	28,92
535,642	29,49
536,122	28,69
536,602	29,13
537,082	29,07
537,562	29,28
538,042	29,22
538,522	29,84
539,001	29,55
539,481	29,66
539,96	29,67
540,44	29,43
540,919	29,85
541,398	29,68
541,877	29,81
542,356	29,46
542,835	30,01
543,313	30,18
543,792	30,02
544,27	29,98
544,749	30,12
545,227	30,49
545,705	30,38
546,183	30,89
546,661	30,57
547,139	30,16
547,616	29,96
548,094	30,34
548,571	30,69
549,049	30,9
549,526	30,71
550,003	30,55
550,48	30,66
550,957	30,79
551,434	30,72
551,911	30,68
552,387	30,84
552,864	31,1
553,34	30,88
553,817	31,02
554,293	31,1
554,769	30,77
555,245	30,92
555,721	30,96
556,197	30,78
556,672	30,91
557,148	30,9
557,623	31,05
558,099	30,89
558,574	31,15
559,049	30,33
559,524	30,79
559,999	30,5
560,474	30,22
560,948	30,3
561,423	30,25
561,897	30,08
562,372	30,09
562,846	30,22
563,32	29,81
563,794	29,8
564,268	29,89
564,742	29,7
565,216	29,34
565,69	29,1
566,163	29
566,636	28,56
567,11	28,84
567,583	28,37
568,056	28,33
568,529	27,91
569,002	28,04
569,475	28,05
569,947	27,24
570,42	27,82
570,892	27,41
571,365	26,98
571,837	27,06
572,309	26,84
572,781	26,47
573,253	26,44
573,725	26,19
574,197	26,05
574,668	25,83
575,14	25,47
575,611	25,8
576,082	24,95
576,554	24,85
577,025	25,19
577,496	24,57
577,967	24,31
578,437	24,35
578,908	23,98
579,379	24,01
579,849	23,91
580,319	23,89
580,79	23,21
581,26	23,37
581,73	23,14
582,2	23,15
582,669	22,99
583,139	22,8
583,609	22,84
584,078	22,63
584,548	22,49
585,017	22,52
585,486	22,21
585,955	22,03
586,424	22,14
586,893	22,05
587,362	21,83
587,83	21,74
588,299	21,64
588,767	21,8
589,236	21,58
589,704	21,32
590,172	21,44
590,64	21,4
591,108	21,24
591,576	21,12
592,043	21,19
592,511	21
592,978	21,3
593,446	20,79
593,913	20,8
594,38	20,71
594,847	20,55
595,314	20,64
595,781	20,58
596,248	20,77
596,715	20,19
597,181	20,46
597,647	20,34
598,114	20,57
598,58	20,27
599,046	20,45
599,512	20,24
599,978	20,35
600,444	20,15
600,91	19,7
601,375	20,01
601,841	20,22
602,306	20,12
602,771	19,83
603,236	19,82
603,702	20,16
604,167	20,03
604,631	19,74
605,096	19,86
605,561	19,79
606,025	19,64
606,49	19,51
606,954	19,51
607,418	19,12
607,882	19,08
608,347	19,07
608,81	19,01
609,274	18,56
609,738	18,8
610,202	18,85
610,665	18,88
611,128	18,37
611,592	18,11
612,055	18,21
612,518	18,25
612,981	18,1
613,444	18,11
613,907	17,65
614,369	17,51
614,832	17,61
615,294	17,43
615,757	17,42
616,219	17,36
616,681	16,97
617,143	17,05
617,605	17,03
618,067	16,86
618,529	16,69
618,99	16,74
619,452	16,6
619,913	16,79
620,375	16,68
620,836	16,53
621,297	16,48
621,758	16,4
622,219	16,13
622,68	16,3
623,14	15,99
623,601	16,13
624,061	16,2
624,522	15,93
624,982	16,1
625,442	16,15
625,902	16,09
626,362	15,81
626,822	15,94
627,282	15,95
627,742	15,93
628,201	15,83
628,661	15,67
629,12	15,93
629,579	15,69
630,038	15,93
630,497	15,92
630,956	15,74
631,415	15,51
631,874	15,68
632,332	15,52
632,791	15,42
633,249	15,53
633,708	15,61
634,166	15,44
634,624	15,3
635,082	15,42
635,54	15,32
635,998	15,1
636,455	14,95
636,913	14,91
637,37	14,66
637,828	14,87
638,285	14,6
638,742	14,34
639,199	14,36
639,656	14,14
640,113	14,01
640,57	13,82
641,027	13,69
641,483	13,59
641,94	13,62
642,396	13,38
642,852	13,22
643,309	12,9
643,765	12,82
644,221	12,74
644,676	12,56
645,132	12,65
645,588	12,4
646,043	12,13
646,499	12,24
646,954	11,93
647,409	11,91
647,864	11,89
648,319	11,63
648,774	11,47
649,229	11,43
649,684	11,49
650,139	11,46
650,593	11,07
651,047	11,13
651,502	11,06
651,956	10,91
652,41	10,84
652,864	10,9
653,318	10,93
653,772	10,8
654,225	10,82
654,679	10,75
655,133	10,53
655,586	10,57
656,039	10,52
656,492	10,27
656,946	10,37
657,399	10,37
657,851	10,26
658,304	10,14
658,757	10,12
659,209	9,85
659,662	9,76
660,114	9,58
660,567	9,73
661,019	9,58
661,471	9,33
661,923	9,28
662,375	9,3
662,826	9,25
663,278	9,11
663,73	8,98
664,181	8,94
664,632	8,84
665,084	8,95
665,535	8,95
665,986	8,67
666,437	8,75
666,888	8,8
667,338	8,66
667,789	8,7
668,24	8,71
668,69	8,63
669,14	8,61
669,591	8,67
670,041	8,75
670,491	8,85
670,941	8,68
671,391	8,79
671,84	8,71
672,29	8,83
672,74	8,85
673,189	8,92
673,638	8,9
674,088	9,07
674,537	9,15
674,986	9,09
675,435	9,17
675,883	9,43
676,332	9,39
676,781	9,5
677,229	9,63
677,678	9,66
678,126	9,9
678,574	9,98
679,022	10,1
679,47	10,23
679,918	10,31
680,366	10,43
680,814	10,51
681,261	10,65
681,709	10,8
682,156	10,98
682,604	11,13
683,051	11,3
683,498	11,36
683,945	11,46
684,392	11,59
684,839	11,78
685,286	12,05
685,732	12,15
686,179	12,42
686,625	12,6
687,071	12,64
687,518	13,07
687,964	13,1
688,41	13,46
688,856	13,74
689,301	14,22
689,747	14,45
690,193	14,9
690,638	15
691,084	15,59
691,529	15,86
691,974	16,44
692,419	16,94
692,864	17,36
693,309	18,08
693,754	18,68
694,199	19,28
694,643	19,59
695,088	20,42
695,532	20,92
695,977	21,6
696,421	22,19
696,865	22,81
697,309	23,12
697,753	23,64
698,197	24,76
698,64	25,04
699,084	25,65
699,527	26,29
699,971	26,82
700,414	27,63
700,857	28,05
701,3	28,61
701,743	29,42
702,186	29,84
702,629	30,33
703,072	30,72
703,515	31,25
703,957	31,63
704,399	32,4
704,842	32,97
705,284	33,44
705,726	33,84
706,168	34
706,61	34,79
707,052	35,17
707,494	35,85
707,935	36,04
708,377	36,56
708,818	37,04
709,26	37,55
709,701	37,88
710,142	38,47
710,583	38,68
711,024	38,91
711,465	39,5
711,905	39,79
712,346	39,86
712,787	40,33
713,227	41,08
713,667	41,14
714,108	41,93
714,548	42,09
714,988	42,59
715,428	42,74
715,868	43,38
716,307	43,13
716,747	43,37
717,186	43,82
717,626	44,26
718,065	44,65
718,504	44,71
718,944	45,44
719,383	45,46
719,822	46,02
720,261	45,86
720,699	46,34
721,138	46,23
721,576	46,73
722,015	47,02
722,453	46,8
722,892	47,16
723,33	47,62
723,768	48,34
724,206	48,21
724,644	48,08
725,081	48,42
725,519	48,29
725,957	48,56
726,394	49,13
726,832	49,16
727,269	49,2
727,706	49,44
728,143	49,29
728,58	49,8
729,017	49,6
729,454	49,8
729,89	50,12
730,327	50,01
730,764	50,49
731,2	50,37
731,636	50,51
732,072	50,89
732,509	50,92
732,945	50,93
733,38	50,82
733,816	50,9
734,252	50,83
734,688	51,07
735,123	51,48
735,559	51,39
735,994	51,21
736,429	51,52
736,864	51,7
737,299	51,58
737,734	51,68
738,169	51,55
738,604	51,68
739,038	51,42
739,473	51,83
739,907	51,68
740,342	51,55
740,776	52,05
741,21	51,56
741,644	52,1
742,078	52,05
742,512	51,61
742,946	52,02
743,379	51,68
743,813	51,6
744,246	51,9
744,68	51,96
745,113	51,27
745,546	51,58
745,979	52,02
746,412	51,72
746,845	51,54
747,278	51,62
747,711	51,49
748,143	51,59
748,576	51,93
749,008	51,84
749,441	51,56
749,873	51,3
750,305	51,83
750,737	51,4
751,169	51,23
751,601	51,27
752,032	51,36
752,464	51,22
752,896	50,89
753,327	51,27
753,758	50,96
754,19	51,1
754,621	51,04
755,052	50,95
755,483	50,99
755,914	51,06
756,344	51,35
756,775	51,02
757,206	50,92
757,636	51,06
758,066	50,9
758,497	50,71
758,927	50,92
759,357	50,8
759,787	50,7
760,217	50,61
760,647	50,63
761,076	50,46
761,506	50,39
761,935	50,55
762,365	50,27
762,794	50,13
763,223	50,6
763,653	50,38
764,082	50,03
764,51	50,44
764,939	50,38
765,368	50,17
765,797	50,45
766,225	50,04
766,654	49,88
767,082	49,84
767,51	50,03
767,938	49,92
768,367	49,84
768,795	49,7
769,222	50,05
769,65	50,1
770,078	49,48
770,505	49,96
770,933	49,88
771,36	49,81
771,788	50,01
772,215	49,82
772,642	49,92
773,069	49,63
773,496	49,48
773,923	49,29
774,349	49,45
774,776	49,46
775,203	49,44
775,629	49,56
776,055	49,28
776,482	49,44
776,908	49,2
777,334	49,28
777,76	49,39
778,186	49,62
778,611	49,92
779,037	49,44
779,463	49,35
779,888	49,42
780,314	49,45
780,739	49,63
781,164	49,36
781,589	49,11
782,014	49,24
782,439	49,06
782,864	49,52
783,289	49,32
783,713	48,85
784,138	49,13
784,562	48,9
784,987	48,97
785,411	48,68
785,835	48,89
786,259	49,2
786,683	49,45
787,107	49,12
787,531	49,25
787,954	48,96
788,378	49,06
788,802	49,28
789,225	48,98
789,648	49,09
790,071	48,38
790,495	48,88
790,918	49,13
791,34	48,92
791,763	48,5
792,186	48,83
792,609	48,71
793,031	48,62
793,454	49,08
793,876	49,31
794,298	48,8
794,721	48,62
795,143	49,38
795,565	48,68
795,986	48,54
796,408	48,81
796,83	48,53
797,252	48,6
797,673	49,18
798,094	49,06
798,516	48,95
798,937	48,85
799,358	48,52
799,779	48,83
800,2	48,84
800,621	48,37
801,042	48,58
801,462	48,73
801,883	48,41
802,303	48,4
802,724	48,5
803,144	48,77
803,564	48,66
803,984	48,88
804,404	48,85
804,824	48,74
805,244	49,02
805,664	49,26
806,084	49,11
806,503	48,87
806,923	48,42
807,342	48,78
807,761	48,56
808,18	48,55
808,599	48,5
809,018	48,72
809,437	48,65
809,856	48,7
810,275	48,68
810,693	48,73
811,112	48,98
811,53	48,6
811,949	48,67
812,367	48,9
812,785	48,85
813,203	48,71
813,621	48,61
814,039	48,47
814,457	48,8
814,874	48,34
815,292	48,44
815,709	48,43
816,127	48,59
816,544	48,69
816,961	48,76
817,378	49,18
817,795	48,7
818,212	48,64
818,629	49,03
819,046	48,49
819,462	48,52
819,879	48,43
820,295	48,28
820,712	48,46
821,128	48,17
821,544	48,51
821,96	48,62
822,376	48,68
822,792	48,68
823,208	48,5
823,624	48,63
824,039	48,39
824,455	48,75
824,87	48,31
825,286	48,41
825,701	48,11
826,116	48,33
826,531	48,59
826,946	48,22
827,361	48,12
827,776	48,49
828,19	47,89
828,605	48,29
829,02	48,15
829,434	48,16
829,848	48,75
830,263	48,51
830,677	48,28
831,091	48,38
831,505	48,32
831,919	48,38
832,332	48,34
832,746	48,41
833,16	48,04
833,573	48,36
833,987	48,44
834,4	47,97
834,813	47,61
835,226	48,03
835,639	48,33
836,052	47,87
836,465	48,43
836,878	48,37
837,29	48,34
837,703	48,21
838,116	48,23
838,528	48,27
838,94	48,33
839,352	48,12
839,765	48,38
840,177	48,24
840,589	47,67
841	47,87
841,412	48,05
841,824	48,07
842,235	47,87
842,647	48,11
843,058	48,32
843,47	48,03
843,881	48,27
844,292	47,98
844,703	48,16
845,114	47,99
845,525	48,51
845,935	48,29
846,346	48,25
846,757	48,07
847,167	47,82
847,577	47,66
847,988	48,23
848,398	48
848,808	48,29
849,218	48,27
849,628	48,02
850,038	48,18
850,448	48,22
850,857	48,23
851,267	48,46
851,676	47,98
852,086	48,44
852,495	48,14
852,904	48,08
853,313	47,75
853,722	47,76
854,131	48,15
854,54	47,72
854,949	47,44
855,357	47,85
855,766	47,9
856,174	47,65
856,583	47,93
856,991	47,77
857,399	48,19
857,807	48,02
858,215	47,91
858,623	48,34
859,031	47,96
859,439	48,14
859,846	47,83
860,254	47,91
860,661	48,42
861,069	48,2
861,476	48,07
861,883	47,71
862,29	47,41
862,697	48,07
863,104	47,81
863,511	47,6
863,918	47,51
864,325	47,89
864,731	47,77
865,138	47,43
865,544	47,63
865,95	47,94
866,357	47,73
866,763	48,18
867,169	48,06
867,575	48,07
867,98	48,03
868,386	47,68
868,792	48,25
869,197	47,85
869,603	47,99
870,008	47,68
870,414	48,01
870,819	47,36
871,224	47,61
871,629	47,68
872,034	47,65
872,439	47,13
872,844	48,09
873,248	48,03
873,653	48,09
874,057	47,79
874,462	48,23
874,866	48,23
875,27	48,27
875,674	48,44
876,078	48,02
876,482	48,06
876,886	47,66
877,29	47,8
877,694	47,9
878,097	47,63
878,501	47,53
878,904	47,21
879,308	47,62
879,711	47,55
880,114	47,85
880,517	47,64
880,92	48,03
881,323	48,12
881,726	48,32
882,128	47,97
882,531	47,97
882,934	47,92
883,336	47,91
883,738	48,02
884,141	47,93
884,543	47,65
884,945	47,89
885,347	47,8
885,749	47,82
886,151	48,13
886,552	47,95
886,954	47,47
887,355	48,01
887,757	47,49
888,158	47,56
888,56	47,61
888,961	47,88
889,362	47,8
889,763	47,76
890,164	48,17
890,565	47,85
890,965	47,62
891,366	47,98
891,767	47,97
892,167	47,81
892,567	47,73
892,968	47,83
893,368	47,45
893,768	47,33
894,168	47,92
894,568	47,53
894,968	47,47
895,368	47,43
895,767	47,43
896,167	47,45
896,566	47,84
896,966	48,03
897,365	48,13
897,764	47,9
898,164	47,97
898,563	47,75
898,962	47,91
899,361	47,94
899,759	47,79
900,158	47,59
900,557	47,62
900,955	47,81
901,354	47,71
901,752	47,49
902,15	47,18
902,548	47,62
902,947	47,55
903,345	48,02
903,742	47,72
904,14	48,03
904,538	48,16
904,936	48,11
905,333	47,48
905,731	47,95
906,128	47,63
906,525	47,77
906,923	48,17
907,32	47,89
907,717	48,09
908,114	48,04
908,511	47,75
908,907	47,9
909,304	47,99
909,701	47,68
910,097	47,95
910,494	47,48
910,89	47,96
911,286	47,64
911,682	47,71
912,078	48,11
912,474	48
912,87	47,84
913,266	47,61
913,662	47,4
914,058	47,55
914,453	47,23
914,849	47,47
915,244	47,57
915,639	48,02
916,034	47,73
916,43	48,44
916,825	47,95
917,22	47,55
917,614	48,18
918,009	47,82
918,404	47,43
918,798	47,4
919,193	47,53
919,587	47,46
919,982	47,54
920,376	47,28
920,77	48,07
921,164	47,68
921,558	47,74
921,952	47,93
922,346	47,69
922,74	47,58
923,133	47,84
923,527	47,96
923,92	47,57
924,314	47,32
924,707	47,86
925,1	48,07
925,493	48,3
925,886	47,41
926,279	47,45
926,672	48
927,065	47,9
927,457	47,98
927,85	47,09
928,243	47,25
928,635	48,06
929,027	47,84
929,42	47,99
929,812	47,11
930,204	48,29
930,596	47,97
930,988	47,69
931,379	47,77
931,771	48,32
932,163	47,69
932,554	47,73
932,946	47,31
933,337	47,61
933,729	47,89
934,12	47,42
934,511	47,75
934,902	48,05
935,293	46,91
935,684	47,72
936,075	48,5
936,465	47,8
936,856	47,34
937,246	48
937,637	47,93
938,027	47,35
938,417	47,86
938,808	47,55
939,198	47,47
939,588	48,07
939,978	47,57
940,368	47,7
940,757	49,2
941,147	47,94
941,537	48,44
941,926	49,13
942,315	49,05
942,705	47,7
943,094	48,25
943,483	47,15
943,872	47,55
944,261	47,62
944,65	47,6
945,039	48,78
945,428	48,19
945,816	48,13
946,205	47,7
946,593	47,9
946,982	48,43
947,37	48,45
947,758	48,24
948,146	48,13
948,534	48,35
948,922	48,09
949,31	47,8
949,698	48,34
950,086	47,57
950,473	47,33
950,861	48,69
951,248	48,11
951,636	47,35
952,023	47,95
952,41	47,66
952,797	47,55
953,184	47,61
953,571	47,79
953,958	47,03
954,345	47
954,731	47,97
955,118	47,52
955,505	47,52
955,891	47,26
956,277	47,67
956,664	47,56
957,05	47,16
957,436	47,12
957,822	47,23
958,208	46,94
958,594	46,84
958,979	46,99
959,365	47,18
959,751	47,06
960,136	47,08
960,522	47,37
960,907	47,14
961,292	46,87
961,677	47,2
962,062	47
962,447	47,61
962,832	47,2
963,217	46,9
963,602	47,67
963,986	47,48
964,371	46,89
964,756	46,8
965,14	47,09
965,524	47,67
965,908	46,92
966,293	46,82
966,677	47,05
967,061	47,96
967,445	47,33
967,828	47,19
968,212	47,32
968,596	47,11
968,979	47,79
969,363	47,77
969,746	47,09
970,129	47,08
970,513	47,29
970,896	46,59
971,279	46,49
971,662	46,82
972,045	46,98
972,428	47,89
972,81	47,44
973,193	47,62
973,575	46,95
973,958	46,11
974,34	47,1
974,723	47,43
975,105	46,93
975,487	47,48
975,869	47,32
976,251	47,48
976,633	47,05
977,015	47,39
977,396	46,87
977,778	47,45
978,16	47,68
978,541	47,23
978,922	47,4
979,304	47,99
979,685	47,89
980,066	47,18
980,447	47,67
980,828	47,94
981,209	47,16
981,59	47,57
981,97	47,12
982,351	47,38
982,732	47,42
983,112	47,41
983,493	47,77
983,873	47,27
984,253	47,79
984,633	47,31
985,013	47,36
985,393	47,99
985,773	47,76
986,153	47,52
986,533	47,25
986,912	47,83
987,292	48
987,671	47,65
988,051	47,72
988,43	47,51
988,809	47,21
989,188	48,42
989,567	47,96
989,946	47,7
990,325	48,02
990,704	47,79
991,083	48,24
991,461	47,99
991,84	48,34
992,218	47,78
992,597	48,5
992,975	47,94
993,353	47,95
993,732	47,7
994,11	48,63
994,488	48,25
994,866	47,58
995,243	47,79
995,621	47,98
995,999	47,88
996,376	48,21
996,754	48,02
997,131	47,92
997,509	47,8
997,886	47,46
998,263	48,05
998,64	46,94
999,017	48
999,394	48,78
999,771	47,9
1000,148	47,86
1000,524	48,07
1000,901	48,73
1001,277	48,14
1001,654	48,61
1002,03	48,53
1002,406	47,96
1002,783	48,62
1003,159	47,56
1003,535	48,63
1003,911	48,37
1004,286	48,81
1004,662	48,1
1005,038	48,26
1005,414	49,15
1005,789	48,87
1006,164	48,21
1006,54	48,45
1006,915	48,66
1007,29	47,7
1007,665	48,38
1008,04	48,34
1008,415	48,68
1008,79	48,42
1009,165	47,66
1009,54	48,7
1009,914	48,76
1010,289	48,86
1010,663	48,11
1011,038	48,88
1011,412	48,38
1011,786	48,69
1012,16	49,46
1012,535	48,31
1012,909	49,9
1013,282	49,45
1013,656	49,38
1014,03	48,43
1014,404	48,94
1014,777	48,13
1015,151	49,13
1015,524	49,36
1015,897	48,99
1016,271	48,93
1016,644	49,19
1017,017	49,09
1017,39	48,38
1017,763	49,21
1018,136	48,69
1018,508	48,74
1018,881	48,54
1019,254	48,44
1019,626	48,05
1019,999	49,28
1020,371	48,61
1020,743	49,32
1021,116	49,04
1021,488	49,75
1021,86	50,94
1022,232	50,03
1022,604	48,87
1022,975	49,88
1023,347	49,22
1023,719	49,84
1024,09	50,03
1024,462	49,04
1024,833	50,18
1025,204	50,41
1025,576	49,5
1025,947	48,87
1026,318	49,48
1026,689	50,97
1027,06	50,01
1027,431	50,73
1027,801	50,19
1028,172	49,91
1028,543	50,43
1028,913	51,13
1029,284	49,48
1029,654	50,65
1030,024	49,95
1030,394	50,52
1030,764	50,37
1031,135	49,5
1031,504	49,22
1031,874	49,5
1032,244	50,2
1032,614	49,59
1032,983	50,16
1033,353	49,75
1033,722	50,9
1034,092	50,76
1034,461	50,58
1034,83	49,83
1035,2	50,73
1035,569	50,75
1035,938	50,17
1036,307	50,39
1036,675	49,48
1037,044	51,55
1037,413	50,94
1037,781	50,88
1038,15	51,96
1038,518	51,14
1038,887	51,01
1039,255	51,57
1039,623	50,06
1039,991	50,74
1040,359	50,02
1040,727	50,75
1041,095	51,58
1041,463	51,76
1041,831	51,61
1042,198	50,16
1042,566	52,01
1042,933	51,54
1043,301	51,59
1043,668	51,14
1044,035	50,71
1044,402	51,85
1044,77	51,33
1045,137	50,88
1045,503	51,58
1045,87	51,41
1046,237	52,15
1046,604	52,66
1046,97	50,42
1047,337	52,21
1047,703	52,22
1048,07	51,59
1048,436	53,1
1048,802	52,64
1049,168	53,98
1049,534	50,96
1049,9	53,57
1050,266	53,85
1050,632	51,51
1050,998	52,35
1051,364	52,76
1051,729	53,77
1052,095	52,19
1052,46	52,01
1052,825	54,21
1053,191	53,1
1053,556	52,35
1053,921	51,51
1054,286	52,73
1054,651	52,72
1055,016	52,98
1055,381	53,46
1055,745	51,79
1056,11	52,98
1056,475	53,92
1056,839	52,74
1057,203	53,39
1057,568	53,48
1057,932	53,04
1058,296	53,53
1058,66	53,34
1059,024	54,33
1059,388	54,25
1059,752	53,45
1060,116	54,19
1060,48	55,72
1060,843	53,7
1061,207	53,88
1061,57	54,06
1061,934	55,2
1062,297	54,06
1062,66	54,19
1063,023	55,37
1063,386	55,74
1063,749	54,28
1064,112	54,69
1064,475	54,9
1064,838	53,94
1065,201	54,24
1065,563	54,55
1065,926	52,63
1066,288	54,85
1066,651	55,4
1067,013	55,05
1067,375	55,28
1067,737	55,54
1068,099	54,2
1068,461	54,97
1068,823	54,85
1069,185	54,52
1069,547	55,9
1069,909	53,25
1070,27	55,43
1070,632	53,85
1070,993	55,73
1071,355	56,52
1071,716	54,19
1072,077	54,08
1072,438	54,6
1072,799	54,82
1073,16	56,83
1073,521	54,19
1073,882	57,05
1074,243	56,32
1074,603	55,36
1074,964	54,06
1075,325	55,49
1075,685	53,6
1076,045	54,83
1076,406	55,87
1076,766	55,01
1077,126	56,11
1077,486	57,92
1077,846	57,13
1078,206	56,95
1078,566	54,41
1078,925	55,8
1079,285	54,66
1079,645	56,39
1080,004	54,5
1080,364	56,28
1080,723	55,07
1081,082	56,75
1081,442	55,16
1081,801	56,97
1082,16	56,18
1082,519	55,95
1082,878	57,64
1083,237	55,68
1083,595	56,84
1083,954	55,86
1084,313	55,84
1084,671	56,08
1085,03	55,35
1085,388	55,96
1085,746	56,38
1086,104	56,81
1086,463	57,19
1086,821	57,28
1087,179	58,08
1087,537	58,93
1087,894	57,77
1088,252	57,12
1088,61	57,15
1088,967	57,98
1089,325	59,65
1089,682	58,06
1090,04	60,48
1090,397	58,24
1090,754	59,12
1091,111	54,4
1091,469	60,49
1091,826	58,16
1092,182	59,04
1092,539	58
1092,896	60,71
1093,253	59,91
1093,609	59,39
1093,966	58,52
1094,322	57,87
1094,679	59,16
1095,035	60,13
1095,391	57,82
1095,748	59,21
1096,104	59,84
1096,46	62,61
1096,816	60,06
1097,171	60,06
1097,527	62,25
1097,883	62,9
1098,239	57,67
1098,594	59,5
1098,95	60,34
1099,305	61,61
1099,66	60,04
1100,016	57,91
1100,371	61,68
1100,726	60,76
1101,081	56,35
1101,436	61,83
1101,791	62,82
1102,146	62,15
1102,5	62,47
1102,855	60,94
1103,21	61,34
1103,564	62,17
1103,918	62,53
1104,273	62,84
1104,627	64,6
1104,981	57,35
1105,335	60,11
1105,69	64,34
1106,043	60,77
1106,397	61,55
1106,751	63,22
1107,105	62,7
1107,459	65,69
1107,812	63,68
1108,166	67,49
1108,519	62,97
1108,873	63,02
1109,226	69,62
1109,579	62,37
1109,932	64,64
1110,285	64,34
1110,638	68,87
1110,991	66,2
1111,344	59,73
1111,697	68,09
1112,05	63,01
1112,402	70,24
1112,755	63,97
1113,107	69,19
1113,46	69,25
1113,812	70,59
1114,164	68,92
1114,517	71,26
1114,869	167,59
1115,221	177,19
1115,573	161,36
1115,924	198,11
