Data from I4__Relative__0__00150.txt Node

Date: Wed Jan 31 18:41:57 CET 2024
User: diatiterra
Spectrometer: HDX00911
Trigger mode: 0
Integration Time (sec): 6,000000E-3
Scans to average: 2
Nonlinearity correction enabled: false
Boxcar width: 0
Storing dark spectrum: false
XAxis mode: Wavelengths
Number of Pixels in Spectrum: 2068
>>>>>Begin Spectral Data<<<<<
194,468	266,98
195,025	170
195,581	236,59
196,138	252,56
196,694	155,56
197,251	131,82
197,807	117,72
198,363	108,4
198,919	102,76
199,474	105,51
200,03	118,44
200,586	122,77
201,141	91,29
201,696	99,33
202,251	106,44
202,806	97,2
203,361	112,22
203,916	100
204,471	104,01
205,025	121,37
205,58	105,71
206,134	110,4
206,688	105,38
207,242	116,37
207,796	104,89
208,35	105,07
208,904	105,52
209,457	91,32
210,011	96,1
210,564	101,76
211,117	112,41
211,67	110,45
212,223	95,21
212,776	119,76
213,329	97,67
213,881	134,31
214,434	94,41
214,986	127,27
215,538	111,4
216,09	97,18
216,642	125,62
217,194	110,98
217,746	103,38
218,297	108,02
218,849	110,66
219,4	113,87
219,951	104,84
220,502	105,07
221,053	119,08
221,604	107,72
222,155	108,33
222,705	102,94
223,256	109,7
223,806	113,39
224,356	113,08
224,906	113,71
225,456	115,5
226,006	104,76
226,556	86,04
227,106	117,34
227,655	97,57
228,204	113,75
228,754	105,28
229,303	97,14
229,852	96,4
230,401	101,87
230,949	105,04
231,498	95,42
232,047	94,81
232,595	104,14
233,143	111,42
233,691	101,94
234,239	102,5
234,787	111,6
235,335	114,18
235,883	102,1
236,43	105,3
236,978	110,77
237,525	102,19
238,072	94,33
238,619	106,44
239,166	103,55
239,713	101,82
240,26	99,64
240,806	102,78
241,353	100
241,899	103,85
242,445	102,92
242,991	107,25
243,537	100,76
244,083	117,18
244,629	108,08
245,174	112,83
245,72	108,52
246,265	98,41
246,81	108,8
247,355	118,25
247,9	95,52
248,445	112,7
248,99	106,06
249,534	123,91
250,079	104,51
250,623	105,93
251,168	112,81
251,712	109,38
252,256	107,38
252,8	119,62
253,343	100
253,887	110,08
254,43	108,02
254,974	106,87
255,517	96,58
256,06	119,23
256,603	100
257,146	104,26
257,689	109,45
258,232	121,61
258,774	116,31
259,317	116,95
259,859	120,18
260,401	115,89
260,943	97,16
261,485	101,42
262,027	110,8
262,569	107,09
263,11	105,38
263,652	125,98
264,193	109,92
264,734	112,41
265,275	113,11
265,816	100,76
266,357	109,3
266,898	113,46
267,438	111,42
267,979	104,32
268,519	101,12
269,059	123,83
269,6	110,15
270,14	113,71
270,68	106,88
271,219	120,76
271,759	95,86
272,298	106,39
272,838	108,08
273,377	112,3
273,916	96,04
274,455	105,84
274,994	103,6
275,533	107,61
276,072	108,94
276,61	100
277,149	120,42
277,687	107,52
278,225	96,33
278,763	126,75
279,301	113,75
279,839	114,52
280,377	119,26
280,914	97,9
281,452	123,5
281,989	107,02
282,526	104,72
283,064	116,39
283,601	98,31
284,137	112,81
284,674	110,42
285,211	130,7
285,747	109,47
286,284	119,82
286,82	108,68
287,356	90,13
287,892	115,89
288,428	111,98
288,964	124,37
289,5	112,81
290,035	114,4
290,571	113,87
291,106	113,01
291,641	122,32
292,176	103,52
292,711	110,16
293,246	115
293,781	119,42
294,315	93,66
294,85	119,91
295,384	111,89
295,918	106,99
296,453	93,28
296,987	98,76
297,52	115,29
298,054	104,96
298,588	105,42
299,121	107,46
299,655	104,74
300,188	107,92
300,721	110,16
301,254	112,9
301,787	114,84
302,32	123,98
302,853	112,4
303,385	107,5
303,918	112,02
304,45	107,31
304,982	98,58
305,514	99,61
306,046	107,85
306,578	100,39
307,11	105,81
307,641	119,83
308,173	109,92
308,704	107,85
309,236	99,62
309,767	104,61
310,298	100
310,829	110
311,359	118,15
311,89	110,08
312,421	122,52
312,951	105,69
313,481	96,55
314,012	98,88
314,542	116,95
315,072	104,96
315,601	110,4
316,131	116,93
316,661	101,67
317,19	107,41
317,72	113,22
318,249	113,89
318,778	112,11
319,307	109,77
319,836	115,04
320,365	112,17
320,893	105,79
321,422	119,51
321,95	111,28
322,479	106,49
323,007	121,36
323,535	101,43
324,063	102,4
324,591	110
325,118	110,58
325,646	112,18
326,173	110,42
326,701	109,35
327,228	118,53
327,755	104,51
328,282	97,71
328,809	114,41
329,336	105,12
329,862	108,09
330,389	95,7
330,915	104,72
331,441	108,4
331,968	112,16
332,494	95,83
333,02	105,83
333,545	101,87
334,071	119,42
334,597	91,9
335,122	97,41
335,648	112,5
336,173	97,35
336,698	96,2
337,223	98,16
337,748	93,75
338,272	94,86
338,797	96,38
339,322	95,26
339,846	93,75
340,37	110,89
340,894	93,4
341,419	95,11
341,942	90,91
342,466	89,74
342,99	87,92
343,514	95,42
344,037	90,19
344,56	103,7
345,084	92,81
345,607	92,36
346,13	95,42
346,653	90,67
347,175	90,38
347,698	86,79
348,221	90,71
348,743	90,68
349,265	89,93
349,787	89,88
350,309	85,76
350,831	79,63
351,353	88,72
351,875	80,12
352,397	97,2
352,918	88,82
353,439	86,09
353,961	81,4
354,482	83,33
355,003	87,5
355,524	81,67
356,044	77,27
356,565	86,75
357,086	79,1
357,606	73,35
358,126	77,93
358,646	70,92
359,167	85,41
359,687	77,12
360,206	80,33
360,726	68,01
361,246	77,66
361,765	76,27
362,285	67,25
362,804	74,74
363,323	63,9
363,842	73,08
364,361	70,65
364,88	68,72
365,398	68,12
365,917	67,22
366,435	73,96
366,954	69,64
367,472	62,74
367,99	67,77
368,508	60,93
369,026	70,68
369,544	63,82
370,061	62,61
370,579	60,25
371,096	66,51
371,613	60,13
372,131	57,87
372,648	57,09
373,165	60,16
373,681	58,02
374,198	60,74
374,715	58,08
375,231	56,25
375,747	52,93
376,264	50,68
376,78	52,88
377,296	57,81
377,812	50,83
378,327	51,32
378,843	54,44
379,359	52,65
379,874	53,63
380,389	47,16
380,905	45,97
381,42	45,29
381,935	48,63
382,449	43,95
382,964	44,71
383,479	44,54
383,993	47,78
384,508	42,65
385,022	38,99
385,536	43,82
386,05	41,47
386,564	41,29
387,078	41,51
387,592	38,93
388,105	39,83
388,619	36,05
389,132	35,62
389,645	39,2
390,158	33,91
390,671	36,66
391,184	31,68
391,697	31,76
392,21	31,42
392,722	31,65
393,235	31,8
393,747	32,78
394,259	32,58
394,771	30,07
395,283	30,68
395,795	30,22
396,307	31,68
396,818	30,61
397,33	27,55
397,841	28,85
398,353	27
398,864	29,02
399,375	26,96
399,886	26,26
400,397	26,24
400,907	25
401,418	25,16
401,928	24,35
402,439	24,08
402,949	21,31
403,459	21,1
403,969	22,85
404,479	21,4
404,989	20,75
405,498	19,8
406,008	20,27
406,517	18,17
407,027	17,2
407,536	16,91
408,045	16,9
408,554	17,28
409,063	16,05
409,572	15,25
410,08	15,28
410,589	14,66
411,097	13,54
411,606	14,17
412,114	13,09
412,622	12,24
413,13	12,81
413,638	12,48
414,145	10,79
414,653	11,52
415,16	11,33
415,668	10,65
416,175	10,21
416,682	10,23
417,189	8,9
417,696	9,83
418,203	9,89
418,71	9,5
419,216	9,19
419,723	9,05
420,229	8,73
420,735	8,54
421,242	8,61
421,748	8,78
422,254	8,91
422,759	8,01
423,265	8,41
423,771	8,39
424,276	8,07
424,781	7,53
425,287	8,08
425,792	7,73
426,297	7,92
426,802	7,29
427,306	7,49
427,811	7,72
428,316	7,56
428,82	7,35
429,324	6,99
429,829	7,09
430,333	6,76
430,837	6,89
431,34	6,88
431,844	6,88
432,348	6,58
432,851	6,59
433,355	6,78
433,858	6,58
434,361	6,03
434,864	6,53
435,367	6,22
435,87	6,85
436,373	6,66
436,876	6,72
437,378	6,41
437,88	6,12
438,383	6,25
438,885	6,73
439,387	6,33
439,889	6,43
440,391	6,04
440,892	6,21
441,394	5,98
441,896	6,27
442,397	6,26
442,898	5,96
443,399	6,29
443,9	5,99
444,401	5,71
444,902	6,04
445,403	6,25
445,903	5,85
446,404	6,07
446,904	5,74
447,405	5,62
447,905	5,85
448,405	5,96
448,905	6,34
449,404	5,74
449,904	5,98
450,404	5,62
450,903	5,87
451,403	5,7
451,902	5,86
452,401	5,83
452,9	5,7
453,399	5,71
453,898	5,7
454,396	5,86
454,895	5,87
455,393	5,5
455,892	5,4
456,39	5,87
456,888	5,8
457,386	5,73
457,884	5,76
458,382	5,71
458,879	5,8
459,377	5,92
459,874	5,84
460,372	5,63
460,869	5,74
461,366	5,6
461,863	5,52
462,36	6,01
462,857	5,7
463,353	5,59
463,85	5,56
464,346	5,31
464,843	5,58
465,339	5,55
465,835	5,69
466,331	5,54
466,827	5,5
467,323	5,37
467,818	5,64
468,314	5,53
468,809	5,63
469,305	5,38
469,8	5,44
470,295	5,49
470,79	5,44
471,285	5,43
471,78	5,06
472,274	5,36
472,769	5,25
473,263	5,34
473,758	5,36
474,252	5,03
474,746	5,44
475,24	5,35
475,734	5,13
476,228	5,29
476,721	5,24
477,215	5,37
477,708	5,43
478,202	5,23
478,695	5,29
479,188	5,14
479,681	5,19
480,174	5,37
480,667	5,46
481,159	5,4
481,652	5,03
482,144	5,51
482,637	5,52
483,129	4,95
483,621	5,27
484,113	5,4
484,605	5,21
485,097	5,24
485,588	5,26
486,08	5,19
486,571	5,57
487,063	5,34
487,554	5,21
488,045	5,49
488,536	5,35
489,027	5,3
489,518	5,32
490,008	5,19
490,499	5,28
490,989	5,27
491,48	5,33
491,97	5,39
492,46	5,53
492,95	5,39
493,44	5,59
493,93	5,49
494,419	5,51
494,909	5,63
495,398	5,51
495,888	5,62
496,377	5,76
496,866	5,8
497,355	5,77
497,844	5,73
498,333	5,87
498,821	5,67
499,31	5,93
499,798	6,02
500,287	5,98
500,775	6,2
501,263	6,26
501,751	6,06
502,239	6,14
502,727	6,4
503,215	6,38
503,702	6,53
504,19	6,51
504,677	6,66
505,164	7,04
505,651	6,78
506,139	6,86
506,625	6,79
507,112	7,2
507,599	7,42
508,086	7,55
508,572	7,65
509,058	7,94
509,545	7,76
510,031	8
510,517	8,18
511,003	8,26
511,489	8,49
511,974	8,71
512,46	8,84
512,946	9,05
513,431	9,18
513,916	9,62
514,401	9,5
514,887	9,77
515,371	10,16
515,856	10,49
516,341	10,44
516,826	10,53
517,31	10,65
517,795	11,18
518,279	11,24
518,763	11,54
519,247	11,91
519,731	12,36
520,215	12,29
520,699	12,73
521,182	12,93
521,666	13,3
522,149	13,5
522,633	13,65
523,116	14,07
523,599	14,22
524,082	14,17
524,565	14,55
525,048	14,8
525,53	15,06
526,013	15,25
526,495	15,44
526,978	15,89
527,46	15,95
527,942	15,9
528,424	16,68
528,906	16,45
529,388	16,97
529,87	17,05
530,351	16,9
530,833	17,32
531,314	17,27
531,795	17,4
532,277	18,15
532,758	18,1
533,238	18,01
533,719	18,11
534,2	18,06
534,681	18,44
535,161	18,79
535,642	18,58
536,122	18,36
536,602	18,55
537,082	18,56
537,562	18,98
538,042	18,97
538,522	18,84
539,001	18,74
539,481	18,93
539,96	19,01
540,44	19,16
540,919	19,05
541,398	19,12
541,877	19,27
542,356	19,1
542,835	19,21
543,313	19,27
543,792	19,56
544,27	19,32
544,749	19,49
545,227	19,23
545,705	19,45
546,183	19,63
546,661	19,65
547,139	19,64
547,616	19,44
548,094	19,67
548,571	19,79
549,049	20,22
549,526	19,72
550,003	20,05
550,48	19,56
550,957	19,74
551,434	19,9
551,911	19,77
552,387	19,83
552,864	20,17
553,34	20,18
553,817	20,06
554,293	19,89
554,769	19,63
555,245	20,11
555,721	19,97
556,197	20
556,672	20,06
557,148	19,89
557,623	20,03
558,099	19,34
558,574	19,53
559,049	19,39
559,524	19,95
559,999	19,52
560,474	19,53
560,948	19,29
561,423	19,08
561,897	19,14
562,372	19,28
562,846	19,08
563,32	18,87
563,794	18,81
564,268	18,82
564,742	18,76
565,216	18,34
565,69	18,44
566,163	18,51
566,636	17,83
567,11	18
567,583	17,84
568,056	17,88
568,529	17,85
569,002	17,41
569,475	17,7
569,947	17,01
570,42	17,06
570,892	16,86
571,365	16,76
571,837	16,63
572,309	16,55
572,781	16,26
573,253	15,95
573,725	16,02
574,197	15,76
574,668	15,68
575,14	15,45
575,611	15,35
576,082	15,17
576,554	14,84
577,025	15,12
577,496	14,89
577,967	14,73
578,437	14,75
578,908	14,4
579,379	14,38
579,849	14,31
580,319	14,46
580,79	13,96
581,26	13,98
581,73	13,66
582,2	13,83
582,669	13,82
583,139	13,75
583,609	13,62
584,078	13,59
584,548	13,12
585,017	13,39
585,486	13,22
585,955	13,03
586,424	12,85
586,893	12,96
587,362	13,04
587,83	12,92
588,299	12,72
588,767	12,59
589,236	12,73
589,704	12,39
590,172	12,59
590,64	12,52
591,108	12,29
591,576	12,25
592,043	12,25
592,511	12,32
592,978	12,41
593,446	12,15
593,913	12,12
594,38	11,95
594,847	12,02
595,314	12,02
595,781	11,88
596,248	11,76
596,715	12,06
597,181	11,75
597,647	11,82
598,114	11,87
598,58	11,56
599,046	11,8
599,512	11,75
599,978	11,69
600,444	11,63
600,91	11,38
601,375	11,51
601,841	11,62
602,306	11,67
602,771	11,45
603,236	11,49
603,702	11,47
604,167	11,5
604,631	11,35
605,096	11,23
605,561	11,16
606,025	11,07
606,49	10,92
606,954	11,04
607,418	10,89
607,882	11,03
608,347	10,59
608,81	10,75
609,274	10,68
609,738	10,48
610,202	10,66
610,665	10,58
611,128	10,47
611,592	10,3
612,055	10,25
612,518	10,15
612,981	10,13
613,444	10
613,907	9,9
614,369	9,92
614,832	9,73
615,294	9,52
615,757	9,66
616,219	9,69
616,681	9,4
617,143	9,48
617,605	9,31
618,067	9,22
618,529	9,21
618,99	9,28
619,452	9,19
619,913	9,1
620,375	9
620,836	9,04
621,297	9,03
621,758	9,04
622,219	8,78
622,68	8,91
623,14	8,82
623,601	8,94
624,061	8,79
624,522	8,75
624,982	8,82
625,442	8,73
625,902	8,74
626,362	8,65
626,822	8,63
627,282	8,67
627,742	8,55
628,201	8,71
628,661	8,65
629,12	8,63
629,579	8,58
630,038	8,63
630,497	8,47
630,956	8,59
631,415	8,32
631,874	8,59
632,332	8,43
632,791	8,49
633,249	8,42
633,708	8,43
634,166	8,43
634,624	8,17
635,082	8,31
635,54	8,11
635,998	8,08
636,455	8,02
636,913	7,88
637,37	7,89
637,828	7,88
638,285	7,85
638,742	7,66
639,199	7,6
639,656	7,51
640,113	7,34
640,57	7,33
641,027	7,22
641,483	7,14
641,94	7,16
642,396	6,96
642,852	6,98
643,309	6,72
643,765	6,74
644,221	6,53
644,676	6,51
645,132	6,49
645,588	6,55
646,043	6,29
646,499	6,29
646,954	6,23
647,409	6,08
647,864	6,06
648,319	5,97
648,774	5,94
649,229	5,95
649,684	5,82
650,139	5,84
650,593	5,8
651,047	5,72
651,502	5,72
651,956	5,64
652,41	5,77
652,864	5,55
653,318	5,54
653,772	5,52
654,225	5,61
654,679	5,5
655,133	5,43
655,586	5,4
656,039	5,39
656,492	5,29
656,946	5,31
657,399	5,3
657,851	5,27
658,304	5,17
658,757	5,17
659,209	5,06
659,662	5,1
660,114	5,03
660,567	4,89
661,019	4,99
661,471	4,95
661,923	4,79
662,375	4,8
662,826	4,82
663,278	4,78
663,73	4,73
664,181	4,62
664,632	4,69
665,084	4,64
665,535	4,73
665,986	4,65
666,437	4,68
666,888	4,63
667,338	4,65
667,789	4,69
668,24	4,65
668,69	4,71
669,14	4,58
669,591	4,71
670,041	4,72
670,491	4,78
670,941	4,72
671,391	4,86
671,84	4,88
672,29	4,88
672,74	4,94
673,189	4,95
673,638	4,99
674,088	5,09
674,537	5,11
674,986	5,27
675,435	5,32
675,883	5,48
676,332	5,53
676,781	5,6
677,229	5,62
677,678	5,65
678,126	5,75
678,574	5,9
679,022	5,88
679,47	5,97
679,918	6,17
680,366	6,24
680,814	6,41
681,261	6,43
681,709	6,59
682,156	6,61
682,604	6,78
683,051	6,74
683,498	6,8
683,945	6,85
684,392	6,99
684,839	7,03
685,286	7,15
685,732	7,1
686,179	7,24
686,625	7,45
687,071	7,4
687,518	7,58
687,964	7,6
688,41	7,81
688,856	7,92
689,301	8,2
689,747	8,35
690,193	8,47
690,638	8,73
691,084	8,88
691,529	9,16
691,974	9,48
692,419	9,74
692,864	10,14
693,309	10,46
693,754	10,91
694,199	11,12
694,643	11,54
695,088	12,04
695,532	12,44
695,977	12,76
696,421	13,24
696,865	13,7
697,309	14,14
697,753	14,39
698,197	15,27
698,64	15,72
699,084	16,14
699,527	16,55
699,971	16,92
700,414	17,33
700,857	17,83
701,3	18,26
701,743	19,02
702,186	19,26
702,629	19,78
703,072	20,31
703,515	20,5
703,957	20,92
704,399	21,43
704,842	21,71
705,284	22,03
705,726	22,54
706,168	22,81
706,61	23,5
707,052	23,56
707,494	24,34
707,935	24,58
708,377	24,89
708,818	25,35
709,26	25,82
709,701	26,09
710,142	26,62
710,583	26,76
711,024	27,01
711,465	27,61
711,905	27,82
712,346	27,94
712,787	28,17
713,227	28,89
713,667	29,01
714,108	29,36
714,548	29,71
714,988	30,2
715,428	30,66
715,868	30,9
716,307	30,85
716,747	31,14
717,186	31,39
717,626	31,7
718,065	32,01
718,504	32,36
718,944	32,56
719,383	32,94
719,822	33,13
720,261	33,45
720,699	33,31
721,138	33,61
721,576	34,01
722,015	34,12
722,453	34,38
722,892	34,72
723,33	35,07
723,768	35,32
724,206	35,53
724,644	35,33
725,081	35,72
725,519	35,87
725,957	35,73
726,394	36,12
726,832	36,13
727,269	36,54
727,706	36,71
728,143	36,81
728,58	37,16
729,017	36,6
729,454	36,95
729,89	37,38
730,327	37,14
730,764	37,39
731,2	37,63
731,636	37,79
732,072	37,94
732,509	38,07
732,945	37,91
733,38	38,11
733,816	38,44
734,252	38,4
734,688	38,57
735,123	38,71
735,559	38,34
735,994	38,35
736,429	38,54
736,864	38,68
737,299	38,59
737,734	39,13
738,169	38,57
738,604	38,87
739,038	38,53
739,473	38,86
739,907	39,07
740,342	38,88
740,776	39,14
741,21	38,75
741,644	39,1
742,078	39
742,512	38,9
742,946	39,05
743,379	39,03
743,813	38,88
744,246	39,1
744,68	38,93
745,113	38,7
745,546	38,98
745,979	39,26
746,412	39,1
746,845	38,8
747,278	39,18
747,711	38,68
748,143	38,84
748,576	39,17
749,008	39,16
749,441	38,86
749,873	38,56
750,305	39,22
750,737	38,75
751,169	38,67
751,601	38,88
752,032	38,81
752,464	38,84
752,896	38,4
753,327	38,54
753,758	38,69
754,19	38,74
754,621	38,27
755,052	38,29
755,483	38,4
755,914	38,69
756,344	38,43
756,775	38,71
757,206	38,41
757,636	38,52
758,066	38,44
758,497	38,41
758,927	38,69
759,357	38,28
759,787	38,24
760,217	38,14
760,647	38,22
761,076	38,11
761,506	38,07
761,935	38,22
762,365	38,23
762,794	38,15
763,223	38,37
763,653	37,98
764,082	37,78
764,51	38,14
764,939	37,95
765,368	37,61
765,797	38,06
766,225	37,89
766,654	37,82
767,082	37,5
767,51	37,59
767,938	37,85
768,367	37,52
768,795	37,54
769,222	38,04
769,65	37,95
770,078	37,74
770,505	37,9
770,933	37,64
771,36	37,83
771,788	37,71
772,215	37,44
772,642	37,67
773,069	37,71
773,496	37,37
773,923	37,24
774,349	37,32
774,776	37,58
775,203	37,25
775,629	37,4
776,055	37,07
776,482	37,19
776,908	37,36
777,334	37,19
777,76	37,46
778,186	37,2
778,611	37,28
779,037	37,44
779,463	37,01
779,888	37,29
780,314	37,19
780,739	37,28
781,164	37,3
781,589	37,15
782,014	37,52
782,439	37,32
782,864	37,38
783,289	37,23
783,713	36,95
784,138	37,1
784,562	37,05
784,987	37,05
785,411	36,83
785,835	37,06
786,259	36,89
786,683	37,31
787,107	37,01
787,531	37,15
787,954	37,08
788,378	36,79
788,802	36,98
789,225	36,77
789,648	36,98
790,071	36,74
790,495	37,17
790,918	37,13
791,34	37,04
791,763	36,98
792,186	36,91
792,609	36,78
793,031	36,9
793,454	36,9
793,876	37,46
794,298	36,76
794,721	36,85
795,143	36,95
795,565	36,63
795,986	36,69
796,408	36,79
796,83	36,86
797,252	36,82
797,673	37,17
798,094	37,11
798,516	37,04
798,937	36,99
799,358	36,49
799,779	36,82
800,2	36,72
800,621	36,97
801,042	36,65
801,462	36,82
801,883	36,95
802,303	36,41
802,724	36,67
803,144	36,8
803,564	37,03
803,984	37,02
804,404	36,81
804,824	37,11
805,244	37
805,664	36,76
806,084	36,79
806,503	36,8
806,923	36,8
807,342	36,61
807,761	36,56
808,18	36,62
808,599	36,73
809,018	36,64
809,437	36,77
809,856	36,58
810,275	36,78
810,693	36,96
811,112	36,98
811,53	37,01
811,949	37,03
812,367	36,88
812,785	36,66
813,203	36,9
813,621	36,62
814,039	36,58
814,457	36,94
814,874	36,38
815,292	36,65
815,709	36,7
816,127	36,93
816,544	36,91
816,961	36,47
817,378	37,02
817,795	36,66
818,212	36,7
818,629	37,04
819,046	36,69
819,462	36,5
819,879	36,69
820,295	36,71
820,712	36,56
821,128	36,83
821,544	36,75
821,96	36,63
822,376	36,86
822,792	36,45
823,208	36,85
823,624	37,03
824,039	36,53
824,455	36,66
824,87	36,44
825,286	36,81
825,701	36,67
826,116	36,2
826,531	36,49
826,946	36,56
827,361	36,54
827,776	36,47
828,19	36,64
828,605	36,29
829,02	36,51
829,434	36,42
829,848	36,78
830,263	36,73
830,677	36,39
831,091	36,41
831,505	36,47
831,919	36,81
832,332	36,54
832,746	36,74
833,16	36,46
833,573	36,37
833,987	36,6
834,4	36,49
834,813	36,37
835,226	36,07
835,639	36,43
836,052	36,31
836,465	36,66
836,878	36,53
837,29	36,47
837,703	36,58
838,116	36,68
838,528	36,54
838,94	36,56
839,352	36,33
839,765	36,59
840,177	36,28
840,589	36,47
841	36,29
841,412	36,42
841,824	36,37
842,235	36,23
842,647	36,16
843,058	36,56
843,47	36,32
843,881	36,69
844,292	36,19
844,703	36,58
845,114	36,28
845,525	36,45
845,935	36,33
846,346	36,18
846,757	36,4
847,167	36,4
847,577	36,14
847,988	36,5
848,398	36,2
848,808	36,46
849,218	36,36
849,628	36,4
850,038	36,3
850,448	36,36
850,857	36,4
851,267	36,42
851,676	36,32
852,086	36,41
852,495	36,52
852,904	36,45
853,313	36,09
853,722	36,53
854,131	36,62
854,54	36,08
854,949	36,25
855,357	36,2
855,766	36,04
856,174	36,3
856,583	36,16
856,991	36,12
857,399	36,29
857,807	36,1
858,215	36,53
858,623	36,44
859,031	36,16
859,439	36,49
859,846	36,4
860,254	36,24
860,661	36,59
861,069	36,48
861,476	36,4
861,883	36,09
862,29	35,96
862,697	36,06
863,104	36,11
863,511	36,42
863,918	35,99
864,325	36,13
864,731	36,41
865,138	35,93
865,544	36,09
865,95	36,38
866,357	36,24
866,763	36,31
867,169	36,57
867,575	36,16
867,98	36,48
868,386	36,38
868,792	36,4
869,197	36,2
869,603	35,99
870,008	35,94
870,414	36,41
870,819	36,11
871,224	36,18
871,629	35,92
872,034	35,99
872,439	35,88
872,844	36,04
873,248	36,03
873,653	36,3
874,057	36,2
874,462	36,27
874,866	36,28
875,27	36,24
875,674	36,64
876,078	35,97
876,482	36,07
876,886	36,11
877,29	35,96
877,694	36,26
878,097	35,59
878,501	35,84
878,904	35,64
879,308	35,86
879,711	35,9
880,114	36
880,517	36,05
880,92	36,46
881,323	36,2
881,726	36,31
882,128	36,2
882,531	36,22
882,934	36,13
883,336	36,27
883,738	36
884,141	36,32
884,543	36,35
884,945	36,41
885,347	36,35
885,749	35,76
886,151	36,4
886,552	36,29
886,954	35,76
887,355	36,09
887,757	36,16
888,158	36,02
888,56	36,09
888,961	36,11
889,362	36,18
889,763	36,35
890,164	36,42
890,565	35,84
890,965	36,08
891,366	36,4
891,767	36,56
892,167	36,49
892,567	36,22
892,968	36,17
893,368	36,07
893,768	36,08
894,168	35,89
894,568	35,77
894,968	36,16
895,368	35,87
895,767	36
896,167	36,33
896,566	36,04
896,966	36,05
897,365	36,32
897,764	36,28
898,164	36,39
898,563	35,99
898,962	36,29
899,361	36,42
899,759	36,17
900,158	35,88
900,557	36,17
900,955	35,81
901,354	36,16
901,752	36,06
902,15	35,7
902,548	36,05
902,947	36,08
903,345	36,24
903,742	35,9
904,14	35,86
904,538	36,23
904,936	36,22
905,333	35,98
905,731	35,98
906,128	35,87
906,525	36,13
906,923	36,26
907,32	36,17
907,717	36,17
908,114	36,34
908,511	35,83
908,907	36,46
909,304	36,02
909,701	36,1
910,097	36,29
910,494	35,71
910,89	36,33
911,286	35,95
911,682	36,35
912,078	36,34
912,474	36,31
912,87	36,17
913,266	36,03
913,662	36,01
914,058	36,06
914,453	36,23
914,849	35,97
915,244	35,96
915,639	36,3
916,034	35,82
916,43	36,23
916,825	36,18
917,22	36,25
917,614	36,2
918,009	36,45
918,404	35,74
918,798	35,8
919,193	36,02
919,587	36,04
919,982	36,29
920,376	35,87
920,77	35,76
921,164	36,13
921,558	36,23
921,952	35,95
922,346	35,58
922,74	36,15
923,133	36,09
923,527	35,92
923,92	35,84
924,314	36,06
924,707	36
925,1	36,25
925,493	36,45
925,886	35,85
926,279	35,83
926,672	35,99
927,065	35,75
927,457	36,11
927,85	35,66
928,243	35,83
928,635	36,21
929,027	36,17
929,42	36,4
929,812	36,09
930,204	36,61
930,596	36,52
930,988	35,88
931,379	35,98
931,771	35,97
932,163	35,98
932,554	35,89
932,946	35,53
933,337	35,91
933,729	36,38
934,12	36,16
934,511	36,31
934,902	36,54
935,293	35,8
935,684	36,85
936,075	36,28
936,465	36,28
936,856	36,26
937,246	37,07
937,637	36,35
938,027	36,45
938,417	35,78
938,808	36,21
939,198	36,18
939,588	36,3
939,978	36,62
940,368	35,79
940,757	36,51
941,147	36,61
941,537	36,13
941,926	36,79
942,315	37,26
942,705	36,16
943,094	36,25
943,483	36,7
943,872	35,96
944,261	36,01
944,65	36,53
945,039	36,48
945,428	36,79
945,816	36,43
946,205	36,98
946,593	36,33
946,982	36,65
947,37	36,57
947,758	36,74
948,146	36,28
948,534	36,27
948,922	36,49
949,31	35,83
949,698	36,64
950,086	36,56
950,473	35,89
950,861	36,39
951,248	35,95
951,636	35,89
952,023	35,53
952,41	35,63
952,797	36,5
953,184	35,62
953,571	36,15
953,958	35,57
954,345	35,15
954,731	36,64
955,118	35,77
955,505	35,89
955,891	35,87
956,277	36,19
956,664	35,88
957,05	35,9
957,436	35,22
957,822	35,27
958,208	35,31
958,594	35,32
958,979	35,66
959,365	35,09
959,751	35,4
960,136	35,97
960,522	35,76
960,907	35,62
961,292	35,66
961,677	35,76
962,062	35,43
962,447	35,67
962,832	35,81
963,217	35,39
963,602	35,67
963,986	35,44
964,371	35,04
964,756	35,5
965,14	35,99
965,524	35,23
965,908	35,5
966,293	35,24
966,677	35,1
967,061	35,82
967,445	35,05
967,828	35,86
968,212	35,8
968,596	35,23
968,979	35,73
969,363	35,59
969,746	35,59
970,129	35,25
970,513	35,36
970,896	35,7
971,279	35,21
971,662	35,95
972,045	35,14
972,428	35,67
972,81	35,43
973,193	35,97
973,575	35,49
973,958	34,68
974,34	35,18
974,723	35,38
975,105	34,97
975,487	35,63
975,869	34,89
976,251	35,52
976,633	36,01
977,015	35,37
977,396	35,82
977,778	35,67
978,16	35,23
978,541	35,15
978,922	35,53
979,304	35,73
979,685	35,95
980,066	35,62
980,447	35,47
980,828	35,98
981,209	35,51
981,59	35,46
981,97	35,48
982,351	35,73
982,732	35,82
983,112	36,05
983,493	35,64
983,873	35,5
984,253	35,56
984,633	35,64
985,013	36,03
985,393	35,78
985,773	35,05
986,153	35,52
986,533	35,54
986,912	36,11
987,292	36,18
987,671	35,61
988,051	36,21
988,43	35,82
988,809	35,39
989,188	35,96
989,567	35,88
989,946	35,96
990,325	36,27
990,704	36,15
991,083	35,79
991,461	35,75
991,84	36,12
992,218	35,37
992,597	36,19
992,975	36,12
993,353	35,68
993,732	36,03
994,11	36,47
994,488	36
994,866	35,43
995,243	35,8
995,621	36,28
995,999	36,36
996,376	35,8
996,754	35,76
997,131	36,18
997,509	36,08
997,886	36,11
998,263	36,39
998,64	35,38
999,017	36,69
999,394	36,12
999,771	36,36
1000,148	36,02
1000,524	36,03
1000,901	36,11
1001,277	36,45
1001,654	36,18
1002,03	36,68
1002,406	36,49
1002,783	36,12
1003,159	36,42
1003,535	36,24
1003,911	36,28
1004,286	36,41
1004,662	36,42
1005,038	36,49
1005,414	36,55
1005,789	36,27
1006,164	36,18
1006,54	36,56
1006,915	36,57
1007,29	36,06
1007,665	36,45
1008,04	35,88
1008,415	36,96
1008,79	36,44
1009,165	35,9
1009,54	36,56
1009,914	36,67
1010,289	36,58
1010,663	36,83
1011,038	36,46
1011,412	36,41
1011,786	37,11
1012,16	36,69
1012,535	36,65
1012,909	37,15
1013,282	37,22
1013,656	36,68
1014,03	36,24
1014,404	36,83
1014,777	35,83
1015,151	37,16
1015,524	37,45
1015,897	36,58
1016,271	37,09
1016,644	36,64
1017,017	36,23
1017,39	36,93
1017,763	36,96
1018,136	37,09
1018,508	36,72
1018,881	36,79
1019,254	36,43
1019,626	37,59
1019,999	37,09
1020,371	37,33
1020,743	37,71
1021,116	36,97
1021,488	37,48
1021,86	37,91
1022,232	37,54
1022,604	37,32
1022,975	37,56
1023,347	37,15
1023,719	38,05
1024,09	38,04
1024,462	37,92
1024,833	37,79
1025,204	38,22
1025,576	37,23
1025,947	36,92
1026,318	37,88
1026,689	38,44
1027,06	37,95
1027,431	37,91
1027,801	37,37
1028,172	37,56
1028,543	38,51
1028,913	38,85
1029,284	38,01
1029,654	38,35
1030,024	38,5
1030,394	38,15
1030,764	37,72
1031,135	38,1
1031,504	37,37
1031,874	37,85
1032,244	38,38
1032,614	37,58
1032,983	37,9
1033,353	37,98
1033,722	38,1
1034,092	38,14
1034,461	38,13
1034,83	38,56
1035,2	38,37
1035,569	38,75
1035,938	38,35
1036,307	38,94
1036,675	37,68
1037,044	38,95
1037,413	38,91
1037,781	39,21
1038,15	39,29
1038,518	39,39
1038,887	38,99
1039,255	38,68
1039,623	38,16
1039,991	38,78
1040,359	39,17
1040,727	38,41
1041,095	38,58
1041,463	38,49
1041,831	39,2
1042,198	38,07
1042,566	39,28
1042,933	39,56
1043,301	38,24
1043,668	39,21
1044,035	38,34
1044,402	39,41
1044,77	38,73
1045,137	38,87
1045,503	39,28
1045,87	39,59
1046,237	38,9
1046,604	39,98
1046,97	38,61
1047,337	40,46
1047,703	39,77
1048,07	40,03
1048,436	40,12
1048,802	39,73
1049,168	40,05
1049,534	38,71
1049,9	40,02
1050,266	40,4
1050,632	40,86
1050,998	40,74
1051,364	40,13
1051,729	40,63
1052,095	40,17
1052,46	39,67
1052,825	40,08
1053,191	40,29
1053,556	39,53
1053,921	39,15
1054,286	39,83
1054,651	40,56
1055,016	42
1055,381	40,53
1055,745	39,46
1056,11	40,27
1056,475	41,62
1056,839	40,77
1057,203	40,47
1057,568	41,07
1057,932	40,83
1058,296	41,48
1058,66	41,06
1059,024	41,69
1059,388	41,6
1059,752	41,27
1060,116	42,22
1060,48	43,44
1060,843	41,11
1061,207	41,4
1061,57	41,42
1061,934	41,57
1062,297	42,73
1062,66	40,88
1063,023	42,42
1063,386	43,35
1063,749	42,6
1064,112	41,55
1064,475	41,04
1064,838	42,79
1065,201	42,18
1065,563	42,01
1065,926	40,92
1066,288	41,89
1066,651	42,57
1067,013	41,31
1067,375	41,77
1067,737	42,63
1068,099	42,56
1068,461	42,04
1068,823	41,85
1069,185	41,14
1069,547	43,19
1069,909	39,75
1070,27	43,32
1070,632	42,18
1070,993	42,1
1071,355	42,3
1071,716	41,79
1072,077	41,97
1072,438	41,51
1072,799	42,29
1073,16	43,99
1073,521	42,03
1073,882	45,18
1074,243	43,97
1074,603	41,76
1074,964	42,8
1075,325	42,81
1075,685	40,56
1076,045	42,45
1076,406	43,38
1076,766	42,41
1077,126	42,58
1077,486	42,74
1077,846	42,84
1078,206	42,18
1078,566	44,56
1078,925	42,54
1079,285	43,22
1079,645	44,31
1080,004	41,74
1080,364	43,11
1080,723	43,26
1081,082	43,95
1081,442	43,68
1081,801	43,61
1082,16	43,35
1082,519	42,02
1082,878	45,05
1083,237	43,24
1083,595	45,14
1083,954	43,73
1084,313	43,19
1084,671	43,06
1085,03	44,33
1085,388	44,73
1085,746	44,95
1086,104	44,3
1086,463	45,47
1086,821	45,66
1087,179	43,82
1087,537	44,49
1087,894	44,42
1088,252	43,87
1088,61	43,89
1088,967	44,58
1089,325	47,12
1089,682	45,28
1090,04	46,79
1090,397	45,86
1090,754	45,09
1091,111	44,6
1091,469	47,88
1091,826	45,08
1092,182	48,38
1092,539	46,54
1092,896	45,51
1093,253	46,59
1093,609	45,08
1093,966	45,94
1094,322	46,2
1094,679	46,75
1095,035	47,96
1095,391	45,06
1095,748	47,38
1096,104	47,13
1096,46	48,28
1096,816	46,18
1097,171	47,5
1097,527	47,7
1097,883	48,77
1098,239	47,12
1098,594	45,38
1098,95	48,85
1099,305	46,7
1099,66	47,3
1100,016	45,32
1100,371	46,79
1100,726	49,08
1101,081	45,61
1101,436	48,81
1101,791	49,71
1102,146	49,77
1102,5	49,12
1102,855	47,37
1103,21	48,26
1103,564	50,06
1103,918	48,91
1104,273	50,5
1104,627	49,18
1104,981	46,29
1105,335	48,48
1105,69	51,34
1106,043	49,16
1106,397	48,89
1106,751	51,07
1107,105	51,22
1107,459	48,61
1107,812	53,57
1108,166	53,4
1108,519	48,19
1108,873	49,78
1109,226	55,02
1109,579	51,56
1109,932	54,67
1110,285	52,92
1110,638	54,65
1110,991	51,9
1111,344	51,28
1111,697	52,73
1112,05	52,64
1112,402	58,95
1112,755	52,85
1113,107	56,69
1113,46	57,56
1113,812	55,36
1114,164	59,68
1114,517	57,7
1114,869	156,48
1115,221	175,44
1115,573	157,58
1115,924	177,36
