Data from E4__Relative__4__00079.txt Node

Date: Tue Jan 30 17:57:48 CET 2024
User: diatiterra
Spectrometer: HDX00911
Trigger mode: 0
Integration Time (sec): 6,000000E-3
Scans to average: 3
Nonlinearity correction enabled: true
Boxcar width: 0
Storing dark spectrum: false
XAxis mode: Wavelengths
Number of Pixels in Spectrum: 2068
>>>>>Begin Spectral Data<<<<<
194,468	103,87
195,025	97,23
195,581	92,11
196,138	85,84
196,694	89,31
197,251	80,08
197,807	79
198,363	68,35
198,919	74,14
199,474	72,91
200,03	71,91
200,586	71,71
201,141	69,02
201,696	68,14
202,251	69,44
202,806	70,87
203,361	75,26
203,916	72,88
204,471	78,97
205,025	69,02
205,58	71,31
206,134	74,9
206,688	71,07
207,242	64,42
207,796	71,34
208,35	67,12
208,904	76,23
209,457	71,33
210,011	79,11
210,564	72,07
211,117	75,41
211,67	73,69
212,223	74,38
212,776	75,84
213,329	75,11
213,881	77,36
214,434	71,1
214,986	73,02
215,538	73,37
216,09	71,8
216,642	80,65
217,194	69,95
217,746	73,22
218,297	67,72
218,849	69,31
219,4	78,23
219,951	72,52
220,502	77,11
221,053	72,66
221,604	69,59
222,155	75,15
222,705	75,68
223,256	67,4
223,806	70
224,356	72,59
224,906	69,21
225,456	69,23
226,006	69,77
226,556	67,95
227,106	83,98
227,655	72,76
228,204	69,18
228,754	72,8
229,303	68,74
229,852	79,35
230,401	74,38
230,949	80,99
231,498	73,36
232,047	73,14
232,595	73,02
233,143	77,33
233,691	66,59
234,239	68,43
234,787	70,34
235,335	72,76
235,883	71,68
236,43	76,39
236,978	76,01
237,525	72,89
238,072	75,93
238,619	71,96
239,166	66,92
239,713	67,53
240,26	77,94
240,806	75,3
241,353	70,67
241,899	71,48
242,445	76,74
242,991	75,15
243,537	77,59
244,083	75,65
244,629	76,16
245,174	76,37
245,72	74,62
246,265	76,99
246,81	75,95
247,355	75,59
247,9	71,49
248,445	78,96
248,99	77,4
249,534	75,9
250,079	78,42
250,623	69,73
251,168	77,89
251,712	68,15
252,256	65,48
252,8	72,59
253,343	77,47
253,887	71,34
254,43	78,95
254,974	73,46
255,517	77,42
256,06	74,16
256,603	75,06
257,146	74,51
257,689	73,23
258,232	76,19
258,774	73,61
259,317	68,89
259,859	72,72
260,401	80,55
260,943	80,3
261,485	79,52
262,027	73,34
262,569	76,78
263,11	73,51
263,652	78,77
264,193	82,53
264,734	75,48
265,275	74,83
265,816	73,53
266,357	78,75
266,898	70,35
267,438	77,58
267,979	76,2
268,519	76,22
269,059	72,65
269,6	79,78
270,14	76,32
270,68	71,45
271,219	81,11
271,759	74,34
272,298	70,62
272,838	73,86
273,377	70,08
273,916	70,37
274,455	70,41
274,994	75,73
275,533	74,22
276,072	77,86
276,61	72,3
277,149	74,52
277,687	78,17
278,225	69,16
278,763	73,04
279,301	75,97
279,839	79,32
280,377	72,24
280,914	72,67
281,452	68,5
281,989	82,18
282,526	72,5
283,064	79,36
283,601	69,76
284,137	79,34
284,674	71,1
285,211	73,09
285,747	75,59
286,284	73,07
286,82	69,11
287,356	74,32
287,892	80,83
288,428	69,82
288,964	75,1
289,5	77,93
290,035	75,12
290,571	68,51
291,106	75,92
291,641	74,45
292,176	73,81
292,711	72,35
293,246	72,13
293,781	72,49
294,315	63,71
294,85	79,75
295,384	78,19
295,918	72,99
296,453	68,27
296,987	72,16
297,52	72,41
298,054	73,9
298,588	72,79
299,121	72,86
299,655	71,03
300,188	69,43
300,721	66,52
301,254	71,56
301,787	71,82
302,32	76,73
302,853	69,16
303,385	69,56
303,918	75,61
304,45	69,33
304,982	72,97
305,514	78,66
306,046	65,89
306,578	72,42
307,11	70,42
307,641	79,43
308,173	67,94
308,704	75,31
309,236	70,55
309,767	78,3
310,298	67,46
310,829	69,96
311,359	72,61
311,89	73,04
312,421	69,12
312,951	70,05
313,481	72,95
314,012	66,53
314,542	68,71
315,072	73,99
315,601	64,04
316,131	76,02
316,661	69,15
317,19	71,31
317,72	66,53
318,249	66,52
318,778	68,97
319,307	66,59
319,836	74,73
320,365	61,93
320,893	68,57
321,422	67,39
321,95	66,67
322,479	72,45
323,007	64,31
323,535	65,95
324,063	67,42
324,591	72,05
325,118	72,17
325,646	62,14
326,173	68,86
326,701	71,47
327,228	65,12
327,755	72,97
328,282	66,66
328,809	68,64
329,336	70,14
329,862	68,92
330,389	66,6
330,915	74,06
331,441	68,71
331,968	65,03
332,494	66,46
333,02	67,96
333,545	70,84
334,071	72
334,597	67,64
335,122	72
335,648	65,2
336,173	66,87
336,698	66,73
337,223	62,29
337,748	62,24
338,272	66,84
338,797	65,99
339,322	72,34
339,846	68,17
340,37	69,74
340,894	66,45
341,419	65,55
341,942	61,9
342,466	61,73
342,99	65,94
343,514	65,02
344,037	62,81
344,56	69,1
345,084	61,86
345,607	67,46
346,13	61,43
346,653	59,6
347,175	61
347,698	67,53
348,221	56,72
348,743	56,96
349,265	63,33
349,787	58,62
350,309	62,83
350,831	62,86
351,353	57,65
351,875	59,3
352,397	53,06
352,918	63,62
353,439	62,94
353,961	59,42
354,482	54,56
355,003	55,65
355,524	56,68
356,044	55,46
356,565	53,87
357,086	57,27
357,606	54,04
358,126	57,75
358,646	56,44
359,167	56,44
359,687	54,3
360,206	53,03
360,726	58,11
361,246	56,23
361,765	54,49
362,285	51,69
362,804	55,34
363,323	55
363,842	57,98
364,361	56,03
364,88	55,24
365,398	53,57
365,917	53,01
366,435	54,8
366,954	52,1
367,472	51,93
367,99	60,31
368,508	51,36
369,026	52,56
369,544	53,43
370,061	51,56
370,579	51,43
371,096	50,39
371,613	52,9
372,131	52,48
372,648	50,76
373,165	49,39
373,681	50,25
374,198	52,29
374,715	51,83
375,231	52,01
375,747	49,42
376,264	46,29
376,78	51,01
377,296	50,22
377,812	49,54
378,327	49,83
378,843	45,02
379,359	46,3
379,874	50,43
380,389	47,79
380,905	46,93
381,42	47,12
381,935	48,34
382,449	43,42
382,964	44,7
383,479	46,45
383,993	45,2
384,508	43,14
385,022	42,97
385,536	43,44
386,05	43,5
386,564	44,25
387,078	40,82
387,592	40,92
388,105	38,76
388,619	41,12
389,132	39,26
389,645	39,24
390,158	37,02
390,671	36,28
391,184	37,28
391,697	36,07
392,21	34,96
392,722	37,28
393,235	35,98
393,747	34,82
394,259	33,32
394,771	36,31
395,283	35,17
395,795	35,6
396,307	35,86
396,818	32,7
397,33	33,08
397,841	32,68
398,353	33,39
398,864	31,89
399,375	32,62
399,886	31,18
400,397	30,24
400,907	30,06
401,418	29,41
401,928	29,97
402,439	28,18
402,949	28,06
403,459	27,34
403,969	26,99
404,479	25,98
404,989	24,81
405,498	25,61
406,008	25,03
406,517	23,63
407,027	22,99
407,536	22,64
408,045	21,45
408,554	19,82
409,063	19,36
409,572	19,66
410,08	18,35
410,589	18,57
411,097	18,72
411,606	16,73
412,114	17,59
412,622	16,49
413,13	16,15
413,638	16,11
414,145	15,1
414,653	14,91
415,16	14,06
415,668	14,33
416,175	13,58
416,682	13,11
417,189	12,91
417,696	12,95
418,203	12,59
418,71	13,22
419,216	11,75
419,723	11,89
420,229	11,85
420,735	11,9
421,242	11,58
421,748	11,91
422,254	11,51
422,759	11,19
423,265	11,64
423,771	10,9
424,276	11,09
424,781	11,02
425,287	10,49
425,792	11
426,297	10,81
426,802	10,34
427,306	11
427,811	10,59
428,316	10,39
428,82	10,21
429,324	10,41
429,829	10
430,333	10,05
430,837	10
431,34	9,67
431,844	10,45
432,348	9,8
432,851	9,76
433,355	9,77
433,858	9,5
434,361	9,63
434,864	9,89
435,367	9,49
435,87	9,67
436,373	9,83
436,876	9,58
437,378	9,57
437,88	9,45
438,383	9,4
438,885	9,17
439,387	9,6
439,889	9,41
440,391	9,54
440,892	9,25
441,394	9,39
441,896	9,38
442,397	9,45
442,898	9,44
443,399	9,52
443,9	9,43
444,401	9,73
444,902	9,35
445,403	9,49
445,903	9,38
446,404	9,28
446,904	9,25
447,405	9,4
447,905	9,23
448,405	9,84
448,905	9,77
449,404	9,45
449,904	9,67
450,404	9,59
450,903	9,79
451,403	9,86
451,902	9,71
452,401	9,94
452,9	9,67
453,399	9,72
453,898	9,82
454,396	9,99
454,895	10,32
455,393	9,8
455,892	10,34
456,39	10,28
456,888	9,99
457,386	9,96
457,884	10,11
458,382	10,27
458,879	10,25
459,377	10,44
459,874	10,25
460,372	10,25
460,869	9,7
461,366	10,25
461,863	10,24
462,36	9,94
462,857	10,07
463,353	10,32
463,85	10,12
464,346	9,97
464,843	10,01
465,339	10,21
465,835	10,1
466,331	10,51
466,827	10
467,323	10,07
467,818	10,04
468,314	10,11
468,809	10,03
469,305	10,15
469,8	10,13
470,295	10,02
470,79	10,23
471,285	10,12
471,78	10,2
472,274	10,15
472,769	10,23
473,263	10,13
473,758	10,17
474,252	10,17
474,746	10,07
475,24	10,14
475,734	10,25
476,228	10,21
476,721	10,19
477,215	10,29
477,708	10,31
478,202	10,37
478,695	10,19
479,188	10,29
479,681	10,26
480,174	10,08
480,667	10,52
481,159	10,44
481,652	10,39
482,144	10,34
482,637	10,59
483,129	10,51
483,621	10,55
484,113	10,43
484,605	10,68
485,097	10,48
485,588	10,61
486,08	10,85
486,571	10,48
487,063	10,4
487,554	10,84
488,045	10,89
488,536	10,79
489,027	10,86
489,518	11,1
490,008	10,9
490,499	11,06
490,989	11,23
491,48	11,15
491,97	11,31
492,46	11,47
492,95	11,31
493,44	11,34
493,93	11,4
494,419	11,56
494,909	11,57
495,398	11,67
495,888	11,6
496,377	12,02
496,866	12,13
497,355	12,07
497,844	12,28
498,333	12,55
498,821	12,62
499,31	12,6
499,798	12,7
500,287	13,11
500,775	13,2
501,263	13,82
501,751	13,89
502,239	13,72
502,727	14,03
503,215	14,21
503,702	14,34
504,19	14,61
504,677	15,07
505,164	15,34
505,651	15,24
506,139	15,61
506,625	15,73
507,112	16,2
507,599	16,47
508,086	16,64
508,572	17,2
509,058	17,41
509,545	17,59
510,031	17,87
510,517	18,23
511,003	18,58
511,489	18,96
511,974	19,41
512,46	19,63
512,946	20,22
513,431	20,46
513,916	20,78
514,401	20,8
514,887	21,59
515,371	21,99
515,856	21,99
516,341	22,8
516,826	23,08
517,31	23,45
517,795	23,88
518,279	24,65
518,763	25,06
519,247	25,48
519,731	25,93
520,215	26,25
520,699	27,01
521,182	26,89
521,666	27,65
522,149	28,4
522,633	28,8
523,116	28,46
523,599	29,59
524,082	29,81
524,565	30,13
525,048	30,48
525,53	30,71
526,013	31,39
526,495	31,92
526,978	31,75
527,46	32,33
527,942	32,58
528,424	33,17
528,906	33,35
529,388	33,7
529,87	33,88
530,351	34
530,833	34,31
531,314	34,72
531,795	34,68
532,277	35,21
532,758	35,68
533,238	35,82
533,719	35,46
534,2	35,72
534,681	35,87
535,161	36,13
535,642	35,91
536,122	36,31
536,602	36,76
537,082	36,71
537,562	36,96
538,042	37,33
538,522	36,71
539,001	37,21
539,481	37,19
539,96	37,36
540,44	37,21
540,919	37,29
541,398	37,19
541,877	37,63
542,356	37,48
542,835	37,9
543,313	37,73
543,792	37,87
544,27	37,8
544,749	37,91
545,227	38,11
545,705	38,29
546,183	37,95
546,661	38,13
547,139	38,12
547,616	38,05
548,094	38,01
548,571	38,28
549,049	38,26
549,526	38,58
550,003	38,85
550,48	38,42
550,957	38,73
551,434	38,44
551,911	38,57
552,387	38,68
552,864	38,38
553,34	38,47
553,817	38,72
554,293	38,62
554,769	39,1
555,245	38,7
555,721	38,5
556,197	38,25
556,672	38,62
557,148	38,72
557,623	38,59
558,099	38,81
558,574	38,76
559,049	38,65
559,524	37,92
559,999	38,28
560,474	38,04
560,948	38,11
561,423	38,07
561,897	37,77
562,372	37,67
562,846	37,84
563,32	37,32
563,794	37,51
564,268	37,39
564,742	37,2
565,216	36,77
565,69	36,8
566,163	36,9
566,636	36,34
567,11	36,17
567,583	35,74
568,056	35,84
568,529	35,56
569,002	35,29
569,475	35,24
569,947	34,85
570,42	34,98
570,892	34,24
571,365	34,23
571,837	34,26
572,309	34
572,781	33,85
573,253	33,34
573,725	33,32
574,197	32,86
574,668	32,61
575,14	32,66
575,611	32,19
576,082	31,99
576,554	32,11
577,025	31,99
577,496	31,47
577,967	31,46
578,437	31,24
578,908	31,11
579,379	30,69
579,849	30,53
580,319	30,52
580,79	30,22
581,26	30,25
581,73	29,76
582,2	29,86
582,669	29,48
583,139	29,61
583,609	29,26
584,078	29,2
584,548	28,73
585,017	29,13
585,486	28,83
585,955	28,22
586,424	28,35
586,893	28,29
587,362	28,18
587,83	28,11
588,299	27,78
588,767	27,95
589,236	28
589,704	27,85
590,172	27,6
590,64	27,43
591,108	27,27
591,576	27,26
592,043	27,13
592,511	27,29
592,978	27,02
593,446	26,75
593,913	26,79
594,38	26,82
594,847	26,72
595,314	26,68
595,781	26,67
596,248	26,64
596,715	26,53
597,181	26,54
597,647	26,42
598,114	26,34
598,58	26,34
599,046	26,36
599,512	26,18
599,978	25,96
600,444	25,93
600,91	25,82
601,375	25,71
601,841	26,04
602,306	26,03
602,771	25,92
603,236	25,58
603,702	25,54
604,167	25,41
604,631	25,36
605,096	25,47
605,561	25,38
606,025	25,14
606,49	25,08
606,954	25,11
607,418	24,9
607,882	24,93
608,347	24,57
608,81	24,64
609,274	24,3
609,738	24,25
610,202	24,17
610,665	24,04
611,128	24,23
611,592	23,97
612,055	23,65
612,518	23,59
612,981	23,38
613,444	23,45
613,907	23,13
614,369	23,1
614,832	23,2
615,294	23,01
615,757	22,56
616,219	22,63
616,681	22,74
617,143	22,6
617,605	22,23
618,067	22,29
618,529	22,11
618,99	22,23
619,452	21,92
619,913	21,9
620,375	21,41
620,836	21,83
621,297	21,44
621,758	21,51
622,219	21,36
622,68	21,18
623,14	21,53
623,601	21,31
624,061	21,1
624,522	21,07
624,982	21,04
625,442	21,1
625,902	21,11
626,362	20,9
626,822	20,89
627,282	20,9
627,742	20,86
628,201	20,84
628,661	20,68
629,12	20,61
629,579	20,68
630,038	20,69
630,497	20,65
630,956	20,56
631,415	20,44
631,874	20,42
632,332	20,54
632,791	20,42
633,249	20,32
633,708	20,3
634,166	20,38
634,624	20,09
635,082	19,78
635,54	19,77
635,998	19,65
636,455	19,56
636,913	19,37
637,37	19,37
637,828	19,19
638,285	19,02
638,742	18,88
639,199	18,56
639,656	18,56
640,113	18,19
640,57	17,96
641,027	17,9
641,483	17,71
641,94	17,45
642,396	17,39
642,852	17,16
643,309	16,94
643,765	16,87
644,221	16,44
644,676	16,51
645,132	16,18
645,588	15,95
646,043	15,7
646,499	15,63
646,954	15,49
647,409	15,38
647,864	15,11
648,319	15,01
648,774	14,62
649,229	14,81
649,684	14,61
650,139	14,55
650,593	14,6
651,047	14,29
651,502	14,16
651,956	14,21
652,41	14,04
652,864	14,02
653,318	13,94
653,772	13,8
654,225	14,03
654,679	13,93
655,133	13,61
655,586	13,69
656,039	13,61
656,492	13,67
656,946	13,33
657,399	13,34
657,851	13,17
658,304	13
658,757	13,01
659,209	12,7
659,662	12,66
660,114	12,68
660,567	12,46
661,019	12,39
661,471	12,28
661,923	12,21
662,375	12,04
662,826	11,89
663,278	11,86
663,73	11,68
664,181	11,56
664,632	11,39
665,084	11,33
665,535	11,12
665,986	11,22
666,437	11,07
666,888	11,01
667,338	10,96
667,789	10,93
668,24	10,95
668,69	10,86
669,14	10,81
669,591	10,85
670,041	10,8
670,491	10,84
670,941	10,75
671,391	10,89
671,84	10,83
672,29	10,93
672,74	10,99
673,189	11,06
673,638	11,09
674,088	11,11
674,537	11,18
674,986	11,25
675,435	11,27
675,883	11,42
676,332	11,66
676,781	11,65
677,229	11,73
677,678	11,9
678,126	11,98
678,574	12,06
679,022	12,2
679,47	12,43
679,918	12,52
680,366	12,72
680,814	12,75
681,261	12,98
681,709	13,15
682,156	13,36
682,604	13,45
683,051	13,61
683,498	13,92
683,945	14,09
684,392	14,41
684,839	14,58
685,286	14,78
685,732	15,01
686,179	15,37
686,625	15,64
687,071	15,89
687,518	16,32
687,964	16,77
688,41	17,1
688,856	17,52
689,301	17,97
689,747	18,51
690,193	19,07
690,638	19,56
691,084	20,07
691,529	20,95
691,974	21,69
692,419	22,13
692,864	22,86
693,309	23,58
693,754	24,37
694,199	25,03
694,643	25,78
695,088	26,51
695,532	27,51
695,977	28,11
696,421	28,84
696,865	29,62
697,309	30,53
697,753	31,14
698,197	32,09
698,64	32,71
699,084	33,45
699,527	34,2
699,971	34,76
700,414	35,56
700,857	36,29
701,3	37,06
701,743	37,8
702,186	38,51
702,629	38,96
703,072	39,58
703,515	40,36
703,957	40,8
704,399	41,51
704,842	42,06
705,284	42,39
705,726	43,13
706,168	43,82
706,61	44,41
707,052	44,71
707,494	45,43
707,935	45,96
708,377	46,5
708,818	46,73
709,26	47,47
709,701	47,72
710,142	47,97
710,583	48,74
711,024	49,19
711,465	49,72
711,905	50,04
712,346	50,27
712,787	50,87
713,227	51,2
713,667	51,8
714,108	52,3
714,548	52,59
714,988	52,88
715,428	53,05
715,868	53,77
716,307	53,71
716,747	54,36
717,186	54,7
717,626	54,92
718,065	55,7
718,504	55,55
718,944	56,37
719,383	56,47
719,822	56,55
720,261	56,95
720,699	57,27
721,138	57,53
721,576	57,92
722,015	58,16
722,453	58,37
722,892	58,68
723,33	58,93
723,768	59,34
724,206	59,47
724,644	59,63
725,081	59,94
725,519	60,01
725,957	59,94
726,394	60,46
726,832	60,43
727,269	61,05
727,706	61,17
728,143	61,44
728,58	61,34
729,017	61,45
729,454	61,77
729,89	61,89
730,327	61,86
730,764	62,22
731,2	62,37
731,636	62,46
732,072	62,56
732,509	62,77
732,945	62,78
733,38	62,91
733,816	62,92
734,252	62,6
734,688	62,78
735,123	62,9
735,559	63,45
735,994	63,05
736,429	63,49
736,864	63,28
737,299	63,08
737,734	63,4
738,169	63,42
738,604	63,9
739,038	63,68
739,473	63,55
739,907	63,77
740,342	63,6
740,776	63,34
741,21	63,96
741,644	64
742,078	63,79
742,512	63,82
742,946	64,2
743,379	63,84
743,813	63,97
744,246	63,99
744,68	63,97
745,113	63,86
745,546	63,78
745,979	64,07
746,412	63,95
746,845	63,77
747,278	63,94
747,711	63,97
748,143	63,61
748,576	63,59
749,008	63,73
749,441	63,6
749,873	63,48
750,305	63,43
750,737	63,57
751,169	63,35
751,601	63,48
752,032	63,37
752,464	63,65
752,896	63,53
753,327	63,36
753,758	63,32
754,19	63,28
754,621	63,24
755,052	63,37
755,483	63,14
755,914	63,16
756,344	63,23
756,775	63,08
757,206	63,42
757,636	63,08
758,066	63,16
758,497	63,15
758,927	62,9
759,357	62,77
759,787	62,86
760,217	62,98
760,647	62,59
761,076	62,92
761,506	62,78
761,935	62,76
762,365	62,5
762,794	62,74
763,223	62,38
763,653	62,57
764,082	62,58
764,51	62,74
764,939	62,39
765,368	62,36
765,797	62,8
766,225	62,44
766,654	62,27
767,082	62,1
767,51	62,34
767,938	62,08
768,367	62,36
768,795	62,04
769,222	62,16
769,65	62,3
770,078	62,29
770,505	61,99
770,933	61,93
771,36	62
771,788	62,1
772,215	62,09
772,642	61,94
773,069	61,63
773,496	61,89
773,923	61,62
774,349	61,7
774,776	61,83
775,203	61,7
775,629	61,68
776,055	61,79
776,482	61,54
776,908	61,6
777,334	61,57
777,76	61,57
778,186	61,62
778,611	61,74
779,037	61,43
779,463	61,45
779,888	61,32
780,314	61,52
780,739	61,74
781,164	61,46
781,589	61,48
782,014	61,53
782,439	61,59
782,864	61,41
783,289	61,57
783,713	61,42
784,138	61,28
784,562	61,14
784,987	61,2
785,411	61,16
785,835	61,54
786,259	61,24
786,683	61,48
787,107	61,07
787,531	61,12
787,954	60,97
788,378	61,41
788,802	61,53
789,225	61,25
789,648	61,08
790,071	61,14
790,495	61,14
790,918	61,49
791,34	61,15
791,763	60,97
792,186	61,3
792,609	61,17
793,031	61,24
793,454	61,07
793,876	61,15
794,298	60,92
794,721	61,29
795,143	61,15
795,565	60,97
795,986	60,99
796,408	61,24
796,83	60,87
797,252	60,92
797,673	61,25
798,094	60,99
798,516	60,98
798,937	60,92
799,358	60,92
799,779	60,91
800,2	60,85
800,621	61,01
801,042	61,11
801,462	60,86
801,883	60,92
802,303	61,12
802,724	60,62
803,144	60,9
803,564	60,64
803,984	60,82
804,404	61,27
804,824	61,03
805,244	60,92
805,664	60,89
806,084	60,78
806,503	61,08
806,923	60,89
807,342	60,72
807,761	60,85
808,18	60,8
808,599	60,74
809,018	60,8
809,437	60,64
809,856	60,5
810,275	60,79
810,693	60,82
811,112	60,77
811,53	60,67
811,949	61,01
812,367	60,39
812,785	60,75
813,203	60,76
813,621	60,91
814,039	60,89
814,457	60,49
814,874	60,82
815,292	60,58
815,709	60,62
816,127	60,77
816,544	61,01
816,961	60,93
817,378	60,83
817,795	60,94
818,212	60,89
818,629	60,64
819,046	60,59
819,462	60,68
819,879	60,86
820,295	60,55
820,712	60,65
821,128	60,69
821,544	60,47
821,96	60,81
822,376	60,5
822,792	60,8
823,208	60,6
823,624	60,7
824,039	60,78
824,455	60,69
824,87	60,67
825,286	60,66
825,701	60,74
826,116	60,75
826,531	60,53
826,946	60,46
827,361	60,42
827,776	60,75
828,19	60,09
828,605	60,5
829,02	60,64
829,434	60,32
829,848	60,67
830,263	60,54
830,677	60,41
831,091	60,32
831,505	60,4
831,919	60,54
832,332	60,21
832,746	60,49
833,16	60,52
833,573	60,63
833,987	60,25
834,4	60,38
834,813	60,3
835,226	60,27
835,639	60,51
836,052	60,35
836,465	60,5
836,878	60,47
837,29	60,26
837,703	60,56
838,116	60,41
838,528	60,56
838,94	60,28
839,352	60,36
839,765	60,5
840,177	60,37
840,589	60,68
841	60,1
841,412	60,25
841,824	60,2
842,235	60,18
842,647	60,36
843,058	60,43
843,47	60,25
843,881	60,27
844,292	60,3
844,703	60,48
845,114	60,59
845,525	60,29
845,935	60,52
846,346	60,4
846,757	59,93
847,167	60,23
847,577	60,75
847,988	60,1
848,398	60,23
848,808	60,08
849,218	60,35
849,628	60,1
850,038	60,68
850,448	60,2
850,857	60,58
851,267	60,13
851,676	60,28
852,086	60,47
852,495	60,28
852,904	60,06
853,313	59,96
853,722	60,2
854,131	60,07
854,54	59,98
854,949	60,19
855,357	59,91
855,766	60,24
856,174	60,05
856,583	60,27
856,991	59,63
857,399	60,27
857,807	60,3
858,215	60,04
858,623	60,16
859,031	60,37
859,439	60,43
859,846	60,28
860,254	60,27
860,661	60,23
861,069	60,06
861,476	60,37
861,883	59,91
862,29	60,16
862,697	60,02
863,104	59,86
863,511	59,91
863,918	59,83
864,325	59,91
864,731	59,52
865,138	59,78
865,544	59,95
865,95	60,06
866,357	60,25
866,763	60,42
867,169	60,06
867,575	60,03
867,98	60,22
868,386	60,32
868,792	60
869,197	60,38
869,603	59,86
870,008	60,31
870,414	59,9
870,819	59,87
871,224	59,91
871,629	59,9
872,034	60,08
872,439	60,14
872,844	59,92
873,248	60,42
873,653	60,18
874,057	59,93
874,462	59,94
874,866	60,17
875,27	59,85
875,674	60,38
876,078	59,94
876,482	60,08
876,886	60,14
877,29	59,82
877,694	59,66
878,097	59,98
878,501	59,61
878,904	59,84
879,308	59,92
879,711	59,9
880,114	60,15
880,517	59,93
880,92	60,33
881,323	60,31
881,726	59,88
882,128	59,89
882,531	60,12
882,934	60,13
883,336	59,71
883,738	60,07
884,141	60,24
884,543	60
884,945	59,47
885,347	59,87
885,749	59,77
886,151	59,84
886,552	59,78
886,954	59,51
887,355	59,79
887,757	59,81
888,158	59,87
888,56	60,11
888,961	59,9
889,362	60,02
889,763	59,93
890,164	59,89
890,565	60,05
890,965	60,17
891,366	60,32
891,767	60,34
892,167	60,25
892,567	59,68
892,968	59,85
893,368	60,03
893,768	60,01
894,168	59,93
894,568	60,05
894,968	60,01
895,368	59,95
895,767	59,89
896,167	60,02
896,566	59,83
896,966	59,99
897,365	60,15
897,764	59,79
898,164	59,87
898,563	60,2
898,962	59,87
899,361	59,94
899,759	59,74
900,158	59,87
900,557	60,23
900,955	60,19
901,354	59,8
901,752	59,82
902,15	59,93
902,548	59,9
902,947	59,62
903,345	59,93
903,742	59,92
904,14	60,12
904,538	59,88
904,936	60,26
905,333	59,83
905,731	59,37
906,128	59,75
906,525	59,79
906,923	59,75
907,32	59,72
907,717	59,82
908,114	59,87
908,511	60
908,907	59,88
909,304	59,88
909,701	59,83
910,097	59,68
910,494	60,2
910,89	59,68
911,286	59,98
911,682	59,99
912,078	59,91
912,474	60,45
912,87	59,8
913,266	59,84
913,662	59,76
914,058	59,86
914,453	60,22
914,849	60,04
915,244	59,72
915,639	60,05
916,034	59,82
916,43	59,83
916,825	59,87
917,22	60,09
917,614	59,85
918,009	59,5
918,404	59,7
918,798	59,96
919,193	59,87
919,587	59,47
919,982	59,63
920,376	59,5
920,77	59,63
921,164	59,96
921,558	60,26
921,952	59,65
922,346	59,47
922,74	59,8
923,133	59,82
923,527	59,94
923,92	59,71
924,314	59,68
924,707	59,55
925,1	59,73
925,493	59,92
925,886	59,43
926,279	59,39
926,672	59,5
927,065	59,63
927,457	59,57
927,85	59,32
928,243	59,37
928,635	59,59
929,027	59,32
929,42	59,74
929,812	59,33
930,204	59,45
930,596	59,64
930,988	59,83
931,379	59,46
931,771	59,43
932,163	59,78
932,554	59,46
932,946	59,06
933,337	59,76
933,729	59,14
934,12	59,48
934,511	59,44
934,902	59,35
935,293	59,22
935,684	59,13
936,075	59,81
936,465	59,45
936,856	58,8
937,246	59,31
937,637	58,77
938,027	59,39
938,417	59,24
938,808	58,71
939,198	58,85
939,588	59,46
939,978	59,46
940,368	58,83
940,757	58,58
941,147	58,98
941,537	59,98
941,926	58,7
942,315	58,99
942,705	59,4
943,094	58,73
943,483	59,43
943,872	59,05
944,261	59,18
944,65	59,18
945,039	59,2
945,428	58,33
945,816	59,54
946,205	58,78
946,593	58,9
946,982	59,11
947,37	58,97
947,758	59,05
948,146	58,65
948,534	58,01
948,922	58,88
949,31	58,78
949,698	58,64
950,086	58,64
950,473	58,42
950,861	58,22
951,248	58,25
951,636	58,53
952,023	58,43
952,41	57,77
952,797	58
953,184	58,34
953,571	58,29
953,958	58,24
954,345	58,45
954,731	58,13
955,118	58,11
955,505	58,19
955,891	58,39
956,277	58,14
956,664	58,29
957,05	57,81
957,436	58,2
957,822	58,52
958,208	57,98
958,594	58,19
958,979	57,64
959,365	57,29
959,751	57,89
960,136	57,34
960,522	58,03
960,907	57,94
961,292	58,01
961,677	57,77
962,062	57,64
962,447	57,82
962,832	57,64
963,217	57,64
963,602	57,81
963,986	57,94
964,371	57,38
964,756	57,96
965,14	57,95
965,524	57,52
965,908	57,79
966,293	57,52
966,677	57,41
967,061	57,94
967,445	57,92
967,828	57,92
968,212	57,97
968,596	58,21
968,979	57,63
969,363	57,68
969,746	57,47
970,129	57,95
970,513	57,76
970,896	57,44
971,279	57,74
971,662	58,12
972,045	57,53
972,428	57,83
972,81	57,62
973,193	57,45
973,575	57,83
973,958	57,68
974,34	58,13
974,723	57,96
975,105	57,92
975,487	58,1
975,869	57,87
976,251	58,09
976,633	58,15
977,015	57,68
977,396	57,94
977,778	57,77
978,16	58,09
978,541	57,52
978,922	57,58
979,304	57,83
979,685	57,81
980,066	57,9
980,447	57,65
980,828	57,88
981,209	57,7
981,59	57,61
981,97	57,66
982,351	57,91
982,732	58,16
983,112	57,5
983,493	57,93
983,873	57,85
984,253	58,2
984,633	58,35
985,013	58,04
985,393	58,16
985,773	57,69
986,153	57,75
986,533	57,93
986,912	58,29
987,292	57,8
987,671	57,84
988,051	58,46
988,43	57,88
988,809	57,71
989,188	58,57
989,567	57,65
989,946	58,2
990,325	57,74
990,704	58,61
991,083	58,17
991,461	57,73
991,84	57,73
992,218	58,07
992,597	58,59
992,975	57,95
993,353	58,47
993,732	58,07
994,11	58,26
994,488	58,33
994,866	58,35
995,243	58,6
995,621	58,11
995,999	58,24
996,376	58,53
996,754	58,03
997,131	58,18
997,509	58,22
997,886	58,17
998,263	57,81
998,64	57,94
999,017	58,77
999,394	58,25
999,771	58,34
1000,148	58,32
1000,524	58,93
1000,901	58,39
1001,277	58,84
1001,654	58,35
1002,03	58,67
1002,406	58,69
1002,783	58,95
1003,159	58,38
1003,535	57,97
1003,911	58,25
1004,286	59,56
1004,662	58,02
1005,038	58,26
1005,414	58,53
1005,789	59
1006,164	58,64
1006,54	58,47
1006,915	58,55
1007,29	58,36
1007,665	58,15
1008,04	59,23
1008,415	58,47
1008,79	58,87
1009,165	58,98
1009,54	58,67
1009,914	59,05
1010,289	59,1
1010,663	59,26
1011,038	59,35
1011,412	59,01
1011,786	59,4
1012,16	59,23
1012,535	58,6
1012,909	59,09
1013,282	58,56
1013,656	58,8
1014,03	59,09
1014,404	59,01
1014,777	58,98
1015,151	58,87
1015,524	59,33
1015,897	59,06
1016,271	59,79
1016,644	58,97
1017,017	58,97
1017,39	58,8
1017,763	58,97
1018,136	59,19
1018,508	58,48
1018,881	59,68
1019,254	58,85
1019,626	59,17
1019,999	58,51
1020,371	58,56
1020,743	59,6
1021,116	59,33
1021,488	59,26
1021,86	58,78
1022,232	59,8
1022,604	58,75
1022,975	59,35
1023,347	59,17
1023,719	59,51
1024,09	59,46
1024,462	60,19
1024,833	59,85
1025,204	59,79
1025,576	60,12
1025,947	59,63
1026,318	60,24
1026,689	59,6
1027,06	59,19
1027,431	59,58
1027,801	59,51
1028,172	59,53
1028,543	59,33
1028,913	59,66
1029,284	59,6
1029,654	59,23
1030,024	60,05
1030,394	59,11
1030,764	58,95
1031,135	59,74
1031,504	59,28
1031,874	59,53
1032,244	59,79
1032,614	59,52
1032,983	59,41
1033,353	59,33
1033,722	59,38
1034,092	59,72
1034,461	59,41
1034,83	60,2
1035,2	59,91
1035,569	59,65
1035,938	59,59
1036,307	60,58
1036,675	60,83
1037,044	59,24
1037,413	60,13
1037,781	60,21
1038,15	60,34
1038,518	60,6
1038,887	59,47
1039,255	61,16
1039,623	60,41
1039,991	60,06
1040,359	60,33
1040,727	59,91
1041,095	59,97
1041,463	60,12
1041,831	59,54
1042,198	60,31
1042,566	59,39
1042,933	60,27
1043,301	61,11
1043,668	59,83
1044,035	60,36
1044,402	60,71
1044,77	60,15
1045,137	60,31
1045,503	60,78
1045,87	60,32
1046,237	60,71
1046,604	60,77
1046,97	61,11
1047,337	60,4
1047,703	60,35
1048,07	60,56
1048,436	60,37
1048,802	59,76
1049,168	61,23
1049,534	60,94
1049,9	60,47
1050,266	60,18
1050,632	59,61
1050,998	60,7
1051,364	60,57
1051,729	60,98
1052,095	59,99
1052,46	60,25
1052,825	60,41
1053,191	60,37
1053,556	60,69
1053,921	60,85
1054,286	60,64
1054,651	59,42
1055,016	61,23
1055,381	60,65
1055,745	60,88
1056,11	60,83
1056,475	61,3
1056,839	61,43
1057,203	60,62
1057,568	61,54
1057,932	61,15
1058,296	60,91
1058,66	61,19
1059,024	61,98
1059,388	62,05
1059,752	61,27
1060,116	60,5
1060,48	61,91
1060,843	61,27
1061,207	60,88
1061,57	62,12
1061,934	61,27
1062,297	59,54
1062,66	61,55
1063,023	61,29
1063,386	61,46
1063,749	61,59
1064,112	61,85
1064,475	61,36
1064,838	60,79
1065,201	61,96
1065,563	62,81
1065,926	60,91
1066,288	61,52
1066,651	62,42
1067,013	62,26
1067,375	61,83
1067,737	61,25
1068,099	60,59
1068,461	61,87
1068,823	61,21
1069,185	62,86
1069,547	61,34
1069,909	61,4
1070,27	62,47
1070,632	61,45
1070,993	60,76
1071,355	61,69
1071,716	60,82
1072,077	60,46
1072,438	61
1072,799	60,69
1073,16	61,29
1073,521	63,02
1073,882	61,43
1074,243	61,15
1074,603	60,85
1074,964	61,68
1075,325	62,08
1075,685	61,88
1076,045	62,08
1076,406	62,04
1076,766	60,19
1077,126	61,38
1077,486	62,76
1077,846	61,17
1078,206	61,81
1078,566	60,58
1078,925	62,05
1079,285	61,94
1079,645	61,46
1080,004	62,45
1080,364	63,24
1080,723	63,5
1081,082	61,14
1081,442	61,58
1081,801	61,38
1082,16	62,99
1082,519	60,41
1082,878	62,67
1083,237	61,24
1083,595	63,47
1083,954	62,38
1084,313	61,19
1084,671	62,13
1085,03	63,1
1085,388	61,93
1085,746	61,14
1086,104	60,97
1086,463	61,15
1086,821	61,94
1087,179	61,7
1087,537	60,12
1087,894	61,08
1088,252	62,71
1088,61	63,11
1088,967	60,92
1089,325	63,05
1089,682	62,46
1090,04	61,38
1090,397	61,23
1090,754	62,21
1091,111	61,41
1091,469	61,29
1091,826	62,38
1092,182	60,52
1092,539	62,8
1092,896	61,76
1093,253	62,4
1093,609	61,05
1093,966	61,34
1094,322	62,79
1094,679	61,88
1095,035	62,79
1095,391	61,06
1095,748	62,57
1096,104	62,25
1096,46	62,24
1096,816	61,32
1097,171	62,59
1097,527	63,23
1097,883	63,89
1098,239	64,34
1098,594	62,73
1098,95	62,79
1099,305	62,67
1099,66	62,07
1100,016	62,25
1100,371	63,54
1100,726	64,38
1101,081	63,06
1101,436	62,45
1101,791	62,36
1102,146	62,59
1102,5	62,16
1102,855	63,46
1103,21	63,56
1103,564	63,8
1103,918	62,74
1104,273	64,29
1104,627	62,72
1104,981	62,82
1105,335	63,79
1105,69	63,62
1106,043	61,55
1106,397	64,73
1106,751	63,16
1107,105	62,16
1107,459	62,13
1107,812	62,29
1108,166	64,91
1108,519	64,24
1108,873	62,8
1109,226	60,24
1109,579	66,28
1109,932	61,98
1110,285	64,55
1110,638	65,74
1110,991	63,16
1111,344	63,17
1111,697	62,35
1112,05	64,97
1112,402	65,17
1112,755	62,84
1113,107	63,44
1113,46	65,39
1113,812	63,94
1114,164	64,46
1114,517	64,47
1114,869	89,97
1115,221	90,22
1115,573	86,11
1115,924	74,83
