Data from F1__Relative__2__00095.txt Node

Date: Tue Jan 30 18:00:26 CET 2024
User: diatiterra
Spectrometer: HDX00911
Trigger mode: 0
Integration Time (sec): 6,000000E-3
Scans to average: 3
Nonlinearity correction enabled: true
Boxcar width: 0
Storing dark spectrum: false
XAxis mode: Wavelengths
Number of Pixels in Spectrum: 2068
>>>>>Begin Spectral Data<<<<<
194,468	91,39
195,025	73,52
195,581	66,9
196,138	59,04
196,694	67,05
197,251	54,18
197,807	47,9
198,363	40,46
198,919	47,4
199,474	48,99
200,03	48,01
200,586	49,29
201,141	44,73
201,696	41,14
202,251	43,99
202,806	50,71
203,361	46,51
203,916	45,17
204,471	47,01
205,025	45,54
205,58	50,7
206,134	48,1
206,688	45,57
207,242	48,91
207,796	49,59
208,35	42,88
208,904	50,49
209,457	45,34
210,011	50,42
210,564	45,14
211,117	47,33
211,67	51,32
212,223	50,4
212,776	46,22
213,329	51,93
213,881	51,99
214,434	44,81
214,986	48,39
215,538	47,96
216,09	44,01
216,642	46,29
217,194	47,32
217,746	47,7
218,297	49,79
218,849	51,07
219,4	47,57
219,951	47,1
220,502	50,51
221,053	42,85
221,604	46,46
222,155	48,45
222,705	46,36
223,256	48,06
223,806	54,19
224,356	48,32
224,906	49,47
225,456	47,41
226,006	50,87
226,556	45,3
227,106	51,28
227,655	50,51
228,204	48,84
228,754	53,76
229,303	47,17
229,852	46,52
230,401	55,42
230,949	49,58
231,498	48,07
232,047	41,39
232,595	47,54
233,143	50,21
233,691	49,49
234,239	48,71
234,787	47,64
235,335	49,47
235,883	42,48
236,43	48,86
236,978	47,56
237,525	53,18
238,072	43,51
238,619	51,09
239,166	45,53
239,713	44,41
240,26	48,18
240,806	46,32
241,353	49,39
241,899	46,48
242,445	49,89
242,991	44,35
243,537	50,1
244,083	46,24
244,629	52,52
245,174	47,04
245,72	43,07
246,265	45,36
246,81	51,22
247,355	45,78
247,9	48,85
248,445	49,66
248,99	53,48
249,534	43,97
250,079	53,31
250,623	48,89
251,168	45,66
251,712	46,49
252,256	44
252,8	48,66
253,343	52,84
253,887	49,4
254,43	53,48
254,974	49,12
255,517	47,88
256,06	48,3
256,603	51,81
257,146	45,97
257,689	48,06
258,232	46,97
258,774	49,35
259,317	48,22
259,859	51,58
260,401	50,34
260,943	47,67
261,485	50,22
262,027	52
262,569	49,49
263,11	48,66
263,652	49,66
264,193	46,91
264,734	48,83
265,275	45,69
265,816	48,87
266,357	44,58
266,898	48,7
267,438	47,53
267,979	52,84
268,519	51,77
269,059	49,67
269,6	54
270,14	46,47
270,68	43,72
271,219	51,94
271,759	46,71
272,298	42,33
272,838	46,41
273,377	43,37
273,916	44,53
274,455	44,37
274,994	52,32
275,533	44,44
276,072	50,01
276,61	47,07
277,149	46,49
277,687	46,29
278,225	49,79
278,763	45,4
279,301	50,22
279,839	50,68
280,377	46,85
280,914	46,19
281,452	48,86
281,989	54,24
282,526	45,62
283,064	50,11
283,601	41,03
284,137	47,78
284,674	50
285,211	52,04
285,747	47,75
286,284	51,15
286,82	43,11
287,356	49,27
287,892	47,4
288,428	44,49
288,964	43,98
289,5	47,19
290,035	46,64
290,571	46,81
291,106	52,52
291,641	49,33
292,176	48,86
292,711	44,49
293,246	47,02
293,781	45,42
294,315	45,78
294,85	46,78
295,384	52,36
295,918	44,09
296,453	49,23
296,987	45,82
297,52	49,45
298,054	44,74
298,588	43,2
299,121	48,2
299,655	45,06
300,188	44,1
300,721	43,83
301,254	50,33
301,787	47,67
302,32	47,31
302,853	43,89
303,385	52,89
303,918	50,25
304,45	46,22
304,982	50,23
305,514	46,3
306,046	43,58
306,578	47,2
307,11	48,35
307,641	48,88
308,173	42,93
308,704	49,89
309,236	52,44
309,767	48,51
310,298	49,46
310,829	47,09
311,359	52,07
311,89	42,7
312,421	48,74
312,951	51,54
313,481	48,17
314,012	50,74
314,542	45,95
315,072	46,06
315,601	46,59
316,131	52,92
316,661	45,08
317,19	50,49
317,72	44,7
318,249	45,2
318,778	47,2
319,307	44,62
319,836	45,64
320,365	47,2
320,893	45,71
321,422	45,87
321,95	47,56
322,479	49,12
323,007	42,09
323,535	41,11
324,063	43,75
324,591	44,09
325,118	45,25
325,646	48,8
326,173	45,6
326,701	45,97
327,228	45,34
327,755	50,98
328,282	46,79
328,809	45,18
329,336	46,38
329,862	47,83
330,389	45,4
330,915	49,01
331,441	44,82
331,968	41,36
332,494	46,66
333,02	45,38
333,545	46,65
334,071	44,45
334,597	43,84
335,122	47,27
335,648	43,74
336,173	45,62
336,698	42,5
337,223	45,08
337,748	44,15
338,272	40,14
338,797	45,87
339,322	48,81
339,846	45,99
340,37	41,03
340,894	45,08
341,419	46,34
341,942	46,27
342,466	39,88
342,99	42,99
343,514	42,32
344,037	39,76
344,56	43,75
345,084	38,09
345,607	46,25
346,13	39,65
346,653	40,91
347,175	38,77
347,698	44,77
348,221	33,81
348,743	39,8
349,265	41,05
349,787	42,23
350,309	39,98
350,831	40,88
351,353	38,65
351,875	36,48
352,397	34,34
352,918	34,62
353,439	39,08
353,961	37,11
354,482	36,16
355,003	35,85
355,524	32,79
356,044	35,28
356,565	39,55
357,086	37,41
357,606	33,25
358,126	34,68
358,646	32,34
359,167	34,04
359,687	32,55
360,206	30,89
360,726	34,09
361,246	32,61
361,765	34,4
362,285	29,25
362,804	32,04
363,323	30,98
363,842	30,69
364,361	31,05
364,88	31,49
365,398	32,61
365,917	30,66
366,435	27,27
366,954	29,4
367,472	29,39
367,99	30,69
368,508	27,9
369,026	29,83
369,544	29,04
370,061	28,62
370,579	30,56
371,096	29,49
371,613	29,11
372,131	29,71
372,648	29,84
373,165	26,48
373,681	29,63
374,198	27,84
374,715	26,28
375,231	27,67
375,747	25,62
376,264	23,81
376,78	25,4
377,296	25,59
377,812	25,73
378,327	22,64
378,843	24,03
379,359	26,49
379,874	24,84
380,389	24,07
380,905	24,69
381,42	22,88
381,935	24,37
382,449	21,47
382,964	21,95
383,479	19,73
383,993	22,03
384,508	21,13
385,022	19,9
385,536	21,68
386,05	19,18
386,564	20,09
387,078	20,24
387,592	18,5
388,105	17,94
388,619	18,53
389,132	17,43
389,645	18,29
390,158	16,68
390,671	17,06
391,184	16,42
391,697	16,01
392,21	16,68
392,722	15,91
393,235	15,9
393,747	15,23
394,259	14,67
394,771	17,6
395,283	15,2
395,795	15,7
396,307	15,68
396,818	15,91
397,33	15,59
397,841	14,75
398,353	14,99
398,864	15,2
399,375	13,95
399,886	13,14
400,397	12,47
400,907	13,03
401,418	12,22
401,928	12,9
402,439	11,85
402,949	12,64
403,459	11,29
403,969	11,33
404,479	11,02
404,989	10,42
405,498	9,91
406,008	10,38
406,517	9,42
407,027	9,64
407,536	8,95
408,045	8,96
408,554	8,75
409,063	8,13
409,572	7,85
410,08	7,81
410,589	7,6
411,097	6,93
411,606	6,69
412,114	6,93
412,622	6,52
413,13	6,65
413,638	6,51
414,145	6,04
414,653	5,75
415,16	5,81
415,668	5,36
416,175	5,27
416,682	4,94
417,189	5,24
417,696	4,89
418,203	4,62
418,71	4,83
419,216	5,17
419,723	4,7
420,229	4,45
420,735	4,43
421,242	4,4
421,748	4,36
422,254	4,44
422,759	4,36
423,265	4,25
423,771	4,08
424,276	3,94
424,781	3,93
425,287	4,07
425,792	4,02
426,297	4,05
426,802	4,05
427,306	3,83
427,811	4,15
428,316	3,82
428,82	3,66
429,324	3,85
429,829	3,59
430,333	3,64
430,837	3,54
431,34	3,54
431,844	3,78
432,348	3,77
432,851	3,45
433,355	3,42
433,858	3,48
434,361	3,58
434,864	3,56
435,367	3,18
435,87	3,36
436,373	3,4
436,876	3,18
437,378	3,44
437,88	3,31
438,383	3,3
438,885	3,28
439,387	3,3
439,889	3,46
440,391	3,42
440,892	3,37
441,394	3,36
441,896	3,17
442,397	3,23
442,898	3,22
443,399	3,08
443,9	3,44
444,401	3,26
444,902	3,07
445,403	3,16
445,903	3,12
446,404	3,29
446,904	3,14
447,405	3,09
447,905	3,03
448,405	3,54
448,905	3,29
449,404	3,22
449,904	3,16
450,404	3,14
450,903	3,26
451,403	3,28
451,902	3,4
452,401	3,2
452,9	3,16
453,399	3,16
453,898	3,3
454,396	3,4
454,895	3,33
455,393	3,18
455,892	3,19
456,39	3,3
456,888	3,23
457,386	3,27
457,884	3,23
458,382	3,18
458,879	3,18
459,377	3,21
459,874	3,35
460,372	3,18
460,869	3,28
461,366	3,31
461,863	3,12
462,36	3,18
462,857	3,31
463,353	3,15
463,85	3,05
464,346	3,16
464,843	3,25
465,339	3,37
465,835	3,24
466,331	3,26
466,827	3,15
467,323	3,24
467,818	3,19
468,314	3,17
468,809	3,23
469,305	3,38
469,8	3,16
470,295	3,19
470,79	3,16
471,285	3,21
471,78	3,12
472,274	3,23
472,769	3,27
473,263	3,16
473,758	3,24
474,252	3,19
474,746	3,17
475,24	3,1
475,734	3,16
476,228	3,14
476,721	3,11
477,215	3,29
477,708	3,29
478,202	3,4
478,695	3,29
479,188	3,01
479,681	3,3
480,174	3,19
480,667	3,22
481,159	3,29
481,652	3,22
482,144	3,24
482,637	3,24
483,129	3,26
483,621	3,19
484,113	3,18
484,605	3,04
485,097	3,16
485,588	3,22
486,08	3,19
486,571	3,21
487,063	3,17
487,554	3,29
488,045	3,27
488,536	3,22
489,027	3,24
489,518	3,2
490,008	3,33
490,499	3,19
490,989	3,31
491,48	3,33
491,97	3,46
492,46	3,3
492,95	3,21
493,44	3,32
493,93	3,3
494,419	3,41
494,909	3,44
495,398	3,35
495,888	3,4
496,377	3,56
496,866	3,39
497,355	3,52
497,844	3,62
498,333	3,53
498,821	3,65
499,31	3,66
499,798	3,56
500,287	3,62
500,775	3,77
501,263	3,85
501,751	3,9
502,239	3,87
502,727	4,03
503,215	3,89
503,702	4,02
504,19	3,96
504,677	4,18
505,164	4,14
505,651	4,32
506,139	4,27
506,625	4,38
507,112	4,56
507,599	4,64
508,086	4,46
508,572	4,77
509,058	4,76
509,545	4,97
510,031	5,02
510,517	5,01
511,003	5,06
511,489	5,3
511,974	5,43
512,46	5,52
512,946	5,57
513,431	5,84
513,916	5,8
514,401	5,94
514,887	6,26
515,371	6,31
515,856	6,23
516,341	6,54
516,826	6,7
517,31	6,92
517,795	7,1
518,279	7,19
518,763	7,26
519,247	7,44
519,731	7,64
520,215	7,8
520,699	8,02
521,182	8,07
521,666	8,38
522,149	8,37
522,633	8,54
523,116	8,63
523,599	8,95
524,082	9,07
524,565	9,43
525,048	9,41
525,53	9,65
526,013	9,75
526,495	9,84
526,978	9,94
527,46	10,17
527,942	10,27
528,424	10,31
528,906	10,64
529,388	10,6
529,87	10,96
530,351	10,84
530,833	10,97
531,314	11,15
531,795	11,24
532,277	11,32
532,758	11,48
533,238	11,49
533,719	11,52
534,2	11,52
534,681	11,61
535,161	11,66
535,642	11,75
536,122	11,71
536,602	11,82
537,082	11,96
537,562	11,95
538,042	12,12
538,522	11,9
539,001	12,03
539,481	12,19
539,96	12,03
540,44	12,17
540,919	12,15
541,398	12,41
541,877	12,39
542,356	12,31
542,835	12,35
543,313	12,26
543,792	12,35
544,27	12,38
544,749	12,29
545,227	12,45
545,705	12,26
546,183	12,5
546,661	12,43
547,139	12,5
547,616	12,52
548,094	12,44
548,571	12,56
549,049	12,59
549,526	12,61
550,003	12,6
550,48	12,63
550,957	12,69
551,434	12,75
551,911	12,63
552,387	12,8
552,864	12,55
553,34	12,72
553,817	12,71
554,293	12,74
554,769	12,83
555,245	12,59
555,721	12,59
556,197	12,57
556,672	12,59
557,148	12,7
557,623	12,68
558,099	12,58
558,574	12,33
559,049	12,6
559,524	12,55
559,999	12,51
560,474	12,29
560,948	12,41
561,423	12,35
561,897	12,13
562,372	12,32
562,846	12,12
563,32	12,03
563,794	12,01
564,268	11,72
564,742	11,75
565,216	11,79
565,69	11,68
566,163	11,51
566,636	11,63
567,11	11,54
567,583	11,27
568,056	11,27
568,529	11,27
569,002	11,04
569,475	11,02
569,947	10,89
570,42	10,78
570,892	10,71
571,365	10,6
571,837	10,32
572,309	10,45
572,781	10,36
573,253	10,28
573,725	10,06
574,197	9,9
574,668	10,01
575,14	9,81
575,611	9,71
576,082	9,72
576,554	9,65
577,025	9,51
577,496	9,53
577,967	9,34
578,437	9,22
578,908	9,22
579,379	9,04
579,849	9,07
580,319	8,97
580,79	8,92
581,26	8,87
581,73	8,67
582,2	8,81
582,669	8,71
583,139	8,6
583,609	8,48
584,078	8,48
584,548	8,42
585,017	8,45
585,486	8,35
585,955	8,25
586,424	8,14
586,893	8,19
587,362	8,23
587,83	8,03
588,299	8,07
588,767	8,07
589,236	7,97
589,704	7,95
590,172	7,98
590,64	7,78
591,108	7,87
591,576	7,75
592,043	7,83
592,511	7,75
592,978	7,71
593,446	7,73
593,913	7,63
594,38	7,63
594,847	7,62
595,314	7,53
595,781	7,61
596,248	7,52
596,715	7,36
597,181	7,51
597,647	7,47
598,114	7,46
598,58	7,49
599,046	7,42
599,512	7,38
599,978	7,39
600,444	7,37
600,91	7,37
601,375	7,37
601,841	7,31
602,306	7,33
602,771	7,3
603,236	7,23
603,702	7,15
604,167	7,11
604,631	7,16
605,096	7,11
605,561	7,06
606,025	7,05
606,49	6,99
606,954	6,97
607,418	6,98
607,882	6,87
608,347	6,87
608,81	6,77
609,274	6,77
609,738	6,7
610,202	6,68
610,665	6,53
611,128	6,48
611,592	6,53
612,055	6,48
612,518	6,43
612,981	6,45
613,444	6,39
613,907	6,21
614,369	6,26
614,832	6,27
615,294	6,11
615,757	6,17
616,219	6,11
616,681	6,06
617,143	5,97
617,605	5,94
618,067	5,93
618,529	5,81
618,99	5,81
619,452	5,83
619,913	5,77
620,375	5,71
620,836	5,7
621,297	5,61
621,758	5,69
622,219	5,59
622,68	5,65
623,14	5,61
623,601	5,64
624,061	5,51
624,522	5,55
624,982	5,46
625,442	5,52
625,902	5,51
626,362	5,51
626,822	5,42
627,282	5,5
627,742	5,44
628,201	5,49
628,661	5,47
629,12	5,46
629,579	5,45
630,038	5,42
630,497	5,41
630,956	5,31
631,415	5,38
631,874	5,3
632,332	5,4
632,791	5,43
633,249	5,27
633,708	5,33
634,166	5,32
634,624	5,23
635,082	5,25
635,54	5,22
635,998	5,18
636,455	5,15
636,913	5,07
637,37	5,03
637,828	4,97
638,285	4,96
638,742	4,94
639,199	4,86
639,656	4,73
640,113	4,79
640,57	4,75
641,027	4,67
641,483	4,62
641,94	4,57
642,396	4,51
642,852	4,38
643,309	4,37
643,765	4,29
644,221	4,27
644,676	4,16
645,132	4,22
645,588	4,13
646,043	4,08
646,499	4
646,954	3,97
647,409	3,93
647,864	3,85
648,319	3,85
648,774	3,79
649,229	3,76
649,684	3,73
650,139	3,71
650,593	3,7
651,047	3,65
651,502	3,67
651,956	3,61
652,41	3,56
652,864	3,59
653,318	3,57
653,772	3,53
654,225	3,52
654,679	3,46
655,133	3,54
655,586	3,48
656,039	3,45
656,492	3,34
656,946	3,38
657,399	3,42
657,851	3,35
658,304	3,32
658,757	3,24
659,209	3,23
659,662	3,26
660,114	3,19
660,567	3,2
661,019	3,11
661,471	3,15
661,923	3,08
662,375	3,09
662,826	3,07
663,278	2,98
663,73	3
664,181	3,04
664,632	2,97
665,084	2,99
665,535	2,96
665,986	2,96
666,437	2,91
666,888	2,93
667,338	2,93
667,789	2,96
668,24	2,97
668,69	2,96
669,14	2,99
669,591	3
670,041	3,02
670,491	3,01
670,941	3,02
671,391	3,03
671,84	3,08
672,29	3,1
672,74	3,12
673,189	3,09
673,638	3,16
674,088	3,22
674,537	3,21
674,986	3,28
675,435	3,25
675,883	3,35
676,332	3,4
676,781	3,44
677,229	3,46
677,678	3,53
678,126	3,57
678,574	3,68
679,022	3,65
679,47	3,75
679,918	3,81
680,366	3,81
680,814	3,92
681,261	3,94
681,709	4,07
682,156	4,07
682,604	4,09
683,051	4,18
683,498	4,24
683,945	4,25
684,392	4,36
684,839	4,31
685,286	4,4
685,732	4,46
686,179	4,46
686,625	4,6
687,071	4,69
687,518	4,72
687,964	4,86
688,41	4,93
688,856	5,05
689,301	5,15
689,747	5,19
690,193	5,35
690,638	5,51
691,084	5,71
691,529	5,79
691,974	6,03
692,419	6,23
692,864	6,4
693,309	6,65
693,754	6,95
694,199	7,14
694,643	7,35
695,088	7,65
695,532	8,02
695,977	8,28
696,421	8,49
696,865	8,79
697,309	9,1
697,753	9,51
698,197	9,64
698,64	9,96
699,084	10,32
699,527	10,66
699,971	10,99
700,414	11,27
700,857	11,65
701,3	11,96
701,743	12,12
702,186	12,5
702,629	12,86
703,072	13,08
703,515	13,45
703,957	13,73
704,399	14,15
704,842	14,29
705,284	14,62
705,726	14,9
706,168	15,2
706,61	15,44
707,052	15,77
707,494	16,04
707,935	16,19
708,377	16,54
708,818	16,85
709,26	17,1
709,701	17,29
710,142	17,41
710,583	17,75
711,024	18,15
711,465	18,27
711,905	18,52
712,346	18,75
712,787	19,02
713,227	19,16
713,667	19,51
714,108	19,74
714,548	20,06
714,988	20,19
715,428	20,52
715,868	20,62
716,307	20,76
716,747	21,31
717,186	21,23
717,626	21,51
718,065	21,83
718,504	21,82
718,944	22,2
719,383	22,22
719,822	22,44
720,261	22,54
720,699	22,78
721,138	22,92
721,576	23,17
722,015	23,4
722,453	23,46
722,892	23,78
723,33	23,96
723,768	24,02
724,206	24,3
724,644	24,37
725,081	24,4
725,519	24,54
725,957	24,67
726,394	25,01
726,832	24,87
727,269	25,24
727,706	25,19
728,143	25,45
728,58	25,51
729,017	25,59
729,454	25,86
729,89	25,94
730,327	25,85
730,764	25,98
731,2	26,06
731,636	26,21
732,072	26,42
732,509	26,44
732,945	26,45
733,38	26,38
733,816	26,7
734,252	26,52
734,688	26,63
735,123	26,62
735,559	26,91
735,994	26,81
736,429	26,92
736,864	26,97
737,299	26,86
737,734	27,15
738,169	27,1
738,604	27
739,038	27,14
739,473	27,17
739,907	27,48
740,342	27,26
740,776	27,12
741,21	27,46
741,644	27,36
742,078	27,41
742,512	27,26
742,946	27,45
743,379	27,28
743,813	27,45
744,246	27,37
744,68	27,44
745,113	27,4
745,546	27,44
745,979	27,45
746,412	27,57
746,845	27,34
747,278	27,55
747,711	27,6
748,143	27,41
748,576	27,49
749,008	27,46
749,441	27,35
749,873	27,47
750,305	27,45
750,737	27,46
751,169	27,32
751,601	27,43
752,032	27,48
752,464	27,41
752,896	27,5
753,327	27,3
753,758	27,32
754,19	27,28
754,621	27,36
755,052	27,28
755,483	27,34
755,914	27,3
756,344	27,33
756,775	27,45
757,206	27,42
757,636	27,38
758,066	27,27
758,497	27,33
758,927	27,01
759,357	27,16
759,787	27,22
760,217	27,29
760,647	27,19
761,076	27,27
761,506	27,13
761,935	27,07
762,365	27,09
762,794	27,07
763,223	27,1
763,653	27,25
764,082	26,97
764,51	27,03
764,939	27,07
765,368	27,11
765,797	27
766,225	27,18
766,654	26,94
767,082	26,85
767,51	27,06
767,938	26,84
768,367	26,97
768,795	26,88
769,222	27,05
769,65	26,97
770,078	26,89
770,505	26,76
770,933	26,77
771,36	26,8
771,788	26,75
772,215	26,98
772,642	26,74
773,069	26,81
773,496	26,8
773,923	26,65
774,349	26,76
774,776	26,67
775,203	26,65
775,629	26,79
776,055	26,68
776,482	26,7
776,908	26,87
777,334	26,71
777,76	26,75
778,186	26,68
778,611	26,83
779,037	26,5
779,463	26,73
779,888	26,57
780,314	26,76
780,739	26,68
781,164	26,47
781,589	26,56
782,014	26,59
782,439	26,77
782,864	26,64
783,289	26,7
783,713	26,58
784,138	26,49
784,562	26,58
784,987	26,63
785,411	26,65
785,835	26,62
786,259	26,57
786,683	26,7
787,107	26,68
787,531	26,36
787,954	26,5
788,378	26,71
788,802	26,6
789,225	26,62
789,648	26,56
790,071	26,42
790,495	26,46
790,918	26,56
791,34	26,61
791,763	26,64
792,186	26,59
792,609	26,54
793,031	26,42
793,454	26,49
793,876	26,56
794,298	26,56
794,721	26,51
795,143	26,7
795,565	26,6
795,986	26,54
796,408	26,48
796,83	26,5
797,252	26,46
797,673	26,64
798,094	26,44
798,516	26,58
798,937	26,7
799,358	26,48
799,779	26,45
800,2	26,36
800,621	26,55
801,042	26,4
801,462	26,36
801,883	26,55
802,303	26,47
802,724	26,25
803,144	26,6
803,564	26,36
803,984	26,36
804,404	26,47
804,824	26,63
805,244	26,55
805,664	26,61
806,084	26,5
806,503	26,59
806,923	26,42
807,342	26,37
807,761	26,14
808,18	26,6
808,599	26,45
809,018	26,44
809,437	26,43
809,856	26,29
810,275	26,21
810,693	26,41
811,112	26,43
811,53	26,29
811,949	26,47
812,367	26,28
812,785	26,32
813,203	26,35
813,621	26,48
814,039	26,32
814,457	26,11
814,874	26,44
815,292	26,47
815,709	26,33
816,127	26,49
816,544	26,52
816,961	26,42
817,378	26,63
817,795	26,47
818,212	26,4
818,629	26,29
819,046	26,27
819,462	26,43
819,879	26,48
820,295	26,15
820,712	26,33
821,128	26,37
821,544	26,3
821,96	26,53
822,376	26,38
822,792	26,3
823,208	26,26
823,624	26,48
824,039	26,23
824,455	26,37
824,87	26,4
825,286	26,4
825,701	26,33
826,116	26,31
826,531	26,2
826,946	26,48
827,361	26,24
827,776	26,28
828,19	26,31
828,605	26,25
829,02	26,27
829,434	26,26
829,848	26,46
830,263	26,43
830,677	26,33
831,091	26,38
831,505	26,18
831,919	26,3
832,332	26,15
832,746	26,3
833,16	26,24
833,573	26,34
833,987	26,22
834,4	26,12
834,813	26,26
835,226	26,28
835,639	26,23
836,052	26,16
836,465	26,27
836,878	26,34
837,29	26,25
837,703	26,34
838,116	26,22
838,528	26,13
838,94	26,39
839,352	26,27
839,765	26,33
840,177	26,24
840,589	26,25
841	26,2
841,412	26,14
841,824	26,28
842,235	26,2
842,647	26,28
843,058	26,33
843,47	26,14
843,881	26,25
844,292	26,37
844,703	25,99
845,114	26,47
845,525	26,21
845,935	26,32
846,346	26,39
846,757	26,05
847,167	26,28
847,577	26,35
847,988	25,9
848,398	26,15
848,808	26,06
849,218	26,09
849,628	26,07
850,038	26,22
850,448	26,04
850,857	26,22
851,267	26,14
851,676	26,23
852,086	26,38
852,495	26,13
852,904	26,22
853,313	26,1
853,722	26,23
854,131	26,18
854,54	26,28
854,949	26,22
855,357	26,16
855,766	26,15
856,174	26,02
856,583	26,04
856,991	26,13
857,399	26,08
857,807	26,19
858,215	26,26
858,623	26,23
859,031	26,27
859,439	26,16
859,846	26,19
860,254	26,11
860,661	26,21
861,069	26,11
861,476	26,23
861,883	26,18
862,29	26,14
862,697	26
863,104	26,05
863,511	26,11
863,918	26,06
864,325	26,19
864,731	25,97
865,138	26,04
865,544	26,28
865,95	26,02
866,357	26,02
866,763	26,15
867,169	26,23
867,575	26
867,98	26,16
868,386	26,36
868,792	26,05
869,197	26,24
869,603	25,98
870,008	26,2
870,414	25,96
870,819	25,98
871,224	26,04
871,629	26,18
872,034	26,19
872,439	26,14
872,844	25,98
873,248	26,11
873,653	26,02
874,057	25,99
874,462	26,1
874,866	26,13
875,27	25,94
875,674	26,24
876,078	26,02
876,482	26,01
876,886	25,91
877,29	25,89
877,694	25,97
878,097	25,97
878,501	25,86
878,904	26
879,308	26,01
879,711	26,15
880,114	26,13
880,517	26,06
880,92	26,09
881,323	26,16
881,726	26
882,128	25,92
882,531	26,21
882,934	26,01
883,336	26,05
883,738	26,08
884,141	26,02
884,543	26,07
884,945	25,92
885,347	26,32
885,749	25,96
886,151	25,87
886,552	26,02
886,954	25,84
887,355	25,92
887,757	25,85
888,158	25,95
888,56	26,11
888,961	26,07
889,362	26,07
889,763	26,07
890,164	26,1
890,565	26,11
890,965	26,03
891,366	26,16
891,767	26,34
892,167	26,22
892,567	26,05
892,968	26,13
893,368	26,06
893,768	25,91
894,168	25,97
894,568	25,93
894,968	26,07
895,368	25,97
895,767	26,1
896,167	26,3
896,566	26,01
896,966	26,01
897,365	26,09
897,764	25,93
898,164	26,14
898,563	26,12
898,962	26,05
899,361	26,02
899,759	25,98
900,158	25,97
900,557	26,01
900,955	26,07
901,354	25,86
901,752	26,04
902,15	26,11
902,548	25,9
902,947	25,91
903,345	26,02
903,742	26,1
904,14	26,02
904,538	26,03
904,936	25,96
905,333	25,91
905,731	25,87
906,128	25,96
906,525	26,02
906,923	26,06
907,32	26,08
907,717	26,06
908,114	26,11
908,511	25,94
908,907	25,93
909,304	25,87
909,701	25,96
910,097	25,86
910,494	26,04
910,89	25,9
911,286	25,98
911,682	25,99
912,078	26,05
912,474	26,09
912,87	25,95
913,266	25,88
913,662	26,1
914,058	25,88
914,453	26,1
914,849	26,01
915,244	25,98
915,639	26
916,034	26,09
916,43	25,97
916,825	26,14
917,22	26,05
917,614	25,88
918,009	25,91
918,404	25,62
918,798	25,82
919,193	25,84
919,587	26
919,982	25,77
920,376	26,04
920,77	25,96
921,164	25,78
921,558	26,03
921,952	26,09
922,346	25,78
922,74	26,11
923,133	26,18
923,527	25,82
923,92	25,84
924,314	26
924,707	25,79
925,1	26,05
925,493	26,04
925,886	25,96
926,279	25,93
926,672	25,78
927,065	25,98
927,457	25,79
927,85	25,79
928,243	25,82
928,635	26,01
929,027	25,98
929,42	25,93
929,812	25,59
930,204	25,78
930,596	26,04
930,988	26,12
931,379	25,79
931,771	25,67
932,163	26,04
932,554	25,75
932,946	25,53
933,337	25,63
933,729	25,63
934,12	25,66
934,511	25,83
934,902	25,4
935,293	25,9
935,684	25,74
936,075	25,7
936,465	25,83
936,856	25,57
937,246	25,87
937,637	25,99
938,027	26,01
938,417	25,65
938,808	25,59
939,198	25,73
939,588	26,02
939,978	25,72
940,368	25,78
940,757	25,56
941,147	25,86
941,537	25,84
941,926	25,43
942,315	25,47
942,705	26,24
943,094	25,41
943,483	25,78
943,872	25,57
944,261	25,74
944,65	25,62
945,039	25,76
945,428	25,5
945,816	25,72
946,205	25,29
946,593	25,42
946,982	25,67
947,37	25,99
947,758	25,53
948,146	25,44
948,534	25,47
948,922	25,39
949,31	25,36
949,698	25,65
950,086	25,53
950,473	25,57
950,861	25,64
951,248	25,66
951,636	25,61
952,023	25,28
952,41	25,35
952,797	25,15
953,184	25,61
953,571	25,45
953,958	25,21
954,345	25,59
954,731	25,37
955,118	25,04
955,505	25,29
955,891	25,59
956,277	25,14
956,664	25,32
957,05	24,98
957,436	25,44
957,822	25,14
958,208	25,3
958,594	25,32
958,979	25,1
959,365	24,92
959,751	25,22
960,136	24,7
960,522	24,8
960,907	24,95
961,292	25,19
961,677	25,28
962,062	24,91
962,447	24,88
962,832	25,23
963,217	24,93
963,602	25,16
963,986	25,07
964,371	25,07
964,756	25,11
965,14	25,2
965,524	24,97
965,908	25,01
966,293	24,97
966,677	24,96
967,061	25,19
967,445	25,02
967,828	25,37
968,212	25,18
968,596	25,33
968,979	25,2
969,363	25,07
969,746	25,03
970,129	24,73
970,513	25,16
970,896	25,06
971,279	25,15
971,662	25,03
972,045	25,07
972,428	24,89
972,81	25,14
973,193	24,95
973,575	25,13
973,958	25,04
974,34	24,96
974,723	25
975,105	25,03
975,487	24,95
975,869	24,99
976,251	25,11
976,633	24,93
977,015	25,05
977,396	25,09
977,778	25,11
978,16	24,87
978,541	24,97
978,922	24,84
979,304	25,21
979,685	24,97
980,066	25,17
980,447	24,92
980,828	25,12
981,209	25,03
981,59	25,12
981,97	25,18
982,351	25,12
982,732	25,12
983,112	25,17
983,493	25,21
983,873	25,13
984,253	25,12
984,633	24,91
985,013	25,12
985,393	25,11
985,773	24,85
986,153	25,07
986,533	25,03
986,912	25,26
987,292	25,08
987,671	25,26
988,051	25,21
988,43	25,03
988,809	25,05
989,188	25,27
989,567	25,05
989,946	25,27
990,325	25,07
990,704	25,1
991,083	24,99
991,461	25,05
991,84	25,12
992,218	25,28
992,597	25,32
992,975	25,14
993,353	25,25
993,732	25,38
994,11	25,26
994,488	25,28
994,866	25,33
995,243	25,11
995,621	25,37
995,999	25,33
996,376	25,26
996,754	24,96
997,131	25,18
997,509	25,14
997,886	25,16
998,263	25,33
998,64	25,24
999,017	25,17
999,394	25,48
999,771	25,02
1000,148	25,06
1000,524	25,47
1000,901	25,29
1001,277	25,65
1001,654	25,1
1002,03	25,63
1002,406	25,47
1002,783	25,3
1003,159	25,36
1003,535	25,29
1003,911	25,16
1004,286	25,54
1004,662	25,57
1005,038	25,43
1005,414	25,5
1005,789	25,23
1006,164	25,04
1006,54	25,39
1006,915	25,03
1007,29	25,43
1007,665	25,58
1008,04	25,19
1008,415	25,29
1008,79	25,62
1009,165	25,4
1009,54	25,91
1009,914	25,59
1010,289	25,56
1010,663	25,71
1011,038	25,91
1011,412	25,39
1011,786	25,9
1012,16	25,48
1012,535	25,54
1012,909	25,57
1013,282	26,02
1013,656	25,61
1014,03	25,29
1014,404	25,96
1014,777	25,64
1015,151	25,53
1015,524	25,87
1015,897	25,73
1016,271	25,84
1016,644	25,62
1017,017	25,84
1017,39	25,72
1017,763	25,62
1018,136	25,57
1018,508	25,61
1018,881	25,51
1019,254	26,01
1019,626	25,47
1019,999	25,75
1020,371	25,52
1020,743	25,54
1021,116	25,63
1021,488	25,82
1021,86	25,84
1022,232	25,82
1022,604	25,68
1022,975	25,83
1023,347	25,93
1023,719	25,92
1024,09	25,96
1024,462	25,9
1024,833	25,78
1025,204	26,34
1025,576	26,23
1025,947	26,14
1026,318	26,25
1026,689	26,08
1027,06	25,6
1027,431	25,89
1027,801	25,66
1028,172	25,97
1028,543	26,01
1028,913	26,38
1029,284	26,02
1029,654	26,2
1030,024	26,5
1030,394	25,59
1030,764	26,04
1031,135	26,23
1031,504	26
1031,874	25,67
1032,244	25,98
1032,614	25,92
1032,983	26,34
1033,353	26,23
1033,722	26,02
1034,092	26,18
1034,461	26,05
1034,83	26,3
1035,2	26,24
1035,569	26,39
1035,938	26,08
1036,307	26,11
1036,675	26,16
1037,044	25,93
1037,413	26,82
1037,781	26,32
1038,15	26,21
1038,518	26,57
1038,887	26,38
1039,255	26,32
1039,623	25,95
1039,991	26,38
1040,359	26,7
1040,727	26,43
1041,095	26,08
1041,463	26,95
1041,831	26,17
1042,198	26,52
1042,566	25,75
1042,933	26,41
1043,301	26,45
1043,668	26,37
1044,035	26,51
1044,402	26,67
1044,77	26,54
1045,137	26,23
1045,503	26,18
1045,87	26,66
1046,237	26,71
1046,604	26,44
1046,97	26,71
1047,337	26,53
1047,703	26,56
1048,07	26,68
1048,436	26,49
1048,802	27,06
1049,168	26,42
1049,534	26,77
1049,9	26,78
1050,266	26,46
1050,632	26,73
1050,998	26,94
1051,364	26,95
1051,729	27,19
1052,095	26,33
1052,46	26,77
1052,825	26,56
1053,191	26,14
1053,556	27,11
1053,921	26,75
1054,286	27,17
1054,651	26,59
1055,016	26,57
1055,381	26,88
1055,745	26,81
1056,11	26,98
1056,475	26,4
1056,839	27,28
1057,203	26,58
1057,568	27,08
1057,932	27,25
1058,296	27
1058,66	27,04
1059,024	26,59
1059,388	27,08
1059,752	27,35
1060,116	27,13
1060,48	27,62
1060,843	27,53
1061,207	27,1
1061,57	27,83
1061,934	27,7
1062,297	26,92
1062,66	27,3
1063,023	27,39
1063,386	27,06
1063,749	28,01
1064,112	28,17
1064,475	27,66
1064,838	26,86
1065,201	27
1065,563	27
1065,926	27,62
1066,288	27,55
1066,651	28,07
1067,013	27,71
1067,375	28,32
1067,737	25,95
1068,099	27,55
1068,461	27,16
1068,823	27,76
1069,185	27,89
1069,547	27,64
1069,909	27,54
1070,27	27,88
1070,632	27,28
1070,993	27,54
1071,355	27,89
1071,716	27,4
1072,077	27,33
1072,438	27,24
1072,799	26,48
1073,16	28,64
1073,521	28
1073,882	27,62
1074,243	28,09
1074,603	27,75
1074,964	27,52
1075,325	27,12
1075,685	27,28
1076,045	27,68
1076,406	27,29
1076,766	27,15
1077,126	27,27
1077,486	27,72
1077,846	27,61
1078,206	28,06
1078,566	27,95
1078,925	27,54
1079,285	27,73
1079,645	27,84
1080,004	27,83
1080,364	28,11
1080,723	28,69
1081,082	27,83
1081,442	27,85
1081,801	27,57
1082,16	29,06
1082,519	27,5
1082,878	27,65
1083,237	28,17
1083,595	28,38
1083,954	28,06
1084,313	27,73
1084,671	28,64
1085,03	28,35
1085,388	27,89
1085,746	28,68
1086,104	28,02
1086,463	28,13
1086,821	27,8
1087,179	27,8
1087,537	27,51
1087,894	28,04
1088,252	28,62
1088,61	28,56
1088,967	27,81
1089,325	28,36
1089,682	28,04
1090,04	28,28
1090,397	27,83
1090,754	29,12
1091,111	28,05
1091,469	28,02
1091,826	28,97
1092,182	28,79
1092,539	28,26
1092,896	28,09
1093,253	28,92
1093,609	28,03
1093,966	29,44
1094,322	29,25
1094,679	28,7
1095,035	28,84
1095,391	29,39
1095,748	28,74
1096,104	29,79
1096,46	29,17
1096,816	28,3
1097,171	28,06
1097,527	30,18
1097,883	28,78
1098,239	29,92
1098,594	29,44
1098,95	28,63
1099,305	28,8
1099,66	30,38
1100,016	29,17
1100,371	29,25
1100,726	29,83
1101,081	29,99
1101,436	29,32
1101,791	29,82
1102,146	28,85
1102,5	29,06
1102,855	29,24
1103,21	29,33
1103,564	31,01
1103,918	29,69
1104,273	30,81
1104,627	30,07
1104,981	31,02
1105,335	29,23
1105,69	29,53
1106,043	29,26
1106,397	29,55
1106,751	29,4
1107,105	30,53
1107,459	29,48
1107,812	29,51
1108,166	31,26
1108,519	30,97
1108,873	31,69
1109,226	29,76
1109,579	33,56
1109,932	29,24
1110,285	30,04
1110,638	31,54
1110,991	31,51
1111,344	30,41
1111,697	30,97
1112,05	30,62
1112,402	32,1
1112,755	31,03
1113,107	30,99
1113,46	31,64
1113,812	32,7
1114,164	31,22
1114,517	32,15
1114,869	73,31
1115,221	66,62
1115,573	72,76
1115,924	70,72
