Data from G4__Relative__2__00126.txt Node

Date: Tue Jan 30 18:06:07 CET 2024
User: diatiterra
Spectrometer: HDX00911
Trigger mode: 0
Integration Time (sec): 6,000000E-3
Scans to average: 3
Nonlinearity correction enabled: true
Boxcar width: 0
Storing dark spectrum: false
XAxis mode: Wavelengths
Number of Pixels in Spectrum: 2068
>>>>>Begin Spectral Data<<<<<
194,468	145,79
195,025	113,19
195,581	117,77
196,138	115,81
196,694	102,54
197,251	95,29
197,807	91,19
198,363	86,17
198,919	95,45
199,474	98,44
200,03	90,36
200,586	84,04
201,141	84,4
201,696	81,55
202,251	87,98
202,806	85,74
203,361	88,16
203,916	81,31
204,471	89,07
205,025	84,81
205,58	90,3
206,134	90,3
206,688	87,54
207,242	83,28
207,796	83,53
208,35	84,16
208,904	87,71
209,457	82,34
210,011	94,31
210,564	83,75
211,117	88,11
211,67	101,55
212,223	90,24
212,776	89,71
213,329	90,56
213,881	89,94
214,434	81,06
214,986	89,72
215,538	92,88
216,09	89,65
216,642	84,36
217,194	87,23
217,746	90,79
218,297	82,46
218,849	94
219,4	89,43
219,951	89,88
220,502	91,14
221,053	85,5
221,604	85,28
222,155	85,83
222,705	86,28
223,256	85,32
223,806	90,4
224,356	85,56
224,906	85,35
225,456	85,7
226,006	82,83
226,556	84,36
227,106	89,32
227,655	90,85
228,204	95,18
228,754	85,56
229,303	86,08
229,852	93,92
230,401	87,92
230,949	94,01
231,498	84,08
232,047	83,6
232,595	89,3
233,143	90,68
233,691	88,06
234,239	84,21
234,787	86,91
235,335	88,77
235,883	82,97
236,43	90,68
236,978	83,73
237,525	87,27
238,072	81,79
238,619	86,74
239,166	83,55
239,713	90,86
240,26	88,22
240,806	88,77
241,353	85,93
241,899	84,76
242,445	87,31
242,991	86,24
243,537	83,93
244,083	85,59
244,629	85,45
245,174	82,91
245,72	91,04
246,265	98,17
246,81	88,53
247,355	94,16
247,9	89,73
248,445	94,29
248,99	94,36
249,534	94,65
250,079	93,62
250,623	81,15
251,168	86,98
251,712	80,67
252,256	81,8
252,8	85,68
253,343	92,42
253,887	82,4
254,43	95,63
254,974	89,17
255,517	91,51
256,06	89,81
256,603	95,53
257,146	95,65
257,689	95,66
258,232	94,59
258,774	87,34
259,317	90,19
259,859	79,7
260,401	95,32
260,943	89,41
261,485	90,97
262,027	90,68
262,569	88,79
263,11	87,06
263,652	92,17
264,193	86,29
264,734	89,56
265,275	87,42
265,816	85,3
266,357	87,29
266,898	87,45
267,438	92,61
267,979	95,94
268,519	92,52
269,059	88,85
269,6	93,79
270,14	90,9
270,68	86,43
271,219	95,69
271,759	88,16
272,298	83,36
272,838	91,07
273,377	85,68
273,916	84,24
274,455	83,33
274,994	90,74
275,533	87,56
276,072	89,71
276,61	93,48
277,149	83,44
277,687	86,69
278,225	83,33
278,763	94,62
279,301	86,7
279,839	95,24
280,377	87,86
280,914	80,93
281,452	91,11
281,989	97,45
282,526	82,89
283,064	90,55
283,601	82,29
284,137	87,79
284,674	87,77
285,211	86,67
285,747	83,52
286,284	92,71
286,82	85,11
287,356	85,39
287,892	100,98
288,428	85,46
288,964	85,27
289,5	85,94
290,035	93,74
290,571	81,07
291,106	92,87
291,641	94,59
292,176	85,03
292,711	95,47
293,246	85,96
293,781	87,04
294,315	82,07
294,85	95,88
295,384	89,93
295,918	83,96
296,453	86,44
296,987	90,8
297,52	82,35
298,054	88,16
298,588	93,21
299,121	88,93
299,655	85,41
300,188	87,56
300,721	85,24
301,254	90,38
301,787	87,08
302,32	89,91
302,853	81,58
303,385	84,67
303,918	93,8
304,45	79,48
304,982	87,52
305,514	91,02
306,046	81,68
306,578	85,14
307,11	80,36
307,641	89,61
308,173	99,31
308,704	88,71
309,236	87,26
309,767	85,54
310,298	88,5
310,829	88,13
311,359	83,4
311,89	85,85
312,421	86,98
312,951	87,89
313,481	90,62
314,012	87,38
314,542	87,54
315,072	79,54
315,601	84,25
316,131	87,24
316,661	82,28
317,19	87,82
317,72	81,29
318,249	84,65
318,778	89,45
319,307	82,29
319,836	85,92
320,365	87,64
320,893	88,58
321,422	83,48
321,95	83,65
322,479	83,12
323,007	80,55
323,535	81,37
324,063	85,73
324,591	84,56
325,118	86,33
325,646	88,41
326,173	84,21
326,701	86,5
327,228	87,12
327,755	96,65
328,282	82,48
328,809	84
329,336	87,57
329,862	83,48
330,389	84,12
330,915	85,38
331,441	84,36
331,968	83,37
332,494	78,58
333,02	86,46
333,545	86,83
334,071	87,78
334,597	82,25
335,122	84,25
335,648	81,04
336,173	88,12
336,698	84,18
337,223	85,24
337,748	80,53
338,272	81,99
338,797	77,66
339,322	84,98
339,846	80,7
340,37	91,94
340,894	80,56
341,419	82,88
341,942	77,52
342,466	73,75
342,99	78,39
343,514	84,66
344,037	73,21
344,56	84,54
345,084	72,7
345,607	91,3
346,13	79,49
346,653	73,3
347,175	77,35
347,698	80,81
348,221	70,76
348,743	73,77
349,265	79,35
349,787	78,58
350,309	76,22
350,831	79,79
351,353	71,03
351,875	68,29
352,397	69,46
352,918	73,17
353,439	74,7
353,961	72,02
354,482	67,03
355,003	69,53
355,524	69,01
356,044	68,1
356,565	70,31
357,086	68,52
357,606	69,87
358,126	69,67
358,646	68,35
359,167	71,33
359,687	68,06
360,206	66,56
360,726	69,08
361,246	66,26
361,765	71,15
362,285	62,84
362,804	64,09
363,323	65,8
363,842	64,24
364,361	65,48
364,88	65,56
365,398	64,44
365,917	69,1
366,435	62,25
366,954	69,55
367,472	62,15
367,99	69,34
368,508	61,98
369,026	62,83
369,544	65,2
370,061	63,84
370,579	64,58
371,096	61,23
371,613	66,15
372,131	63,46
372,648	60,23
373,165	59,01
373,681	60,56
374,198	63,36
374,715	62,49
375,231	60,65
375,747	61,02
376,264	56,43
376,78	63,35
377,296	56,78
377,812	57,57
378,327	60,82
378,843	57,69
379,359	55,65
379,874	57,79
380,389	56,85
380,905	58,27
381,42	53,82
381,935	50,75
382,449	51,04
382,964	51,7
383,479	52,43
383,993	49,84
384,508	49,66
385,022	46,28
385,536	50,31
386,05	50,53
386,564	48,61
387,078	48,67
387,592	47,52
388,105	44,83
388,619	44,85
389,132	45,29
389,645	44,37
390,158	43,42
390,671	43,84
391,184	43,76
391,697	42,38
392,21	43,92
392,722	42,16
393,235	42
393,747	41,14
394,259	39,83
394,771	43,23
395,283	40,14
395,795	41,38
396,307	39,61
396,818	39,7
397,33	39,65
397,841	38,82
398,353	37,47
398,864	37,98
399,375	36,56
399,886	34,98
400,397	34,35
400,907	33,75
401,418	32,59
401,928	32,93
402,439	33,14
402,949	32,08
403,459	31,81
403,969	31,01
404,479	28,46
404,989	28,26
405,498	28,82
406,008	26,98
406,517	27,7
407,027	26,12
407,536	25,77
408,045	24,04
408,554	23,46
409,063	22,37
409,572	21,55
410,08	21,85
410,589	20,81
411,097	20,45
411,606	20,11
412,114	19,63
412,622	18,51
413,13	18,13
413,638	18,06
414,145	16,69
414,653	16,45
415,16	16,07
415,668	16,33
416,175	15,5
416,682	14,96
417,189	14,63
417,696	14,68
418,203	14,48
418,71	14,13
419,216	13,86
419,723	13,6
420,229	13,04
420,735	12,82
421,242	13,45
421,748	12,65
422,254	12,36
422,759	12,55
423,265	12,12
423,771	11,91
424,276	12,11
424,781	11,82
425,287	11,54
425,792	11,77
426,297	11,81
426,802	11,36
427,306	11,65
427,811	11,78
428,316	11,1
428,82	11,18
429,324	11,42
429,829	10,84
430,333	11,09
430,837	10,58
431,34	10,82
431,844	10,77
432,348	10,64
432,851	10,54
433,355	10,94
433,858	10,68
434,361	10,75
434,864	10,29
435,367	10,36
435,87	10,44
436,373	10,59
436,876	10,1
437,378	10,32
437,88	10,21
438,383	10,4
438,885	10,16
439,387	10,2
439,889	10,13
440,391	10,1
440,892	10,25
441,394	10,33
441,896	10,02
442,397	10,45
442,898	10,16
443,399	10,04
443,9	10,4
444,401	10,27
444,902	9,95
445,403	10,35
445,903	10,1
446,404	9,95
446,904	10,38
447,405	10,32
447,905	10,18
448,405	10,68
448,905	10,64
449,404	10,32
449,904	10,15
450,404	10,44
450,903	10,47
451,403	10,51
451,902	10,81
452,401	10,49
452,9	10,66
453,399	10,59
453,898	10,69
454,396	10,72
454,895	10,86
455,393	10,54
455,892	10,81
456,39	10,98
456,888	10,93
457,386	10,77
457,884	10,68
458,382	11,06
458,879	10,88
459,377	11,1
459,874	11,05
460,372	10,98
460,869	10,71
461,366	10,95
461,863	10,93
462,36	10,72
462,857	10,94
463,353	10,89
463,85	10,72
464,346	10,7
464,843	11,01
465,339	10,9
465,835	10,69
466,331	10,73
466,827	10,66
467,323	10,85
467,818	10,69
468,314	10,74
468,809	10,72
469,305	10,87
469,8	10,67
470,295	10,77
470,79	10,67
471,285	10,96
471,78	10,96
472,274	10,65
472,769	10,93
473,263	11,07
473,758	10,99
474,252	10,73
474,746	11,01
475,24	10,86
475,734	11,04
476,228	10,83
476,721	10,95
477,215	10,99
477,708	11,31
478,202	11,08
478,695	11
479,188	10,86
479,681	10,94
480,174	11,22
480,667	11,16
481,159	11,29
481,652	11,06
482,144	11
482,637	11
483,129	10,98
483,621	11,17
484,113	11,02
484,605	11,07
485,097	11,29
485,588	11,21
486,08	11,17
486,571	11,16
487,063	11,47
487,554	11,5
488,045	11,68
488,536	11,63
489,027	11,54
489,518	11,57
490,008	11,67
490,499	11,9
490,989	11,84
491,48	11,75
491,97	11,94
492,46	11,86
492,95	12,23
493,44	12,12
493,93	12,18
494,419	12,16
494,909	12,54
495,398	12,46
495,888	12,57
496,377	12,87
496,866	12,88
497,355	12,97
497,844	13,18
498,333	13,1
498,821	13,52
499,31	13,3
499,798	13,64
500,287	13,76
500,775	13,96
501,263	14,18
501,751	14,25
502,239	14,65
502,727	14,81
503,215	14,96
503,702	15,15
504,19	15,37
504,677	15,8
505,164	15,76
505,651	15,91
506,139	16,29
506,625	16,7
507,112	16,85
507,599	17,23
508,086	17,35
508,572	17,77
509,058	17,98
509,545	18,38
510,031	18,61
510,517	18,81
511,003	19,37
511,489	19,76
511,974	20,03
512,46	20,18
512,946	20,67
513,431	21,31
513,916	21,22
514,401	21,71
514,887	22,41
515,371	23,01
515,856	22,94
516,341	23,42
516,826	23,99
517,31	24,19
517,795	24,74
518,279	25,35
518,763	25,5
519,247	25,71
519,731	26,84
520,215	27,08
520,699	27,33
521,182	28,1
521,666	28,4
522,149	28,73
522,633	29,26
523,116	29,63
523,599	29,92
524,082	30,44
524,565	30,78
525,048	31,38
525,53	31,92
526,013	31,67
526,495	32,52
526,978	32,79
527,46	32,65
527,942	33,46
528,424	33,68
528,906	33,74
529,388	34,26
529,87	34,67
530,351	34,78
530,833	35
531,314	34,99
531,795	35,5
532,277	35,72
532,758	36,16
533,238	36,03
533,719	36,55
534,2	36,52
534,681	36,22
535,161	36,93
535,642	37,01
536,122	36,97
536,602	37,17
537,082	37,46
537,562	37,49
538,042	37,54
538,522	37,68
539,001	37,54
539,481	38,23
539,96	38,01
540,44	37,91
540,919	38,2
541,398	38,08
541,877	38,53
542,356	38,18
542,835	38,44
543,313	38,54
543,792	38,26
544,27	38,25
544,749	38,69
545,227	38,91
545,705	38,79
546,183	38,87
546,661	38,9
547,139	38,9
547,616	38,77
548,094	38,97
548,571	39,13
549,049	39,08
549,526	39,35
550,003	39,28
550,48	39,26
550,957	39,55
551,434	39,22
551,911	39,42
552,387	39,26
552,864	39,39
553,34	39,27
553,817	39,72
554,293	39,74
554,769	40,01
555,245	39,27
555,721	39,44
556,197	39,55
556,672	39,48
557,148	39,58
557,623	39,68
558,099	39,57
558,574	39,32
559,049	39,19
559,524	39,01
559,999	39,27
560,474	39,04
560,948	38,76
561,423	38,6
561,897	38,73
562,372	38,55
562,846	38,42
563,32	38,57
563,794	38,13
564,268	38,06
564,742	38,32
565,216	37,63
565,69	37,56
566,163	37,56
566,636	36,94
567,11	37,41
567,583	36,41
568,056	36,77
568,529	36,33
569,002	36,19
569,475	36,04
569,947	35,51
570,42	35,32
570,892	35,06
571,365	34,98
571,837	34,71
572,309	34,5
572,781	34,13
573,253	34,13
573,725	33,71
574,197	33,45
574,668	33,38
575,14	33,07
575,611	32,83
576,082	32,54
576,554	32,84
577,025	32,3
577,496	31,98
577,967	31,79
578,437	31,59
578,908	31,5
579,379	31,29
579,849	31,25
580,319	30,93
580,79	30,69
581,26	30,45
581,73	30,15
582,2	30,47
582,669	30,17
583,139	30
583,609	29,67
584,078	29,58
584,548	29,67
585,017	29,51
585,486	29,23
585,955	28,86
586,424	28,97
586,893	28,91
587,362	28,75
587,83	28,45
588,299	28,17
588,767	28,46
589,236	28,31
589,704	28,03
590,172	28,27
590,64	28,09
591,108	27,93
591,576	27,62
592,043	27,74
592,511	27,72
592,978	27,23
593,446	27,25
593,913	27,28
594,38	27,25
594,847	27,06
595,314	27,09
595,781	26,88
596,248	26,88
596,715	26,74
597,181	26,91
597,647	26,86
598,114	26,66
598,58	26,74
599,046	26,57
599,512	26,58
599,978	26,52
600,444	26,51
600,91	26,42
601,375	26,48
601,841	26,24
602,306	26,41
602,771	26,42
603,236	26,17
603,702	26
604,167	25,88
604,631	25,6
605,096	25,65
605,561	25,78
606,025	25,49
606,49	25,53
606,954	25,31
607,418	25,36
607,882	25,17
608,347	24,91
608,81	25,01
609,274	24,45
609,738	24,53
610,202	24,52
610,665	24,32
611,128	24,21
611,592	24,23
612,055	23,91
612,518	23,77
612,981	23,64
613,444	23,69
613,907	23,4
614,369	23,23
614,832	23,27
615,294	22,89
615,757	23,08
616,219	22,88
616,681	22,81
617,143	22,46
617,605	22,41
618,067	22,33
618,529	22,08
618,99	22,1
619,452	22,07
619,913	21,97
620,375	21,78
620,836	21,72
621,297	21,83
621,758	21,69
622,219	21,54
622,68	21,36
623,14	21,48
623,601	21,41
624,061	21,34
624,522	21,18
624,982	21,01
625,442	21,13
625,902	21,15
626,362	21,04
626,822	21,1
627,282	21,12
627,742	20,92
628,201	20,96
628,661	21,05
629,12	20,86
629,579	20,79
630,038	20,88
630,497	20,65
630,956	20,71
631,415	20,45
631,874	20,75
632,332	20,58
632,791	20,61
633,249	20,43
633,708	20,31
634,166	20,44
634,624	20,25
635,082	19,97
635,54	19,86
635,998	19,92
636,455	19,68
636,913	19,69
637,37	19,53
637,828	19,32
638,285	19,23
638,742	19,04
639,199	18,93
639,656	18,66
640,113	18,73
640,57	18,32
641,027	18,22
641,483	18,02
641,94	17,76
642,396	17,79
642,852	17,47
643,309	17,3
643,765	17,12
644,221	16,93
644,676	16,94
645,132	16,68
645,588	16,55
646,043	16,11
646,499	15,92
646,954	15,93
647,409	15,64
647,864	15,63
648,319	15,34
648,774	15,24
649,229	15,06
649,684	14,95
650,139	14,92
650,593	14,83
651,047	14,67
651,502	14,67
651,956	14,5
652,41	14,55
652,864	14,37
653,318	14,23
653,772	14,11
654,225	14,26
654,679	14,08
655,133	14,06
655,586	13,99
656,039	13,77
656,492	13,69
656,946	13,67
657,399	13,53
657,851	13,28
658,304	13,41
658,757	13,18
659,209	13,01
659,662	12,89
660,114	12,77
660,567	12,6
661,019	12,47
661,471	12,32
661,923	12,17
662,375	12,12
662,826	12,05
663,278	11,86
663,73	11,87
664,181	11,6
664,632	11,57
665,084	11,45
665,535	11,32
665,986	11,23
666,437	11,28
666,888	11,18
667,338	11,14
667,789	11,08
668,24	11,02
668,69	11,04
669,14	11,01
669,591	10,88
670,041	10,91
670,491	11
670,941	10,88
671,391	11
671,84	11,03
672,29	10,9
672,74	11,09
673,189	11,1
673,638	11,15
674,088	11,16
674,537	11,18
674,986	11,3
675,435	11,33
675,883	11,41
676,332	11,56
676,781	11,52
677,229	11,67
677,678	11,89
678,126	12,01
678,574	12,09
679,022	12,17
679,47	12,38
679,918	12,42
680,366	12,52
680,814	12,75
681,261	12,82
681,709	12,99
682,156	13,12
682,604	13,28
683,051	13,5
683,498	13,65
683,945	13,88
684,392	14,14
684,839	14,3
685,286	14,45
685,732	14,71
686,179	14,85
686,625	15,27
687,071	15,48
687,518	15,95
687,964	16,25
688,41	16,6
688,856	17,11
689,301	17,49
689,747	17,96
690,193	18,43
690,638	18,92
691,084	19,49
691,529	20,08
691,974	20,71
692,419	21,43
692,864	22,08
693,309	22,77
693,754	23,4
694,199	24,17
694,643	24,87
695,088	25,74
695,532	26,42
695,977	27,15
696,421	27,79
696,865	28,64
697,309	29,49
697,753	30,34
698,197	30,88
698,64	31,71
699,084	32,39
699,527	33,08
699,971	33,85
700,414	34,57
700,857	35,33
701,3	35,96
701,743	36,58
702,186	37,43
702,629	38,1
703,072	38,76
703,515	39,41
703,957	40,13
704,399	40,69
704,842	41,07
705,284	41,92
705,726	42,54
706,168	43,13
706,61	43,48
707,052	44,05
707,494	44,61
707,935	45,04
708,377	46,04
708,818	46,04
709,26	46,68
709,701	47,13
710,142	47,68
710,583	48,28
711,024	48,81
711,465	49,39
711,905	49,75
712,346	50,05
712,787	50,53
713,227	50,95
713,667	51,95
714,108	52,27
714,548	52,56
714,988	52,84
715,428	53,29
715,868	53,6
716,307	53,74
716,747	54,51
717,186	54,97
717,626	55,23
718,065	55,7
718,504	55,76
718,944	56,64
719,383	57,15
719,822	57,42
720,261	57,29
720,699	57,87
721,138	58,14
721,576	58,5
722,015	58,98
722,453	59,13
722,892	59,55
723,33	59,86
723,768	60,34
724,206	60,75
724,644	60,61
725,081	60,85
725,519	61,32
725,957	61,54
726,394	61,78
726,832	61,87
727,269	62,25
727,706	62,5
728,143	62,71
728,58	62,9
729,017	62,87
729,454	63,37
729,89	63,28
730,327	63,49
730,764	63,71
731,2	63,78
731,636	64,18
732,072	64,33
732,509	64,67
732,945	64,63
733,38	64,45
733,816	64,79
734,252	65,05
734,688	64,63
735,123	64,78
735,559	65,25
735,994	65,19
736,429	65,21
736,864	65,64
737,299	65,43
737,734	65,4
738,169	65,5
738,604	65,79
739,038	65,67
739,473	65,83
739,907	66,15
740,342	65,93
740,776	65,84
741,21	66,14
741,644	66,32
742,078	66,08
742,512	66,3
742,946	66,33
743,379	66,1
743,813	66,15
744,246	66,17
744,68	66,04
745,113	66,09
745,546	66,23
745,979	66,42
746,412	66,44
746,845	65,98
747,278	66,22
747,711	66,13
748,143	66,18
748,576	66,17
749,008	66,13
749,441	66,24
749,873	65,96
750,305	65,97
750,737	66,08
751,169	65,91
751,601	66,14
752,032	66,03
752,464	65,93
752,896	66,01
753,327	65,84
753,758	65,79
754,19	65,78
754,621	65,95
755,052	65,92
755,483	65,69
755,914	65,64
756,344	65,87
756,775	66
757,206	65,76
757,636	65,81
758,066	65,62
758,497	65,69
758,927	65,14
759,357	65,47
759,787	65,28
760,217	65,47
760,647	64,94
761,076	65,67
761,506	65,3
761,935	65,03
762,365	65,33
762,794	65,24
763,223	65,23
763,653	65,4
764,082	64,99
764,51	65,28
764,939	65,3
765,368	64,93
765,797	65,32
766,225	64,96
766,654	65,03
767,082	64,64
767,51	65,09
767,938	64,95
768,367	64,88
768,795	64,76
769,222	65,04
769,65	64,69
770,078	64,98
770,505	64,74
770,933	64,56
771,36	64,6
771,788	64,53
772,215	64,52
772,642	64,42
773,069	64,42
773,496	64,51
773,923	64,51
774,349	64,39
774,776	64,45
775,203	64,44
775,629	64,33
776,055	64,41
776,482	64,6
776,908	64,49
777,334	64,32
777,76	64,26
778,186	64,15
778,611	64,25
779,037	64,33
779,463	64,17
779,888	64,2
780,314	64,09
780,739	64,27
781,164	64,25
781,589	64,38
782,014	64,15
782,439	64,23
782,864	64,09
783,289	64,12
783,713	63,9
784,138	63,97
784,562	64,12
784,987	63,86
785,411	64,03
785,835	63,76
786,259	64,02
786,683	64,01
787,107	63,78
787,531	63,72
787,954	63,74
788,378	64,08
788,802	64,06
789,225	63,87
789,648	63,94
790,071	63,84
790,495	63,56
790,918	64,15
791,34	63,82
791,763	63,63
792,186	63,99
792,609	63,9
793,031	63,7
793,454	63,69
793,876	63,77
794,298	63,59
794,721	63,64
795,143	63,96
795,565	63,59
795,986	63,98
796,408	63,85
796,83	63,79
797,252	63,96
797,673	63,73
798,094	63,66
798,516	63,51
798,937	63,85
799,358	63,48
799,779	63,4
800,2	63,6
800,621	63,81
801,042	63,57
801,462	63,52
801,883	63,67
802,303	63,57
802,724	63,47
803,144	63,83
803,564	63,36
803,984	63,67
804,404	63,78
804,824	63,83
805,244	63,59
805,664	63,41
806,084	63,66
806,503	63,76
806,923	63,55
807,342	63,44
807,761	63,67
808,18	63,51
808,599	63,69
809,018	63,41
809,437	63,61
809,856	63,2
810,275	63,52
810,693	63,51
811,112	63,6
811,53	63,34
811,949	63,71
812,367	63,42
812,785	63,53
813,203	63,37
813,621	63,52
814,039	63,55
814,457	63,19
814,874	63,48
815,292	63,41
815,709	63,21
816,127	63,53
816,544	63,9
816,961	63,52
817,378	63,94
817,795	63,49
818,212	63,49
818,629	63,34
819,046	63,2
819,462	63,32
819,879	63,51
820,295	63,03
820,712	63,03
821,128	63,35
821,544	63,46
821,96	63,07
822,376	63,13
822,792	63,52
823,208	63,28
823,624	63,56
824,039	63,32
824,455	63,34
824,87	63,42
825,286	63,36
825,701	63,5
826,116	63,11
826,531	63,37
826,946	63,18
827,361	63,3
827,776	63,23
828,19	63,14
828,605	63,19
829,02	63,47
829,434	62,99
829,848	63,38
830,263	63,2
830,677	63,22
831,091	63,45
831,505	63,31
831,919	63,27
832,332	62,96
832,746	62,95
833,16	62,89
833,573	63,21
833,987	63,01
834,4	63,01
834,813	63,04
835,226	63,17
835,639	63,33
836,052	63,03
836,465	63,41
836,878	63,36
837,29	63,19
837,703	63,01
838,116	63,45
838,528	62,86
838,94	62,94
839,352	63,01
839,765	63,1
840,177	62,92
840,589	62,94
841	62,94
841,412	63,12
841,824	63,07
842,235	62,79
842,647	63,05
843,058	63,01
843,47	63,34
843,881	62,94
844,292	63,11
844,703	62,92
845,114	63,19
845,525	63,11
845,935	63,23
846,346	63,09
846,757	62,97
847,167	63,33
847,577	63,37
847,988	62,39
848,398	62,89
848,808	62,52
849,218	62,8
849,628	62,77
850,038	63,18
850,448	62,84
850,857	63,04
851,267	62,9
851,676	63,26
852,086	63,04
852,495	62,85
852,904	62,89
853,313	62,75
853,722	62,76
854,131	62,89
854,54	62,85
854,949	63,08
855,357	62,79
855,766	62,72
856,174	62,41
856,583	62,52
856,991	62,83
857,399	63,21
857,807	63,07
858,215	62,89
858,623	63,23
859,031	62,91
859,439	63,37
859,846	63,2
860,254	63,33
860,661	62,81
861,069	62,85
861,476	62,77
861,883	62,22
862,29	63,09
862,697	63,02
863,104	62,41
863,511	62,65
863,918	62,68
864,325	62,56
864,731	62,29
865,138	62,6
865,544	62,76
865,95	62,77
866,357	62,75
866,763	62,93
867,169	62,89
867,575	62,86
867,98	62,93
868,386	63,14
868,792	62,81
869,197	63,03
869,603	62,75
870,008	62,79
870,414	62,65
870,819	62,42
871,224	62,77
871,629	62,73
872,034	62,74
872,439	62,6
872,844	62,59
873,248	62,75
873,653	62,93
874,057	62,59
874,462	62,82
874,866	62,93
875,27	62,72
875,674	62,92
876,078	62,84
876,482	62,76
876,886	62,82
877,29	62,42
877,694	62,36
878,097	62,4
878,501	62,14
878,904	62,55
879,308	62,45
879,711	62,57
880,114	62,78
880,517	62,48
880,92	62,86
881,323	62,97
881,726	62,92
882,128	62,44
882,531	62,73
882,934	62,57
883,336	62,61
883,738	62,84
884,141	62,91
884,543	63,08
884,945	62,91
885,347	62,9
885,749	62,4
886,151	62,75
886,552	62,71
886,954	62,84
887,355	62,27
887,757	62,65
888,158	62,8
888,56	62,72
888,961	62,89
889,362	62,51
889,763	62,44
890,164	62,71
890,565	63
890,965	62,89
891,366	62,68
891,767	63,17
892,167	62,99
892,567	62,58
892,968	62,79
893,368	62,62
893,768	62,76
894,168	62,7
894,568	62,44
894,968	62,44
895,368	62,38
895,767	62,42
896,167	62,75
896,566	62,59
896,966	62,68
897,365	62,89
897,764	62,36
898,164	63,11
898,563	63,22
898,962	62,73
899,361	62,96
899,759	62,38
900,158	62,54
900,557	62,93
900,955	62,63
901,354	62,39
901,752	62,51
902,15	62,78
902,548	62,42
902,947	62,28
903,345	62,95
903,742	62,82
904,14	62,75
904,538	62,69
904,936	62,75
905,333	62,5
905,731	62,61
906,128	62,46
906,525	62,7
906,923	62,53
907,32	62,41
907,717	62,55
908,114	62,49
908,511	62,36
908,907	62,56
909,304	62,66
909,701	62,75
910,097	62,27
910,494	62,53
910,89	62,64
911,286	62,67
911,682	63,03
912,078	63,02
912,474	63,01
912,87	63,17
913,266	62,62
913,662	63,12
914,058	62,72
914,453	62,89
914,849	62,8
915,244	62,61
915,639	62,72
916,034	62,74
916,43	62,7
916,825	63
917,22	62,54
917,614	62,6
918,009	62,29
918,404	62,53
918,798	62,43
919,193	62,29
919,587	62,51
919,982	62,51
920,376	62,47
920,77	62,61
921,164	62,56
921,558	62,84
921,952	62,3
922,346	62,44
922,74	62,53
923,133	62,71
923,527	62,46
923,92	62,26
924,314	62,58
924,707	62,4
925,1	62,27
925,493	62,73
925,886	62,27
926,279	62,37
926,672	62,43
927,065	62,58
927,457	62,45
927,85	62,14
928,243	62,6
928,635	62,36
929,027	62,26
929,42	62,51
929,812	62,53
930,204	62,06
930,596	62,51
930,988	62,58
931,379	62,67
931,771	62,11
932,163	62,17
932,554	62,12
932,946	62,1
933,337	62,18
933,729	62,07
934,12	62,33
934,511	62,12
934,902	61,79
935,293	62,03
935,684	62,25
936,075	62,62
936,465	61,78
936,856	61,94
937,246	62,06
937,637	61,89
938,027	61,86
938,417	62,1
938,808	61,57
939,198	62,25
939,588	62,54
939,978	62,11
940,368	62,18
940,757	62,02
941,147	61,54
941,537	62,22
941,926	62,06
942,315	62,03
942,705	61,77
943,094	62,21
943,483	62,23
943,872	61,67
944,261	62,33
944,65	61,79
945,039	61,56
945,428	61,14
945,816	62,34
946,205	61,49
946,593	61,18
946,982	61,88
947,37	61,79
947,758	61,76
948,146	61,49
948,534	61,09
948,922	61,7
949,31	61,13
949,698	61,18
950,086	61,15
950,473	61,35
950,861	60,76
951,248	60,78
951,636	61,26
952,023	60,85
952,41	61,01
952,797	61,08
953,184	61,33
953,571	60,72
953,958	61,05
954,345	61,1
954,731	61,05
955,118	60,95
955,505	60,79
955,891	61,14
956,277	60,73
956,664	60,45
957,05	60,59
957,436	60,72
957,822	60,66
958,208	60,51
958,594	60,87
958,979	60,29
959,365	60,74
959,751	60,26
960,136	60,34
960,522	60,27
960,907	60,72
961,292	60,62
961,677	60,39
962,062	60,31
962,447	60,49
962,832	60,57
963,217	60,56
963,602	60,72
963,986	60,29
964,371	60,12
964,756	60,57
965,14	60,99
965,524	60,47
965,908	60,66
966,293	60,42
966,677	60,12
967,061	60,96
967,445	61,05
967,828	60,6
968,212	60,62
968,596	60,63
968,979	60,54
969,363	60,68
969,746	60,33
970,129	60,21
970,513	60,11
970,896	60,69
971,279	60,44
971,662	60,41
972,045	60,21
972,428	60,73
972,81	60,36
973,193	60,44
973,575	60,36
973,958	60,48
974,34	60,17
974,723	60,12
975,105	60,08
975,487	60,53
975,869	60,96
976,251	60,75
976,633	60,55
977,015	60,57
977,396	60,36
977,778	60,27
978,16	60,76
978,541	60,3
978,922	60,48
979,304	60,73
979,685	60,14
980,066	61,07
980,447	60,33
980,828	60,4
981,209	60,69
981,59	60,58
981,97	60,79
982,351	60,48
982,732	60,57
983,112	60,31
983,493	60,94
983,873	60,44
984,253	60,61
984,633	60,77
985,013	60,35
985,393	60,74
985,773	60,03
986,153	60,73
986,533	60,54
986,912	60,88
987,292	60,77
987,671	60,85
988,051	61,08
988,43	61,54
988,809	60,68
989,188	61
989,567	60,78
989,946	61,16
990,325	60,38
990,704	61,25
991,083	61,01
991,461	60,23
991,84	60,36
992,218	60,9
992,597	61,57
992,975	60,67
993,353	61,12
993,732	61,04
994,11	60,86
994,488	61,34
994,866	60,59
995,243	60,9
995,621	60,95
995,999	61,44
996,376	61,3
996,754	60,79
997,131	61,09
997,509	61,15
997,886	61,15
998,263	61,23
998,64	60,69
999,017	60,91
999,394	60,82
999,771	61,66
1000,148	60,97
1000,524	61,49
1000,901	61,52
1001,277	61,98
1001,654	61,32
1002,03	61,33
1002,406	61,56
1002,783	61,76
1003,159	61,41
1003,535	61,21
1003,911	61,37
1004,286	62,2
1004,662	61,35
1005,038	61,26
1005,414	61,45
1005,789	61,44
1006,164	61,53
1006,54	61,66
1006,915	61,59
1007,29	61,63
1007,665	61,5
1008,04	61,82
1008,415	61,12
1008,79	62,44
1009,165	61,22
1009,54	61,83
1009,914	62,33
1010,289	61,94
1010,663	62,02
1011,038	62,22
1011,412	62,7
1011,786	62,59
1012,16	61,98
1012,535	61,76
1012,909	62,01
1013,282	61,77
1013,656	62,19
1014,03	61,99
1014,404	62,16
1014,777	61,82
1015,151	61,81
1015,524	62,48
1015,897	61,82
1016,271	62,03
1016,644	62,78
1017,017	62,9
1017,39	62,13
1017,763	62,02
1018,136	62,02
1018,508	62,43
1018,881	62,55
1019,254	61,79
1019,626	62,32
1019,999	62,08
1020,371	62,2
1020,743	62,73
1021,116	62,53
1021,488	62,62
1021,86	62,67
1022,232	63,36
1022,604	61,62
1022,975	63,07
1023,347	62,86
1023,719	63,14
1024,09	63,37
1024,462	63,02
1024,833	62,45
1025,204	63,19
1025,576	63,09
1025,947	62,44
1026,318	62,99
1026,689	62,93
1027,06	63,24
1027,431	62,57
1027,801	63,19
1028,172	63,13
1028,543	62,48
1028,913	63,48
1029,284	63,44
1029,654	62,88
1030,024	63,62
1030,394	62,75
1030,764	62,46
1031,135	63,35
1031,504	62,98
1031,874	62,46
1032,244	63,13
1032,614	62,96
1032,983	62,69
1033,353	63,46
1033,722	63,16
1034,092	63,11
1034,461	62,7
1034,83	62,92
1035,2	63,33
1035,569	63,76
1035,938	63,05
1036,307	63,99
1036,675	63,57
1037,044	63,06
1037,413	63,82
1037,781	64,14
1038,15	63,7
1038,518	64,08
1038,887	63,86
1039,255	63,33
1039,623	64,02
1039,991	63,86
1040,359	63,15
1040,727	63,92
1041,095	63,05
1041,463	64,24
1041,831	63,49
1042,198	64,11
1042,566	63,47
1042,933	62,95
1043,301	64,22
1043,668	63,21
1044,035	63,79
1044,402	64,68
1044,77	64,66
1045,137	63,72
1045,503	64,04
1045,87	63,94
1046,237	64,38
1046,604	64,51
1046,97	64,44
1047,337	64,96
1047,703	64,16
1048,07	64,44
1048,436	64,11
1048,802	64,85
1049,168	64,29
1049,534	65,23
1049,9	64,52
1050,266	64,67
1050,632	64,39
1050,998	64,59
1051,364	64,89
1051,729	65,08
1052,095	64,16
1052,46	64,42
1052,825	64,56
1053,191	64,67
1053,556	64,2
1053,921	64,83
1054,286	64,7
1054,651	64,32
1055,016	64,71
1055,381	64,39
1055,745	65,53
1056,11	65,09
1056,475	64,32
1056,839	65,95
1057,203	65,73
1057,568	65,13
1057,932	65,06
1058,296	64,82
1058,66	65,21
1059,024	65,31
1059,388	65,5
1059,752	65,34
1060,116	65,17
1060,48	66,95
1060,843	65,83
1061,207	65,5
1061,57	66,29
1061,934	66,31
1062,297	65,5
1062,66	65,44
1063,023	65,02
1063,386	66,4
1063,749	66,29
1064,112	66,75
1064,475	66,43
1064,838	64,9
1065,201	65,98
1065,563	64,98
1065,926	64,98
1066,288	66,36
1066,651	66,26
1067,013	66,22
1067,375	66,01
1067,737	65,95
1068,099	64,61
1068,461	66,54
1068,823	65,38
1069,185	66,8
1069,547	65,63
1069,909	65,06
1070,27	65,12
1070,632	66,47
1070,993	65,55
1071,355	65,97
1071,716	63,74
1072,077	65,41
1072,438	65,62
1072,799	64,47
1073,16	66,7
1073,521	66,19
1073,882	65,14
1074,243	66,59
1074,603	66,89
1074,964	65,02
1075,325	65,99
1075,685	65,89
1076,045	66,31
1076,406	65,3
1076,766	64,12
1077,126	67,2
1077,486	67,18
1077,846	66,16
1078,206	66,77
1078,566	64,44
1078,925	65,43
1079,285	66,63
1079,645	66,22
1080,004	67,57
1080,364	66,66
1080,723	67,31
1081,082	65,35
1081,442	67,24
1081,801	65,4
1082,16	66,75
1082,519	65,04
1082,878	67,2
1083,237	66,56
1083,595	67,79
1083,954	67,63
1084,313	65,99
1084,671	66,83
1085,03	67,16
1085,388	65,94
1085,746	66,02
1086,104	64,1
1086,463	67,25
1086,821	68,91
1087,179	66,51
1087,537	66,59
1087,894	67,42
1088,252	67,93
1088,61	67,79
1088,967	67,52
1089,325	67,24
1089,682	66,93
1090,04	66,13
1090,397	66,88
1090,754	67,79
1091,111	66,95
1091,469	66,42
1091,826	66,56
1092,182	67,45
1092,539	68,01
1092,896	66,5
1093,253	67,78
1093,609	67,77
1093,966	69,09
1094,322	68,96
1094,679	66,53
1095,035	69,47
1095,391	67,67
1095,748	66,4
1096,104	66,99
1096,46	66,45
1096,816	68,25
1097,171	66,05
1097,527	69,57
1097,883	68,12
1098,239	68,2
1098,594	66,7
1098,95	70,28
1099,305	67,27
1099,66	68,36
1100,016	66,47
1100,371	68,62
1100,726	69,85
1101,081	67,5
1101,436	66,76
1101,791	69,89
1102,146	69,99
1102,5	66,06
1102,855	67,62
1103,21	68,51
1103,564	69,73
1103,918	69,35
1104,273	71,54
1104,627	67,76
1104,981	68,92
1105,335	69,89
1105,69	68,03
1106,043	70,08
1106,397	68,94
1106,751	68,1
1107,105	69,34
1107,459	69,29
1107,812	68,48
1108,166	70,07
1108,519	67,86
1108,873	69,42
1109,226	69,97
1109,579	72,07
1109,932	70,02
1110,285	70,51
1110,638	72,95
1110,991	72,12
1111,344	69,66
1111,697	68,97
1112,05	68,68
1112,402	70,27
1112,755	67,53
1113,107	70,46
1113,46	71,21
1113,812	74,41
1114,164	72,66
1114,517	70,12
1114,869	134,24
1115,221	122,61
1115,573	117,89
1115,924	117,27
