Data from G4__Relative__8__00132.txt Node

Date: Tue Jan 30 18:07:00 CET 2024
User: diatiterra
Spectrometer: HDX00911
Trigger mode: 0
Integration Time (sec): 6,000000E-3
Scans to average: 3
Nonlinearity correction enabled: true
Boxcar width: 0
Storing dark spectrum: false
XAxis mode: Wavelengths
Number of Pixels in Spectrum: 2068
>>>>>Begin Spectral Data<<<<<
194,468	118,14
195,025	86,1
195,581	88,9
196,138	80,39
196,694	76,98
197,251	57,27
197,807	61,35
198,363	60,8
198,919	61,09
199,474	59,7
200,03	58,91
200,586	56,36
201,141	53,43
201,696	55,48
202,251	55,39
202,806	59,06
203,361	54,12
203,916	60,23
204,471	61,44
205,025	55,66
205,58	58,58
206,134	57,59
206,688	54,21
207,242	54,6
207,796	61,78
208,35	57,51
208,904	56,03
209,457	57,86
210,011	61,39
210,564	55,63
211,117	62,7
211,67	62,29
212,223	60,97
212,776	57,14
213,329	60,3
213,881	61
214,434	56,96
214,986	58,88
215,538	59,34
216,09	55,98
216,642	61,52
217,194	58,84
217,746	62,34
218,297	58,75
218,849	57,94
219,4	61,73
219,951	57,85
220,502	57,11
221,053	54,44
221,604	59,6
222,155	62,42
222,705	54,68
223,256	56,2
223,806	59,19
224,356	55,02
224,906	59,02
225,456	59,31
226,006	54,38
226,556	57,21
227,106	59,62
227,655	53,63
228,204	57,23
228,754	60,04
229,303	57,45
229,852	61,96
230,401	59,79
230,949	61,57
231,498	60,33
232,047	55,93
232,595	63,39
233,143	60,38
233,691	53,07
234,239	57,98
234,787	61,34
235,335	60,91
235,883	58,41
236,43	54,65
236,978	53,45
237,525	63,65
238,072	56,9
238,619	57,83
239,166	57,02
239,713	58
240,26	61,45
240,806	59,79
241,353	59,63
241,899	58
242,445	66,59
242,991	58,31
243,537	56,45
244,083	59,63
244,629	57,17
245,174	55,9
245,72	59,06
246,265	61,41
246,81	66,01
247,355	56,8
247,9	61,22
248,445	60,87
248,99	60
249,534	60,49
250,079	61,46
250,623	58,11
251,168	57,85
251,712	57,74
252,256	50,4
252,8	57,87
253,343	56,21
253,887	57,5
254,43	67,37
254,974	64,16
255,517	61,08
256,06	64,41
256,603	66,1
257,146	63,84
257,689	60,19
258,232	60,61
258,774	63,52
259,317	61,17
259,859	61,1
260,401	68,47
260,943	60,17
261,485	62,55
262,027	58,45
262,569	63,95
263,11	54,82
263,652	64,44
264,193	60,62
264,734	66,1
265,275	56,73
265,816	57,24
266,357	62,7
266,898	58,66
267,438	56,5
267,979	63,27
268,519	62,34
269,059	60,4
269,6	57,56
270,14	64,02
270,68	61,73
271,219	62,42
271,759	59,65
272,298	58,31
272,838	59,04
273,377	58,97
273,916	58,19
274,455	58,54
274,994	64,69
275,533	58,22
276,072	61,19
276,61	61,27
277,149	54,35
277,687	60,48
278,225	60,62
278,763	60,68
279,301	56,44
279,839	62,73
280,377	59,22
280,914	59,75
281,452	63,48
281,989	58,7
282,526	53,15
283,064	60,22
283,601	56,59
284,137	60,01
284,674	60,34
285,211	63,36
285,747	59,1
286,284	64,39
286,82	58
287,356	56,99
287,892	64,47
288,428	58,37
288,964	56,22
289,5	62,34
290,035	64,81
290,571	54,04
291,106	64,93
291,641	58,6
292,176	57,8
292,711	60,26
293,246	60,21
293,781	58,39
294,315	57,17
294,85	62
295,384	62,22
295,918	54,84
296,453	56,89
296,987	56,1
297,52	57,18
298,054	55,92
298,588	58,23
299,121	63,81
299,655	60,09
300,188	58,95
300,721	58,15
301,254	60,62
301,787	54,45
302,32	65,19
302,853	56,1
303,385	58,67
303,918	61,26
304,45	52,91
304,982	55,24
305,514	60,23
306,046	52,84
306,578	57,76
307,11	58,06
307,641	62,91
308,173	61,8
308,704	61,91
309,236	57,55
309,767	60,21
310,298	54,66
310,829	57,85
311,359	58,3
311,89	56,18
312,421	56,09
312,951	58,81
313,481	58,96
314,012	58,53
314,542	57,99
315,072	58
315,601	52,97
316,131	58,53
316,661	60,18
317,19	59,34
317,72	54,67
318,249	52,66
318,778	57,33
319,307	53,81
319,836	56,16
320,365	57,95
320,893	56,7
321,422	59,78
321,95	53,71
322,479	59,34
323,007	51,49
323,535	52,67
324,063	55,81
324,591	57,05
325,118	55,93
325,646	57,99
326,173	53,73
326,701	57,3
327,228	59,11
327,755	64,99
328,282	51,71
328,809	56,8
329,336	55,44
329,862	55,22
330,389	54,85
330,915	54,33
331,441	58,56
331,968	46,05
332,494	52,32
333,02	55,49
333,545	52,27
334,071	56,45
334,597	54,48
335,122	58,65
335,648	57,7
336,173	56,45
336,698	55,02
337,223	52,45
337,748	49,02
338,272	52,83
338,797	52,71
339,322	53,17
339,846	56,47
340,37	57,63
340,894	53,2
341,419	55,11
341,942	49,59
342,466	49,34
342,99	52,52
343,514	58,27
344,037	49,43
344,56	56,03
345,084	51,03
345,607	56,15
346,13	53,61
346,653	51,09
347,175	53,59
347,698	57,66
348,221	50,81
348,743	47,76
349,265	53,94
349,787	52,21
350,309	49,62
350,831	49,89
351,353	44,1
351,875	50,14
352,397	44,7
352,918	47,07
353,439	47,55
353,961	48,18
354,482	47,39
355,003	44,27
355,524	42,15
356,044	46,27
356,565	46,22
357,086	44,49
357,606	42,21
358,126	45,68
358,646	40,73
359,167	43,32
359,687	43,64
360,206	41,81
360,726	46,69
361,246	39,84
361,765	42,38
362,285	43,29
362,804	40,52
363,323	43,34
363,842	44,62
364,361	44,41
364,88	43,3
365,398	40,11
365,917	43,61
366,435	41,5
366,954	42,83
367,472	40,47
367,99	43,08
368,508	37,41
369,026	35,94
369,544	43,5
370,061	38,23
370,579	38,75
371,096	38,75
371,613	37,87
372,131	39,42
372,648	35,23
373,165	37,61
373,681	37,26
374,198	35,08
374,715	37,26
375,231	36,61
375,747	36,41
376,264	30,12
376,78	33,83
377,296	36,69
377,812	35,02
378,327	34,1
378,843	31,98
379,359	34,93
379,874	33,49
380,389	31,17
380,905	31,55
381,42	31,02
381,935	32,53
382,449	29,4
382,964	29,03
383,479	29,55
383,993	27,27
384,508	27,29
385,022	27,81
385,536	29,06
386,05	28,41
386,564	28,73
387,078	27,82
387,592	27,39
388,105	26,69
388,619	26,25
389,132	24,66
389,645	24,16
390,158	24,58
390,671	23,65
391,184	22,39
391,697	22,7
392,21	23,54
392,722	23,35
393,235	21,61
393,747	23,14
394,259	21,77
394,771	23,6
395,283	21,89
395,795	22,76
396,307	21,82
396,818	21,47
397,33	22,35
397,841	20,13
398,353	20,39
398,864	20,28
399,375	20,31
399,886	18,88
400,397	18,33
400,907	18,57
401,418	18,05
401,928	18,7
402,439	17,5
402,949	17,02
403,459	16,77
403,969	15,59
404,479	15,69
404,989	14,65
405,498	15,37
406,008	14,56
406,517	13,91
407,027	14,06
407,536	13,52
408,045	12,25
408,554	12,71
409,063	11,98
409,572	11,27
410,08	11,09
410,589	10,39
411,097	9,82
411,606	9,74
412,114	9,51
412,622	9,62
413,13	9,57
413,638	8,96
414,145	8,87
414,653	8,84
415,16	8,25
415,668	7,61
416,175	7,95
416,682	7,19
417,189	7,55
417,696	7,07
418,203	7,06
418,71	6,9
419,216	6,84
419,723	6,91
420,229	6,76
420,735	6,43
421,242	6,57
421,748	6,36
422,254	6,39
422,759	6,46
423,265	6,23
423,771	5,97
424,276	6,01
424,781	5,67
425,287	5,93
425,792	6,29
426,297	5,63
426,802	5,78
427,306	5,69
427,811	5,78
428,316	5,36
428,82	5,68
429,324	5,36
429,829	5,07
430,333	5,43
430,837	5,27
431,34	5,33
431,844	5,43
432,348	5,34
432,851	4,89
433,355	5,08
433,858	5,13
434,361	4,87
434,864	5
435,367	4,79
435,87	4,96
436,373	5,23
436,876	4,85
437,378	5,19
437,88	4,93
438,383	4,67
438,885	4,81
439,387	4,96
439,889	4,74
440,391	4,84
440,892	4,76
441,394	4,93
441,896	4,95
442,397	4,85
442,898	4,66
443,399	4,9
443,9	4,95
444,401	5,02
444,902	4,68
445,403	4,91
445,903	4,69
446,404	4,82
446,904	4,83
447,405	4,83
447,905	4,78
448,405	5,02
448,905	4,96
449,404	4,96
449,904	4,8
450,404	4,95
450,903	5,13
451,403	5,06
451,902	5,09
452,401	5,23
452,9	5,13
453,399	5,05
453,898	5,3
454,396	5,34
454,895	5,14
455,393	4,89
455,892	5,2
456,39	5,22
456,888	5,38
457,386	5,19
457,884	4,98
458,382	5,32
458,879	5,12
459,377	5,34
459,874	5,27
460,372	5,22
460,869	5,11
461,366	5,04
461,863	5,16
462,36	5,23
462,857	5,29
463,353	5,17
463,85	5,18
464,346	5,04
464,843	4,97
465,339	5,18
465,835	5,26
466,331	5,11
466,827	5,09
467,323	5,01
467,818	5,11
468,314	5,22
468,809	5,13
469,305	5,08
469,8	5,04
470,295	5,1
470,79	5
471,285	5,01
471,78	4,94
472,274	5,12
472,769	5,2
473,263	5,18
473,758	5,02
474,252	5,01
474,746	4,99
475,24	5,06
475,734	5
476,228	5,02
476,721	5,13
477,215	5,32
477,708	5,12
478,202	5,13
478,695	5,16
479,188	4,98
479,681	5,11
480,174	4,98
480,667	5,06
481,159	5,09
481,652	5,22
482,144	5,15
482,637	5,26
483,129	5,12
483,621	5,15
484,113	5,28
484,605	5,24
485,097	5,25
485,588	5,31
486,08	5,24
486,571	5,21
487,063	5,38
487,554	5,3
488,045	5,36
488,536	5,26
489,027	5,4
489,518	5,42
490,008	5,58
490,499	5,42
490,989	5,56
491,48	5,68
491,97	5,52
492,46	5,74
492,95	5,88
493,44	5,7
493,93	5,7
494,419	5,84
494,909	5,93
495,398	5,96
495,888	5,85
496,377	6,1
496,866	6,02
497,355	6,32
497,844	6,39
498,333	6,5
498,821	6,77
499,31	6,6
499,798	6,5
500,287	6,96
500,775	6,92
501,263	7,05
501,751	7,32
502,239	7,41
502,727	7,51
503,215	7,49
503,702	7,45
504,19	7,84
504,677	7,83
505,164	8,03
505,651	8,25
506,139	8,23
506,625	8,28
507,112	8,62
507,599	8,79
508,086	8,97
508,572	9,13
509,058	9,41
509,545	9,49
510,031	9,52
510,517	9,79
511,003	10,04
511,489	10,32
511,974	10,5
512,46	10,65
512,946	10,86
513,431	11,02
513,916	11,37
514,401	11,46
514,887	11,93
515,371	12,05
515,856	12,32
516,341	12,56
516,826	12,43
517,31	12,69
517,795	13,12
518,279	13,23
518,763	13,3
519,247	13,68
519,731	13,76
520,215	14,21
520,699	14,44
521,182	14,62
521,666	14,95
522,149	15,09
522,633	15,7
523,116	15,56
523,599	16,03
524,082	16,07
524,565	16,33
525,048	16,47
525,53	16,61
526,013	16,85
526,495	16,95
526,978	17,4
527,46	17,27
527,942	17,67
528,424	17,71
528,906	17,56
529,388	17,91
529,87	17,96
530,351	18,26
530,833	18,39
531,314	18,44
531,795	18,47
532,277	18,59
532,758	18,86
533,238	18,73
533,719	18,78
534,2	18,97
534,681	19,4
535,161	19,49
535,642	19,22
536,122	19,13
536,602	19,44
537,082	19,39
537,562	19,59
538,042	19,66
538,522	19,58
539,001	19,5
539,481	19,74
539,96	19,91
540,44	19,9
540,919	19,62
541,398	20,04
541,877	19,9
542,356	19,77
542,835	19,96
543,313	20,13
543,792	19,98
544,27	19,96
544,749	20,06
545,227	20,21
545,705	20,29
546,183	20,23
546,661	20,26
547,139	20,11
547,616	20,09
548,094	20,05
548,571	20,33
549,049	20,28
549,526	20,43
550,003	20,45
550,48	20,36
550,957	20,15
551,434	20,21
551,911	20,42
552,387	20,33
552,864	20,38
553,34	20,37
553,817	20,67
554,293	20,51
554,769	20,5
555,245	20,44
555,721	20,27
556,197	20,35
556,672	20,35
557,148	20,42
557,623	20,47
558,099	20,21
558,574	20,27
559,049	20,32
559,524	20,29
559,999	20,42
560,474	20,08
560,948	20,11
561,423	20,14
561,897	20,08
562,372	19,82
562,846	20,05
563,32	19,84
563,794	19,86
564,268	19,81
564,742	19,83
565,216	19,61
565,69	19,34
566,163	19,48
566,636	19,31
567,11	19,16
567,583	19
568,056	19
568,529	18,8
569,002	18,62
569,475	18,53
569,947	18,44
570,42	18,45
570,892	18,16
571,365	18,21
571,837	18,04
572,309	17,99
572,781	18,01
573,253	17,73
573,725	17,61
574,197	17,42
574,668	17,26
575,14	17,48
575,611	17,08
576,082	16,95
576,554	17,01
577,025	16,68
577,496	16,59
577,967	16,72
578,437	16,57
578,908	16,33
579,379	16,28
579,849	16,17
580,319	16,13
580,79	16,04
581,26	16,01
581,73	15,8
582,2	15,82
582,669	15,67
583,139	15,56
583,609	15,36
584,078	15,31
584,548	15,41
585,017	15,31
585,486	15,15
585,955	15,02
586,424	14,93
586,893	15,04
587,362	14,79
587,83	14,84
588,299	14,57
588,767	14,83
589,236	14,58
589,704	14,62
590,172	14,58
590,64	14,4
591,108	14,42
591,576	14,53
592,043	14,27
592,511	14,39
592,978	14,09
593,446	14,18
593,913	14,06
594,38	14,02
594,847	14,11
595,314	13,9
595,781	14,06
596,248	14,03
596,715	13,95
597,181	13,87
597,647	13,72
598,114	13,88
598,58	13,92
599,046	13,63
599,512	13,73
599,978	13,77
600,444	13,68
600,91	13,59
601,375	13,81
601,841	13,48
602,306	13,6
602,771	13,59
603,236	13,43
603,702	13,52
604,167	13,42
604,631	13,39
605,096	13,31
605,561	13,15
606,025	13,32
606,49	13,12
606,954	13,11
607,418	13,06
607,882	13,01
608,347	12,91
608,81	12,83
609,274	12,65
609,738	12,58
610,202	12,63
610,665	12,65
611,128	12,6
611,592	12,38
612,055	12,35
612,518	12,24
612,981	12,28
613,444	12,17
613,907	12,07
614,369	11,98
614,832	12
615,294	11,86
615,757	11,94
616,219	11,62
616,681	11,76
617,143	11,55
617,605	11,51
618,067	11,47
618,529	11,44
618,99	11,39
619,452	11,3
619,913	11,22
620,375	11,2
620,836	11,22
621,297	11,1
621,758	11,11
622,219	11,11
622,68	11,06
623,14	11,05
623,601	11,03
624,061	10,91
624,522	10,86
624,982	10,81
625,442	10,75
625,902	10,86
626,362	10,66
626,822	10,86
627,282	10,79
627,742	10,71
628,201	10,74
628,661	10,73
629,12	10,66
629,579	10,58
630,038	10,73
630,497	10,59
630,956	10,65
631,415	10,68
631,874	10,63
632,332	10,67
632,791	10,48
633,249	10,38
633,708	10,35
634,166	10,47
634,624	10,27
635,082	10,38
635,54	10,26
635,998	10,15
636,455	10,16
636,913	9,99
637,37	9,94
637,828	9,78
638,285	9,69
638,742	9,71
639,199	9,52
639,656	9,51
640,113	9,35
640,57	9,24
641,027	9,18
641,483	9,01
641,94	8,94
642,396	8,8
642,852	8,64
643,309	8,64
643,765	8,52
644,221	8,39
644,676	8,3
645,132	8,23
645,588	8,07
646,043	7,95
646,499	7,84
646,954	7,83
647,409	7,78
647,864	7,56
648,319	7,44
648,774	7,39
649,229	7,32
649,684	7,32
650,139	7,28
650,593	7,14
651,047	7,08
651,502	7,11
651,956	7,05
652,41	6,97
652,864	6,97
653,318	6,91
653,772	6,85
654,225	6,91
654,679	6,75
655,133	6,78
655,586	6,73
656,039	6,73
656,492	6,68
656,946	6,54
657,399	6,58
657,851	6,48
658,304	6,4
658,757	6,33
659,209	6,23
659,662	6,26
660,114	6,09
660,567	6,14
661,019	6,01
661,471	6,01
661,923	5,87
662,375	5,85
662,826	5,69
663,278	5,72
663,73	5,64
664,181	5,62
664,632	5,47
665,084	5,41
665,535	5,36
665,986	5,41
666,437	5,28
666,888	5,32
667,338	5,24
667,789	5,21
668,24	5,19
668,69	5,18
669,14	5,23
669,591	5,15
670,041	5,25
670,491	5,13
670,941	5,16
671,391	5,22
671,84	5,2
672,29	5,23
672,74	5,28
673,189	5,29
673,638	5,4
674,088	5,42
674,537	5,42
674,986	5,54
675,435	5,58
675,883	5,57
676,332	5,74
676,781	5,85
677,229	5,83
677,678	5,96
678,126	6,04
678,574	6,1
679,022	6,2
679,47	6,31
679,918	6,41
680,366	6,52
680,814	6,6
681,261	6,68
681,709	6,83
682,156	6,9
682,604	7,07
683,051	7,08
683,498	7,33
683,945	7,4
684,392	7,55
684,839	7,62
685,286	7,91
685,732	7,93
686,179	8,09
686,625	8,24
687,071	8,39
687,518	8,64
687,964	8,86
688,41	9,09
688,856	9,33
689,301	9,6
689,747	9,9
690,193	10,21
690,638	10,53
691,084	10,8
691,529	11,18
691,974	11,55
692,419	11,88
692,864	12,25
693,309	12,69
693,754	13,13
694,199	13,55
694,643	13,81
695,088	14,3
695,532	14,67
695,977	15,05
696,421	15,49
696,865	15,72
697,309	16,18
697,753	16,64
698,197	17,02
698,64	17,42
699,084	17,7
699,527	18,15
699,971	18,53
700,414	18,77
700,857	19,25
701,3	19,53
701,743	19,89
702,186	20,07
702,629	20,5
703,072	20,83
703,515	21,04
703,957	21,31
704,399	21,85
704,842	21,86
705,284	22,09
705,726	22,38
706,168	22,79
706,61	22,93
707,052	23,24
707,494	23,41
707,935	23,77
708,377	23,88
708,818	24,05
709,26	24,09
709,701	24,5
710,142	24,57
710,583	24,87
711,024	25,06
711,465	25,37
711,905	25,45
712,346	25,64
712,787	25,71
713,227	26,07
713,667	26,2
714,108	26,35
714,548	26,58
714,988	26,66
715,428	26,91
715,868	26,93
716,307	26,97
716,747	27,22
717,186	27,43
717,626	27,51
718,065	27,68
718,504	27,83
718,944	28,12
719,383	28,16
719,822	28,36
720,261	28,21
720,699	28,49
721,138	28,54
721,576	28,53
722,015	28,79
722,453	28,9
722,892	29,13
723,33	29,22
723,768	29,21
724,206	29,43
724,644	29,53
725,081	29,5
725,519	29,52
725,957	29,5
726,394	29,79
726,832	29,58
727,269	29,89
727,706	29,83
728,143	30,07
728,58	30,22
729,017	30,21
729,454	30,34
729,89	30,36
730,327	30,14
730,764	30,39
731,2	30,47
731,636	30,43
732,072	30,57
732,509	30,6
732,945	30,5
733,38	30,4
733,816	30,61
734,252	30,61
734,688	30,61
735,123	30,63
735,559	30,76
735,994	30,65
736,429	30,7
736,864	30,85
737,299	30,61
737,734	30,86
738,169	30,63
738,604	30,87
739,038	30,7
739,473	30,75
739,907	30,96
740,342	30,98
740,776	30,71
741,21	30,77
741,644	30,88
742,078	30,91
742,512	30,81
742,946	30,98
743,379	30,7
743,813	30,47
744,246	30,67
744,68	30,83
745,113	30,72
745,546	30,56
745,979	30,8
746,412	30,87
746,845	30,65
747,278	30,67
747,711	30,56
748,143	30,54
748,576	30,51
749,008	30,51
749,441	30,64
749,873	30,48
750,305	30,46
750,737	30,33
751,169	30,55
751,601	30,49
752,032	30,59
752,464	30,57
752,896	30,45
753,327	30,33
753,758	30,39
754,19	30,35
754,621	30,54
755,052	30,35
755,483	30,22
755,914	30,41
756,344	30,3
756,775	30,28
757,206	30,37
757,636	30,29
758,066	30,15
758,497	30,12
758,927	30,08
759,357	30,07
759,787	30,01
760,217	29,86
760,647	29,89
761,076	30,14
761,506	29,97
761,935	29,89
762,365	29,9
762,794	29,79
763,223	29,76
763,653	29,88
764,082	29,82
764,51	29,88
764,939	29,69
765,368	29,78
765,797	29,81
766,225	29,85
766,654	29,57
767,082	29,53
767,51	29,64
767,938	29,67
768,367	29,56
768,795	29,53
769,222	29,58
769,65	29,56
770,078	29,71
770,505	29,44
770,933	29,29
771,36	29,47
771,788	29,5
772,215	29,66
772,642	29,45
773,069	29,47
773,496	29,35
773,923	29,45
774,349	29,47
774,776	29,56
775,203	29,4
775,629	29,26
776,055	29,31
776,482	29,4
776,908	29,36
777,334	29,23
777,76	29,43
778,186	29,19
778,611	29,23
779,037	29,39
779,463	29,17
779,888	29,01
780,314	29,08
780,739	29,33
781,164	29,08
781,589	28,99
782,014	29,13
782,439	29,17
782,864	29,25
783,289	29,11
783,713	29,12
784,138	28,94
784,562	29,03
784,987	29,1
785,411	28,95
785,835	28,96
786,259	29,12
786,683	29,17
787,107	29,16
787,531	29,04
787,954	28,96
788,378	29,12
788,802	29,12
789,225	28,87
789,648	29
790,071	29,14
790,495	28,83
790,918	29,08
791,34	29,08
791,763	29,02
792,186	29,06
792,609	29,11
793,031	29,04
793,454	29
793,876	29,05
794,298	28,89
794,721	28,99
795,143	28,97
795,565	28,84
795,986	28,89
796,408	28,9
796,83	28,98
797,252	28,89
797,673	28,94
798,094	28,9
798,516	28,83
798,937	29,09
799,358	28,92
799,779	28,86
800,2	28,93
800,621	28,88
801,042	28,95
801,462	28,73
801,883	28,94
802,303	28,83
802,724	28,69
803,144	28,93
803,564	28,66
803,984	28,71
804,404	28,81
804,824	28,96
805,244	28,9
805,664	28,78
806,084	28,86
806,503	28,94
806,923	28,89
807,342	28,91
807,761	28,85
808,18	28,86
808,599	28,7
809,018	28,72
809,437	28,86
809,856	28,7
810,275	28,66
810,693	28,81
811,112	28,8
811,53	28,78
811,949	28,83
812,367	28,71
812,785	28,8
813,203	28,97
813,621	28,86
814,039	28,87
814,457	28,55
814,874	28,82
815,292	28,75
815,709	28,71
816,127	28,87
816,544	28,94
816,961	28,86
817,378	28,88
817,795	28,73
818,212	28,83
818,629	28,73
819,046	28,72
819,462	28,75
819,879	28,8
820,295	28,65
820,712	28,59
821,128	28,6
821,544	28,53
821,96	28,54
822,376	28,74
822,792	28,76
823,208	28,63
823,624	28,71
824,039	28,59
824,455	28,66
824,87	28,8
825,286	28,69
825,701	28,77
826,116	28,49
826,531	28,52
826,946	28,58
827,361	28,63
827,776	28,66
828,19	28,43
828,605	28,52
829,02	28,6
829,434	28,58
829,848	28,69
830,263	28,69
830,677	28,56
831,091	28,83
831,505	28,63
831,919	28,58
832,332	28,57
832,746	28,5
833,16	28,45
833,573	28,72
833,987	28,72
834,4	28,61
834,813	28,27
835,226	28,64
835,639	28,51
836,052	28,52
836,465	28,44
836,878	28,76
837,29	28,63
837,703	28,7
838,116	28,55
838,528	28,43
838,94	28,71
839,352	28,66
839,765	28,69
840,177	28,62
840,589	28,55
841	28,53
841,412	28,45
841,824	28,3
842,235	28,3
842,647	28,45
843,058	28,59
843,47	28,35
843,881	28,48
844,292	28,54
844,703	28,37
845,114	28,59
845,525	28,47
845,935	28,47
846,346	28,49
846,757	28,39
847,167	28,58
847,577	28,44
847,988	28,42
848,398	28,43
848,808	28,17
849,218	28,41
849,628	28,26
850,038	28,58
850,448	28,33
850,857	28,71
851,267	28,5
851,676	28,39
852,086	28,45
852,495	28,32
852,904	28,35
853,313	28,46
853,722	28,45
854,131	28,47
854,54	28,5
854,949	28,39
855,357	28,23
855,766	28,38
856,174	28,18
856,583	28,44
856,991	28,28
857,399	28,43
857,807	28,52
858,215	28,29
858,623	28,34
859,031	28,38
859,439	28,4
859,846	28,31
860,254	28,42
860,661	28,3
861,069	28,31
861,476	28,49
861,883	28,32
862,29	28,34
862,697	28,35
863,104	28,27
863,511	28,23
863,918	28,22
864,325	28,07
864,731	27,99
865,138	28,28
865,544	28,17
865,95	28,28
866,357	28,44
866,763	28,34
867,169	28,33
867,575	28,33
867,98	28,3
868,386	28,32
868,792	28,17
869,197	28,26
869,603	28,11
870,008	28,32
870,414	28,07
870,819	28,33
871,224	28,22
871,629	28,18
872,034	28,28
872,439	28,25
872,844	28,31
873,248	28,36
873,653	28,23
874,057	28,17
874,462	28,23
874,866	28,39
875,27	28,26
875,674	28,2
876,078	28,21
876,482	28,35
876,886	28,19
877,29	28,16
877,694	28,11
878,097	28,19
878,501	27,81
878,904	28,35
879,308	28,23
879,711	28,25
880,114	28,32
880,517	27,95
880,92	28,11
881,323	28,38
881,726	28,25
882,128	28,06
882,531	28,19
882,934	28,24
883,336	28,23
883,738	28,35
884,141	28,29
884,543	28,39
884,945	28,16
885,347	28,23
885,749	28,13
886,151	28,16
886,552	28,29
886,954	28,08
887,355	28,21
887,757	27,96
888,158	28,23
888,56	28,48
888,961	28,18
889,362	28,21
889,763	28,22
890,164	28,05
890,565	28,12
890,965	28,34
891,366	28,29
891,767	28,37
892,167	28,14
892,567	28,12
892,968	28,04
893,368	28,07
893,768	28,2
894,168	27,98
894,568	28,03
894,968	28,26
895,368	28,24
895,767	28,06
896,167	28,27
896,566	28,2
896,966	28,14
897,365	28,18
897,764	27,94
898,164	28,29
898,563	28,38
898,962	28,22
899,361	28,36
899,759	28,04
900,158	28,14
900,557	28,2
900,955	28,35
901,354	28,09
901,752	28,15
902,15	28,1
902,548	28,05
902,947	27,9
903,345	28,08
903,742	27,98
904,14	28,11
904,538	28,29
904,936	28,12
905,333	28,15
905,731	28,1
906,128	27,91
906,525	28,1
906,923	28,21
907,32	28,13
907,717	27,89
908,114	28,26
908,511	27,97
908,907	28,11
909,304	27,95
909,701	28,01
910,097	27,94
910,494	28,34
910,89	27,94
911,286	28,36
911,682	28,28
912,078	28,38
912,474	28,38
912,87	28
913,266	27,99
913,662	28,27
914,058	28,14
914,453	28,27
914,849	28,2
915,244	28,11
915,639	28,31
916,034	28,2
916,43	28,19
916,825	28,18
917,22	28,31
917,614	28,12
918,009	28,11
918,404	27,97
918,798	28,17
919,193	27,97
919,587	28,31
919,982	28,04
920,376	28,19
920,77	28,19
921,164	28,19
921,558	28,32
921,952	27,92
922,346	28,06
922,74	28,09
923,133	28,19
923,527	28,08
923,92	28,23
924,314	28,15
924,707	27,86
925,1	28,3
925,493	28,04
925,886	28,12
926,279	27,98
926,672	27,89
927,065	27,86
927,457	27,87
927,85	27,79
928,243	27,99
928,635	28,18
929,027	27,88
929,42	28,02
929,812	27,97
930,204	27,95
930,596	28,06
930,988	28,09
931,379	28,3
931,771	27,71
932,163	28,08
932,554	28,02
932,946	28,09
933,337	28,09
933,729	27,75
934,12	27,87
934,511	28,02
934,902	27,82
935,293	28,05
935,684	27,88
936,075	28,19
936,465	27,85
936,856	27,91
937,246	28,07
937,637	27,92
938,027	28,38
938,417	27,99
938,808	28,11
939,198	27,96
939,588	27,85
939,978	28,14
940,368	27,99
940,757	28,08
941,147	28,62
941,537	28,62
941,926	27,76
942,315	27,63
942,705	28,28
943,094	27,68
943,483	28,19
943,872	27,97
944,261	27,84
944,65	28,03
945,039	28,18
945,428	27,63
945,816	28,23
946,205	28,12
946,593	28,2
946,982	28,32
947,37	28,22
947,758	28,21
948,146	27,44
948,534	27,69
948,922	27,97
949,31	27,82
949,698	27,69
950,086	27,52
950,473	28,01
950,861	27,68
951,248	27,97
951,636	27,78
952,023	27,62
952,41	27,3
952,797	27,87
953,184	27,63
953,571	27,86
953,958	27,53
954,345	27,58
954,731	27,84
955,118	27,72
955,505	27,67
955,891	27,93
956,277	27,41
956,664	27,54
957,05	27,29
957,436	27,52
957,822	27,68
958,208	27,52
958,594	27,73
958,979	27,48
959,365	27,7
959,751	27,73
960,136	27,38
960,522	27,59
960,907	27,55
961,292	27,56
961,677	27,86
962,062	27,3
962,447	27,48
962,832	27,68
963,217	27,73
963,602	27,36
963,986	27,55
964,371	27,3
964,756	27,46
965,14	27,62
965,524	27,38
965,908	27,4
966,293	27,35
966,677	27,27
967,061	27,67
967,445	27,32
967,828	27,7
968,212	27,56
968,596	27,53
968,979	27,6
969,363	27,4
969,746	27,52
970,129	27,37
970,513	27,45
970,896	27,7
971,279	27,09
971,662	27,92
972,045	27,66
972,428	27,64
972,81	27,56
973,193	27,58
973,575	27,42
973,958	27,56
974,34	27,53
974,723	27,5
975,105	27,68
975,487	27,5
975,869	27,52
976,251	27,57
976,633	27,32
977,015	27,42
977,396	27,29
977,778	27,41
978,16	27,04
978,541	27,37
978,922	27,52
979,304	27,72
979,685	27,28
980,066	27,76
980,447	27,39
980,828	27,35
981,209	27,48
981,59	27,5
981,97	27,57
982,351	27,5
982,732	27,75
983,112	27,43
983,493	27,41
983,873	27,56
984,253	27,73
984,633	27,46
985,013	27,24
985,393	27,5
985,773	27,52
986,153	27,58
986,533	27,55
986,912	27,73
987,292	27,67
987,671	27,32
988,051	27,79
988,43	27,7
988,809	27,42
989,188	27,75
989,567	27,4
989,946	27,47
990,325	27,31
990,704	27,77
991,083	27,44
991,461	27,7
991,84	27,43
992,218	27,51
992,597	27,75
992,975	27,54
993,353	27,83
993,732	27,8
994,11	27,36
994,488	27,62
994,866	27,81
995,243	28,02
995,621	27,69
995,999	27,5
996,376	27,95
996,754	27,51
997,131	27,61
997,509	27,7
997,886	27,87
998,263	27,58
998,64	27,8
999,017	27,36
999,394	27,94
999,771	27,75
1000,148	27,63
1000,524	27,85
1000,901	27,75
1001,277	28
1001,654	27,69
1002,03	27,92
1002,406	28,24
1002,783	27,68
1003,159	27,57
1003,535	28
1003,911	27,82
1004,286	28,2
1004,662	27,79
1005,038	27,68
1005,414	27,76
1005,789	28,08
1006,164	27,74
1006,54	27,63
1006,915	27,99
1007,29	27,52
1007,665	27,91
1008,04	28,19
1008,415	27,82
1008,79	28,24
1009,165	27,96
1009,54	27,72
1009,914	28,48
1010,289	28,06
1010,663	27,75
1011,038	28,4
1011,412	27,8
1011,786	28,22
1012,16	27,88
1012,535	28,18
1012,909	28,17
1013,282	27,96
1013,656	27,79
1014,03	27,97
1014,404	28,38
1014,777	28,01
1015,151	28,04
1015,524	28,31
1015,897	28,03
1016,271	28,19
1016,644	28,15
1017,017	28,27
1017,39	28,58
1017,763	28,19
1018,136	28,27
1018,508	28,04
1018,881	28,33
1019,254	27,89
1019,626	28,29
1019,999	28,13
1020,371	27,85
1020,743	27,98
1021,116	28,43
1021,488	28,1
1021,86	28,11
1022,232	28,39
1022,604	28,44
1022,975	28,29
1023,347	28,29
1023,719	28,43
1024,09	28,33
1024,462	28,77
1024,833	28,43
1025,204	29,01
1025,576	28,5
1025,947	28,16
1026,318	28,85
1026,689	28,81
1027,06	28,87
1027,431	28,13
1027,801	28,78
1028,172	28,52
1028,543	28,44
1028,913	28,66
1029,284	28,45
1029,654	28,55
1030,024	28,63
1030,394	27,9
1030,764	28,64
1031,135	28,71
1031,504	28,31
1031,874	28,43
1032,244	28,65
1032,614	28,18
1032,983	28,55
1033,353	28,95
1033,722	28,73
1034,092	28,7
1034,461	28,59
1034,83	28,56
1035,2	28,87
1035,569	28,68
1035,938	28,42
1036,307	29,11
1036,675	28,68
1037,044	28,69
1037,413	28,91
1037,781	28,97
1038,15	28,93
1038,518	29,13
1038,887	28,85
1039,255	28,94
1039,623	28,93
1039,991	28,64
1040,359	28,63
1040,727	28,85
1041,095	28,97
1041,463	28,96
1041,831	28,6
1042,198	29
1042,566	28,86
1042,933	29,14
1043,301	29,06
1043,668	29,12
1044,035	29,45
1044,402	28,95
1044,77	28,91
1045,137	28,89
1045,503	29,45
1045,87	28,55
1046,237	29,07
1046,604	28,98
1046,97	29,34
1047,337	28,99
1047,703	29,24
1048,07	29,42
1048,436	29,55
1048,802	29,01
1049,168	29,21
1049,534	30,01
1049,9	29,27
1050,266	29,08
1050,632	29,21
1050,998	30,03
1051,364	29,37
1051,729	29,65
1052,095	28,68
1052,46	29,66
1052,825	29,31
1053,191	29,53
1053,556	29,64
1053,921	29,02
1054,286	29,35
1054,651	29,59
1055,016	29,37
1055,381	29,85
1055,745	29,61
1056,11	29,81
1056,475	30,02
1056,839	29,64
1057,203	28,92
1057,568	29,64
1057,932	29,89
1058,296	29,3
1058,66	30,11
1059,024	29,75
1059,388	30,33
1059,752	29,75
1060,116	30,37
1060,48	30,6
1060,843	30,72
1061,207	30,55
1061,57	31,05
1061,934	30,66
1062,297	29,9
1062,66	30,24
1063,023	29,57
1063,386	30,41
1063,749	29,89
1064,112	30
1064,475	30,58
1064,838	29,66
1065,201	30,54
1065,563	30,35
1065,926	30,52
1066,288	30,11
1066,651	29,76
1067,013	29,89
1067,375	30,7
1067,737	29,97
1068,099	29,87
1068,461	30,22
1068,823	30,35
1069,185	30,11
1069,547	30,79
1069,909	29,56
1070,27	30,67
1070,632	30,88
1070,993	30,37
1071,355	30,37
1071,716	30,36
1072,077	30,28
1072,438	29,61
1072,799	30,44
1073,16	30,65
1073,521	31,13
1073,882	30,79
1074,243	30,43
1074,603	31,87
1074,964	30,61
1075,325	31,04
1075,685	31,66
1076,045	30,96
1076,406	30,08
1076,766	30,38
1077,126	30,4
1077,486	31,35
1077,846	30,69
1078,206	31,21
1078,566	30,62
1078,925	30,87
1079,285	31,1
1079,645	30,7
1080,004	31,84
1080,364	30,69
1080,723	31,57
1081,082	30,53
1081,442	31,23
1081,801	30,95
1082,16	31,65
1082,519	31,19
1082,878	30,86
1083,237	30,73
1083,595	31,96
1083,954	30,82
1084,313	30,98
1084,671	32,06
1085,03	31,86
1085,388	29,97
1085,746	31,45
1086,104	31,51
1086,463	30,64
1086,821	31,99
1087,179	31,95
1087,537	31,61
1087,894	31,26
1088,252	31,99
1088,61	32,82
1088,967	30,95
1089,325	31,81
1089,682	31,89
1090,04	31,36
1090,397	30,92
1090,754	31,58
1091,111	32,15
1091,469	31,15
1091,826	31
1092,182	32,04
1092,539	33,2
1092,896	30,82
1093,253	31,7
1093,609	31,55
1093,966	32,5
1094,322	32,52
1094,679	32,92
1095,035	32,45
1095,391	31,28
1095,748	32,64
1096,104	32,15
1096,46	31,95
1096,816	32,84
1097,171	31,84
1097,527	33,21
1097,883	33,04
1098,239	34,23
1098,594	33,51
1098,95	33,35
1099,305	32,42
1099,66	32,71
1100,016	32,74
1100,371	33,1
1100,726	32
1101,081	31,98
1101,436	32,46
1101,791	33,89
1102,146	32,43
1102,5	31,6
1102,855	32,49
1103,21	34,56
1103,564	32,84
1103,918	33,13
1104,273	34,52
1104,627	33,82
1104,981	33,08
1105,335	33,9
1105,69	32,77
1106,043	31,95
1106,397	34,25
1106,751	34,45
1107,105	34,59
1107,459	34,36
1107,812	34,65
1108,166	35,5
1108,519	32,86
1108,873	35,09
1109,226	34,3
1109,579	37,66
1109,932	35,54
1110,285	35,24
1110,638	36,92
1110,991	34,46
1111,344	35,48
1111,697	35,68
1112,05	34,51
1112,402	35,34
1112,755	33,57
1113,107	36,71
1113,46	38,4
1113,812	38,81
1114,164	36,38
1114,517	37,52
1114,869	111,39
1115,221	87,44
1115,573	86,11
1115,924	88,52
