Data from G6__Relative__5__00139.txt Node

Date: Tue Jan 30 18:07:55 CET 2024
User: diatiterra
Spectrometer: HDX00911
Trigger mode: 0
Integration Time (sec): 6,000000E-3
Scans to average: 3
Nonlinearity correction enabled: true
Boxcar width: 0
Storing dark spectrum: false
XAxis mode: Wavelengths
Number of Pixels in Spectrum: 2068
>>>>>Begin Spectral Data<<<<<
194,468	140,88
195,025	120,93
195,581	108,15
196,138	109,46
196,694	103,44
197,251	85,31
197,807	85,51
198,363	82,39
198,919	85,23
199,474	89,55
200,03	87,21
200,586	83,23
201,141	78,13
201,696	78,2
202,251	80,24
202,806	82,48
203,361	81,61
203,916	79,11
204,471	84,95
205,025	77,52
205,58	86,67
206,134	81,86
206,688	82,72
207,242	81,12
207,796	84,75
208,35	82,96
208,904	83,36
209,457	84,62
210,011	80,38
210,564	81,18
211,117	88,11
211,67	92,34
212,223	83,94
212,776	87,81
213,329	85,2
213,881	86,58
214,434	75,68
214,986	83,08
215,538	82,31
216,09	80,72
216,642	85,18
217,194	82,91
217,746	83,68
218,297	81,86
218,849	85,63
219,4	88,16
219,951	83,06
220,502	82,68
221,053	78,25
221,604	84,69
222,155	83,57
222,705	87,32
223,256	82,27
223,806	79,6
224,356	89,33
224,906	81,1
225,456	84,31
226,006	80,5
226,556	79,87
227,106	84,19
227,655	81,7
228,204	85,53
228,754	87,03
229,303	77,82
229,852	84,35
230,401	85,21
230,949	88,64
231,498	82,17
232,047	76,22
232,595	88,23
233,143	83,05
233,691	79,11
234,239	79,08
234,787	80,16
235,335	87,73
235,883	88,94
236,43	89,44
236,978	78,25
237,525	80,69
238,072	80,54
238,619	80,22
239,166	81,97
239,713	80,51
240,26	77,73
240,806	81,42
241,353	78,5
241,899	81,05
242,445	84,56
242,991	83,57
243,537	83,72
244,083	80,72
244,629	86,06
245,174	82,49
245,72	88,05
246,265	85,37
246,81	94,93
247,355	74,51
247,9	86,38
248,445	88,34
248,99	84,14
249,534	84,16
250,079	87,01
250,623	79,55
251,168	82,43
251,712	81,95
252,256	79,74
252,8	84,25
253,343	84,84
253,887	81,22
254,43	92,15
254,974	88,28
255,517	81,44
256,06	85,27
256,603	88,28
257,146	83,23
257,689	84,22
258,232	88,75
258,774	83,69
259,317	80,79
259,859	87,53
260,401	88,83
260,943	87,72
261,485	89,87
262,027	90,46
262,569	81,66
263,11	84,19
263,652	92,17
264,193	84,3
264,734	81,88
265,275	88,08
265,816	84,85
266,357	85,83
266,898	88,75
267,438	90,37
267,979	85,5
268,519	89
269,059	82,94
269,6	82,45
270,14	85,43
270,68	81,57
271,219	88,86
271,759	80,05
272,298	85,31
272,838	87,15
273,377	79,91
273,916	86,13
274,455	77,71
274,994	92,07
275,533	86,89
276,072	87,29
276,61	88,52
277,149	85,56
277,687	82,76
278,225	89,58
278,763	88,1
279,301	87,13
279,839	88,19
280,377	86,99
280,914	77,33
281,452	85,63
281,989	88,52
282,526	77,18
283,064	87,54
283,601	82,29
284,137	88,46
284,674	83,76
285,211	86,89
285,747	82,45
286,284	89,74
286,82	87,78
287,356	83,3
287,892	88,65
288,428	86,13
288,964	82,16
289,5	83,56
290,035	85,66
290,571	89,37
291,106	94,78
291,641	86,67
292,176	84,2
292,711	82,08
293,246	85,75
293,781	87,04
294,315	82,28
294,85	92,65
295,384	90,87
295,918	79,95
296,453	88,63
296,987	82,01
297,52	82,57
298,054	79,39
298,588	91,81
299,121	85,76
299,655	83,7
300,188	81,66
300,721	80,62
301,254	85,57
301,787	82,2
302,32	90,61
302,853	82,65
303,385	83,56
303,918	85,43
304,45	79,69
304,982	89,34
305,514	85,63
306,046	80,84
306,578	85,78
307,11	82,79
307,641	90,52
308,173	84,92
308,704	89,63
309,236	85,4
309,767	85,54
310,298	78,53
310,829	93,06
311,359	82,37
311,89	78,43
312,421	78,99
312,951	78,86
313,481	90,39
314,012	83,16
314,542	81,19
315,072	80,39
315,601	81,27
316,131	84,55
316,661	82,5
317,19	83,27
317,72	75,05
318,249	79,32
318,778	85,57
319,307	80,72
319,836	87,93
320,365	82,03
320,893	82,86
321,422	79,13
321,95	77,92
322,479	85,57
323,007	79,06
323,535	77,51
324,063	77,47
324,591	87,74
325,118	84,47
325,646	81,4
326,173	79,47
326,701	86,28
327,228	85,56
327,755	94,48
328,282	77,13
328,809	79,83
329,336	80,78
329,862	80,22
330,389	85,27
330,915	75,84
331,441	81,4
331,968	80,38
332,494	72,92
333,02	77
333,545	87,26
334,071	80,23
334,597	81
335,122	82,28
335,648	82,29
336,173	81,25
336,698	79,05
337,223	78,48
337,748	76,44
338,272	74,98
338,797	77,66
339,322	84,55
339,846	77,82
340,37	79,16
340,894	85,47
341,419	78,7
341,942	77,52
342,466	74,11
342,99	74,5
343,514	80,16
344,037	76,93
344,56	80,39
345,084	69,73
345,607	76,15
346,13	73,53
346,653	75,53
347,175	74,12
347,698	81,95
348,221	74,27
348,743	73,77
349,265	73,09
349,787	76,26
350,309	77,65
350,831	73,48
351,353	69,38
351,875	72,62
352,397	66,67
352,918	68,73
353,439	74,18
353,961	68,61
354,482	68,12
355,003	66,1
355,524	66,67
356,044	74,01
356,565	72,42
357,086	69,29
357,606	69,39
358,126	69,37
358,646	66,82
359,167	69,11
359,687	64,83
360,206	68,4
360,726	69,82
361,246	68,04
361,765	66,33
362,285	66,17
362,804	63,82
363,323	66,23
363,842	71,34
364,361	64,53
364,88	65,02
365,398	64,44
365,917	72,1
366,435	65,71
366,954	68,61
367,472	63,77
367,99	66,78
368,508	61,85
369,026	63,32
369,544	64,83
370,061	65,58
370,579	64,7
371,096	64,06
371,613	69,11
372,131	62,19
372,648	62,76
373,165	59,55
373,681	63,25
374,198	63,69
374,715	59,22
375,231	62,21
375,747	62,23
376,264	56,05
376,78	65,1
377,296	58,91
377,812	63,76
378,327	59,4
378,843	54,73
379,359	57,58
379,874	59,63
380,389	60,93
380,905	56,07
381,42	55,6
381,935	55,83
382,449	54,16
382,964	52,98
383,479	53,06
383,993	56,52
384,508	51,03
385,022	50,66
385,536	51,76
386,05	52,07
386,564	51,21
387,078	48,06
387,592	49,35
388,105	45,34
388,619	50,45
389,132	44,14
389,645	46,16
390,158	45,28
390,671	44,81
391,184	45,92
391,697	42,86
392,21	43,87
392,722	44,19
393,235	41,89
393,747	43,48
394,259	43,97
394,771	43,97
395,283	42,62
395,795	43,68
396,307	42,06
396,818	41,13
397,33	39,69
397,841	38,45
398,353	39,41
398,864	39,13
399,375	38,52
399,886	37,13
400,397	35,27
400,907	35,29
401,418	34,38
401,928	35,7
402,439	32,84
402,949	33,58
403,459	32,82
403,969	31,92
404,479	29,94
404,989	30,14
405,498	29,72
406,008	28,28
406,517	27,91
407,027	27,01
407,536	25,92
408,045	24,45
408,554	24,51
409,063	23,11
409,572	22,44
410,08	22,47
410,589	22,1
411,097	21,1
411,606	20,13
412,114	20,05
412,622	19,82
413,13	18,49
413,638	18,33
414,145	17,61
414,653	17,17
415,16	16,98
415,668	15,97
416,175	15,99
416,682	15,2
417,189	15,46
417,696	14,54
418,203	14,71
418,71	14,59
419,216	14,36
419,723	13,96
420,229	14,08
420,735	13,6
421,242	13,79
421,748	13,51
422,254	13,72
422,759	13,56
423,265	12,55
423,771	12,85
424,276	12,67
424,781	12,35
425,287	12,44
425,792	12,42
426,297	12,31
426,802	11,94
427,306	12,45
427,811	12,03
428,316	12,15
428,82	12,08
429,324	11,69
429,829	11,47
430,333	12,01
430,837	11,11
431,34	11,19
431,844	11,53
432,348	11,44
432,851	11,32
433,355	11,25
433,858	10,89
434,361	11,17
434,864	11,14
435,367	10,69
435,87	11,29
436,373	11,05
436,876	10,46
437,378	10,51
437,88	10,6
438,383	10,85
438,885	10,59
439,387	10,72
439,889	11,07
440,391	10,45
440,892	10,55
441,394	10,7
441,896	10,42
442,397	10,62
442,898	10,92
443,399	10,6
443,9	10,73
444,401	10,97
444,902	10,95
445,403	10,63
445,903	10,78
446,404	10,98
446,904	11,02
447,405	11
447,905	10,68
448,405	11,14
448,905	11,05
449,404	11,21
449,904	11
450,404	11,48
450,903	11,39
451,403	11,4
451,902	11,56
452,401	11,51
452,9	11,57
453,399	11,42
453,898	11,77
454,396	11,8
454,895	11,8
455,393	11,62
455,892	11,99
456,39	12
456,888	11,73
457,386	12,01
457,884	11,85
458,382	12,09
458,879	12,09
459,377	11,99
459,874	11,99
460,372	12,14
460,869	11,91
461,366	12,49
461,863	11,96
462,36	11,85
462,857	12,07
463,353	12,11
463,85	12,08
464,346	12,03
464,843	11,84
465,339	12,09
465,835	12,01
466,331	12,19
466,827	12,12
467,323	11,92
467,818	12,08
468,314	11,75
468,809	11,88
469,305	11,65
469,8	11,97
470,295	11,99
470,79	12
471,285	11,93
471,78	11,63
472,274	12,13
472,769	11,88
473,263	12,01
473,758	11,88
474,252	12,01
474,746	11,82
475,24	12,04
475,734	12
476,228	12,2
476,721	12,07
477,215	12,13
477,708	12,24
478,202	12,02
478,695	12,06
479,188	12,19
479,681	12,17
480,174	12,04
480,667	12,43
481,159	12,27
481,652	12,23
482,144	12,44
482,637	12,3
483,129	12,5
483,621	12,53
484,113	12,45
484,605	12,43
485,097	12,57
485,588	12,66
486,08	12,74
486,571	12,73
487,063	12,53
487,554	12,74
488,045	12,96
488,536	12,9
489,027	12,75
489,518	13,02
490,008	13,12
490,499	12,98
490,989	13,19
491,48	13,43
491,97	13,15
492,46	13,71
492,95	13,63
493,44	13,9
493,93	13,83
494,419	13,98
494,909	14,28
495,398	14,2
495,888	14,29
496,377	14,47
496,866	14,64
497,355	15,05
497,844	14,85
498,333	15,08
498,821	15,38
499,31	15,62
499,798	15,58
500,287	16,11
500,775	16,04
501,263	16,72
501,751	16,96
502,239	16,78
502,727	17,17
503,215	17,52
503,702	17,69
504,19	17,65
504,677	18,24
505,164	18,56
505,651	18,65
506,139	19,17
506,625	19,3
507,112	19,74
507,599	19,95
508,086	19,85
508,572	20,38
509,058	20,82
509,545	21
510,031	21,43
510,517	21,74
511,003	22,32
511,489	22,93
511,974	22,9
512,46	23,12
512,946	23,75
513,431	24,08
513,916	24,39
514,401	24,88
514,887	25,72
515,371	25,97
515,856	26,19
516,341	26,56
516,826	27,32
517,31	27,34
517,795	27,81
518,279	28,64
518,763	28,77
519,247	29,34
519,731	29,89
520,215	30,16
520,699	30,47
521,182	30,99
521,666	31,47
522,149	32,07
522,633	32,4
523,116	32,23
523,599	32,93
524,082	33,27
524,565	33,71
525,048	33,95
525,53	34,38
526,013	34,73
526,495	35,01
526,978	35,57
527,46	35,55
527,942	35,97
528,424	36,38
528,906	36,63
529,388	36,45
529,87	37,23
530,351	37,23
530,833	36,98
531,314	37,87
531,795	38,05
532,277	38,1
532,758	38,52
533,238	38,32
533,719	38,68
534,2	38,49
534,681	38,72
535,161	39,27
535,642	39,36
536,122	39,44
536,602	39,16
537,082	39,43
537,562	39,56
538,042	39,69
538,522	39,61
539,001	39,92
539,481	39,85
539,96	39,88
540,44	39,87
540,919	39,7
541,398	39,98
541,877	40,44
542,356	40,12
542,835	40,64
543,313	40,16
543,792	40,17
544,27	40,3
544,749	40,35
545,227	40,44
545,705	40,73
546,183	40,44
546,661	40,53
547,139	40,89
547,616	40,33
548,094	40,34
548,571	40,77
549,049	40,86
549,526	41
550,003	40,72
550,48	40,92
550,957	40,97
551,434	40,8
551,911	41,02
552,387	41,21
552,864	41,14
553,34	40,92
553,817	41,34
554,293	40,59
554,769	41,26
555,245	41,02
555,721	40,94
556,197	41,06
556,672	40,79
557,148	40,7
557,623	40,85
558,099	41,19
558,574	40,7
559,049	40,77
559,524	40,62
559,999	40,87
560,474	40,93
560,948	40,74
561,423	40,55
561,897	40,39
562,372	40,09
562,846	40,4
563,32	40,1
563,794	39,9
564,268	39,87
564,742	39,75
565,216	39,75
565,69	39,6
566,163	39,61
566,636	39,11
567,11	38,9
567,583	38,41
568,056	38,68
568,529	38,27
569,002	38,09
569,475	38,08
569,947	37,79
570,42	38,01
570,892	37,54
571,365	37,13
571,837	37,34
572,309	37,03
572,781	36,55
573,253	36,63
573,725	36,57
574,197	35,85
574,668	36,07
575,14	35,4
575,611	35,18
576,082	35,03
576,554	35,14
577,025	34,8
577,496	34,51
577,967	34,88
578,437	34,14
578,908	34,01
579,379	33,85
579,849	33,71
580,319	33,65
580,79	33,45
581,26	33,36
581,73	33,07
582,2	33,09
582,669	32,71
583,139	32,72
583,609	32,69
584,078	32,42
584,548	32,07
585,017	32,25
585,486	32,27
585,955	31,72
586,424	31,7
586,893	31,63
587,362	31,54
587,83	31,32
588,299	31,26
588,767	31,16
589,236	30,9
589,704	31,28
590,172	30,9
590,64	30,77
591,108	30,58
591,576	30,43
592,043	30,61
592,511	30,4
592,978	30,15
593,446	30,21
593,913	30,23
594,38	30,12
594,847	30,21
595,314	29,88
595,781	29,72
596,248	29,83
596,715	29,69
597,181	29,62
597,647	29,83
598,114	29,7
598,58	29,69
599,046	29,44
599,512	29,61
599,978	29,36
600,444	29,32
600,91	29,25
601,375	29,44
601,841	29,1
602,306	29,17
602,771	29,08
603,236	29,22
603,702	29,1
604,167	28,9
604,631	28,66
605,096	28,73
605,561	28,67
606,025	28,5
606,49	28,49
606,954	28,37
607,418	28,28
607,882	28,25
608,347	27,99
608,81	28,06
609,274	27,69
609,738	27,52
610,202	27,71
610,665	27,33
611,128	27,33
611,592	27,24
612,055	26,86
612,518	26,94
612,981	27,04
613,444	26,66
613,907	26,53
614,369	26,39
614,832	26,53
615,294	26,09
615,757	26,2
616,219	25,85
616,681	25,9
617,143	25,66
617,605	25,58
618,067	25,63
618,529	25,42
618,99	25,21
619,452	25,25
619,913	25,19
620,375	24,92
620,836	24,96
621,297	24,63
621,758	24,6
622,219	24,64
622,68	24,53
623,14	24,59
623,601	24,51
624,061	24,43
624,522	24,16
624,982	24,14
625,442	24,21
625,902	24,27
626,362	24,25
626,822	24,16
627,282	24,28
627,742	24,07
628,201	24,02
628,661	24,07
629,12	23,89
629,579	23,83
630,038	24,04
630,497	23,9
630,956	23,86
631,415	23,81
631,874	23,64
632,332	23,66
632,791	23,54
633,249	23,49
633,708	23,48
634,166	23,39
634,624	23,28
635,082	23,23
635,54	23,16
635,998	23,03
636,455	22,92
636,913	22,7
637,37	22,47
637,828	22,34
638,285	22,33
638,742	22,14
639,199	21,77
639,656	21,62
640,113	21,56
640,57	21,33
641,027	21,02
641,483	20,93
641,94	20,57
642,396	20,65
642,852	20,33
643,309	19,97
643,765	19,78
644,221	19,66
644,676	19,46
645,132	19,28
645,588	18,9
646,043	18,77
646,499	18,6
646,954	18,44
647,409	18,21
647,864	18,02
648,319	17,83
648,774	17,49
649,229	17,62
649,684	17,33
650,139	17,4
650,593	17,23
651,047	17,1
651,502	17
651,956	16,9
652,41	16,95
652,864	16,74
653,318	16,59
653,772	16,62
654,225	16,6
654,679	16,41
655,133	16,34
655,586	16,16
656,039	16,22
656,492	16,14
656,946	15,88
657,399	15,77
657,851	15,67
658,304	15,57
658,757	15,32
659,209	15,03
659,662	15,1
660,114	14,9
660,567	14,69
661,019	14,67
661,471	14,58
661,923	14,2
662,375	14,1
662,826	13,91
663,278	13,81
663,73	13,6
664,181	13,45
664,632	13,38
665,084	13,26
665,535	13,2
665,986	13,05
666,437	12,83
666,888	12,71
667,338	12,67
667,789	12,64
668,24	12,55
668,69	12,43
669,14	12,44
669,591	12,38
670,041	12,41
670,491	12,28
670,941	12,25
671,391	12,35
671,84	12,28
672,29	12,37
672,74	12,35
673,189	12,42
673,638	12,41
674,088	12,46
674,537	12,47
674,986	12,6
675,435	12,67
675,883	12,72
676,332	12,8
676,781	12,8
677,229	13,02
677,678	13,19
678,126	13,18
678,574	13,35
679,022	13,5
679,47	13,56
679,918	13,82
680,366	13,94
680,814	14,11
681,261	14,06
681,709	14,47
682,156	14,6
682,604	14,8
683,051	14,98
683,498	15,37
683,945	15,62
684,392	15,73
684,839	16,05
685,286	16,46
685,732	16,85
686,179	17,12
686,625	17,41
687,071	17,78
687,518	18,38
687,964	18,83
688,41	19,45
688,856	19,97
689,301	20,51
689,747	21
690,193	21,61
690,638	22,28
691,084	22,72
691,529	23,5
691,974	24,29
692,419	24,91
692,864	25,78
693,309	26,47
693,754	27,04
694,199	27,84
694,643	28,63
695,088	29,37
695,532	30,28
695,977	31,04
696,421	31,55
696,865	32,42
697,309	33,26
697,753	33,91
698,197	34,44
698,64	35,14
699,084	35,76
699,527	36,38
699,971	37,17
700,414	37,69
700,857	38,49
701,3	39,18
701,743	39,46
702,186	40,04
702,629	40,71
703,072	41,16
703,515	41,69
703,957	42,01
704,399	42,66
704,842	43,01
705,284	43,55
705,726	43,99
706,168	44,59
706,61	44,91
707,052	45,24
707,494	45,55
707,935	46,02
708,377	46,55
708,818	46,83
709,26	47,3
709,701	47,67
710,142	47,84
710,583	48,14
711,024	48,49
711,465	49,03
711,905	49,15
712,346	49,51
712,787	49,85
713,227	49,99
713,667	50,67
714,108	50,83
714,548	51
714,988	51,13
715,428	51,76
715,868	52,11
716,307	51,79
716,747	52,32
717,186	52,75
717,626	52,84
718,065	53,17
718,504	53,13
718,944	53,39
719,383	53,86
719,822	54,09
720,261	54,01
720,699	54,17
721,138	54,64
721,576	54,62
722,015	54,84
722,453	55,19
722,892	55,39
723,33	55,55
723,768	55,64
724,206	56,02
724,644	55,86
725,081	56,27
725,519	56,09
725,957	56,35
726,394	56,51
726,832	56,55
727,269	56,81
727,706	56,71
728,143	57,19
728,58	57,03
729,017	57,03
729,454	57,34
729,89	57,36
730,327	57,22
730,764	57,51
731,2	57,53
731,636	57,6
732,072	57,69
732,509	57,94
732,945	57,66
733,38	57,85
733,816	57,91
734,252	57,86
734,688	57,69
735,123	58,02
735,559	58,31
735,994	58,14
736,429	58,05
736,864	58,11
737,299	58,13
737,734	58,18
738,169	58
738,604	58,6
739,038	58,32
739,473	58,24
739,907	58,3
740,342	58,37
740,776	58,09
741,21	58,28
741,644	58,38
742,078	58,5
742,512	58,32
742,946	58,35
743,379	58,04
743,813	58,29
744,246	58,14
744,68	58,35
745,113	58,06
745,546	58,08
745,979	58,15
746,412	58,24
746,845	57,9
747,278	58,17
747,711	58,06
748,143	58,15
748,576	57,91
749,008	58,12
749,441	57,84
749,873	58,01
750,305	57,8
750,737	58,01
751,169	57,77
751,601	57,72
752,032	57,66
752,464	57,91
752,896	57,63
753,327	57,41
753,758	57,66
754,19	57,55
754,621	57,8
755,052	57,61
755,483	57,4
755,914	57,48
756,344	57,55
756,775	57,41
757,206	57,57
757,636	57,09
758,066	57,39
758,497	57,19
758,927	57,13
759,357	57,12
759,787	57,05
760,217	57,21
760,647	56,88
761,076	57,17
761,506	56,94
761,935	56,83
762,365	56,8
762,794	56,84
763,223	56,81
763,653	56,98
764,082	56,84
764,51	56,82
764,939	56,59
765,368	56,76
765,797	56,63
766,225	56,68
766,654	56,38
767,082	56,61
767,51	56,64
767,938	56,4
768,367	56,27
768,795	56,09
769,222	56,68
769,65	56,52
770,078	56,57
770,505	56,36
770,933	56,19
771,36	56,31
771,788	56,25
772,215	56,37
772,642	56,21
773,069	56,16
773,496	56,36
773,923	56,04
774,349	56
774,776	55,94
775,203	56,17
775,629	56,14
776,055	56,02
776,482	56
776,908	55,95
777,334	55,95
777,76	55,99
778,186	55,81
778,611	55,86
779,037	55,98
779,463	55,57
779,888	55,5
780,314	55,57
780,739	56,08
781,164	55,66
781,589	55,92
782,014	55,61
782,439	55,83
782,864	55,63
783,289	55,66
783,713	55,73
784,138	55,57
784,562	55,68
784,987	55,44
785,411	55,58
785,835	55,57
786,259	55,69
786,683	55,58
787,107	55,74
787,531	55,39
787,954	55,5
788,378	55,82
788,802	55,75
789,225	55,46
789,648	55,72
790,071	55,55
790,495	55,48
790,918	55,54
791,34	55,71
791,763	55,5
792,186	55,28
792,609	55,58
793,031	55,32
793,454	55,35
793,876	55,37
794,298	55,36
794,721	55,25
795,143	55,75
795,565	55,29
795,986	55,29
796,408	55,32
796,83	55,3
797,252	55,43
797,673	55,5
798,094	55,16
798,516	55,16
798,937	55,35
799,358	55,29
799,779	55,34
800,2	55,4
800,621	55,12
801,042	55,3
801,462	55,35
801,883	55,36
802,303	54,98
802,724	55,21
803,144	55,38
803,564	54,98
803,984	55,29
804,404	55,29
804,824	55,47
805,244	55,28
805,664	55,42
806,084	55,21
806,503	55,25
806,923	55,11
807,342	55,19
807,761	55,11
808,18	55,26
808,599	55,11
809,018	55,03
809,437	55,15
809,856	54,63
810,275	54,98
810,693	55,17
811,112	55
811,53	54,93
811,949	55,13
812,367	54,91
812,785	55,07
813,203	55,22
813,621	55,36
814,039	54,88
814,457	54,92
814,874	55,2
815,292	55,22
815,709	54,95
816,127	55,07
816,544	55,29
816,961	54,76
817,378	55,22
817,795	55,16
818,212	55,11
818,629	55,22
819,046	55
819,462	55,13
819,879	55
820,295	54,94
820,712	54,77
821,128	54,96
821,544	54,94
821,96	54,89
822,376	54,94
822,792	54,95
823,208	54,91
823,624	55,25
824,039	54,73
824,455	55,12
824,87	55,1
825,286	54,61
825,701	55,1
826,116	54,38
826,531	54,95
826,946	54,7
827,361	54,82
827,776	54,68
828,19	54,84
828,605	54,75
829,02	54,95
829,434	54,72
829,848	55,09
830,263	54,64
830,677	54,88
831,091	54,94
831,505	54,89
831,919	54,73
832,332	54,68
832,746	54,63
833,16	54,71
833,573	55
833,987	54,83
834,4	54,65
834,813	54,7
835,226	54,62
835,639	54,87
836,052	54,6
836,465	54,72
836,878	54,85
837,29	54,6
837,703	55,09
838,116	54,61
838,528	54,75
838,94	54,57
839,352	54,76
839,765	54,78
840,177	54,69
840,589	54,85
841	54,61
841,412	54,59
841,824	54,33
842,235	54,35
842,647	54,48
843,058	54,68
843,47	54,92
843,881	54,74
844,292	54,6
844,703	54,53
845,114	54,87
845,525	54,66
845,935	54,92
846,346	54,67
846,757	54,81
847,167	54,55
847,577	54,61
847,988	54,3
848,398	54,39
848,808	54,24
849,218	54,3
849,628	54,36
850,038	54,59
850,448	54,49
850,857	54,67
851,267	54,56
851,676	54,51
852,086	54,85
852,495	54,48
852,904	54,47
853,313	54,31
853,722	54,68
854,131	54,43
854,54	54,44
854,949	54,52
855,357	54,29
855,766	54,36
856,174	54,17
856,583	54,55
856,991	54,5
857,399	54,44
857,807	54,69
858,215	54,63
858,623	54,71
859,031	54,78
859,439	54,81
859,846	54,72
860,254	54,71
860,661	54,55
861,069	54,4
861,476	54,47
861,883	54,17
862,29	54,31
862,697	54,57
863,104	54,09
863,511	54,24
863,918	54,53
864,325	54,14
864,731	53,94
865,138	54,41
865,544	54,33
865,95	54,25
866,357	54,35
866,763	54,46
867,169	54,68
867,575	54,26
867,98	54,44
868,386	54,74
868,792	54,53
869,197	54,48
869,603	54,07
870,008	54,49
870,414	53,98
870,819	54,04
871,224	54,06
871,629	54,11
872,034	54,49
872,439	54,25
872,844	54,28
873,248	54,47
873,653	54,15
874,057	54,18
874,462	54,46
874,866	54,42
875,27	54,31
875,674	54,56
876,078	54,31
876,482	54,46
876,886	54,52
877,29	54,11
877,694	53,88
878,097	53,86
878,501	54
878,904	54,39
879,308	54,19
879,711	54,12
880,114	54,4
880,517	54,07
880,92	54,55
881,323	54,76
881,726	54,44
882,128	54,07
882,531	54,26
882,934	54,26
883,336	54,14
883,738	54,4
884,141	54,42
884,543	54,64
884,945	54,21
885,347	54,28
885,749	54,18
886,151	54,04
886,552	54,25
886,954	53,98
887,355	54,39
887,757	54,05
888,158	54,28
888,56	54,46
888,961	54,34
889,362	54,19
889,763	54,21
890,164	54,5
890,565	54,37
890,965	54,18
891,366	54,28
891,767	54,86
892,167	54,18
892,567	54,3
892,968	54,03
893,368	54,2
893,768	54,19
894,168	54,12
894,568	54,07
894,968	54,37
895,368	54,11
895,767	54,38
896,167	54,31
896,566	54,27
896,966	54,26
897,365	54,49
897,764	54,15
898,164	54,4
898,563	54,61
898,962	54,26
899,361	54,46
899,759	54,07
900,158	54,23
900,557	54,44
900,955	54,42
901,354	54,01
901,752	54,1
902,15	54,36
902,548	54,33
902,947	54,28
903,345	54,43
903,742	54,32
904,14	54,44
904,538	54,45
904,936	54,6
905,333	54,06
905,731	54,23
906,128	54,13
906,525	54,36
906,923	54,19
907,32	54,09
907,717	53,84
908,114	54,46
908,511	54,11
908,907	54,17
909,304	53,91
909,701	54,43
910,097	54,03
910,494	54,21
910,89	54,15
911,286	54,43
911,682	54,51
912,078	54,32
912,474	54,54
912,87	54,3
913,266	54,14
913,662	54,37
914,058	54,18
914,453	54,08
914,849	54,37
915,244	54,33
915,639	54,37
916,034	54,41
916,43	54,32
916,825	54,68
917,22	54,44
917,614	54,26
918,009	53,87
918,404	53,93
918,798	54
919,193	53,95
919,587	53,99
919,982	54,02
920,376	54,08
920,77	54,21
921,164	54,31
921,558	54,31
921,952	54,25
922,346	53,85
922,74	54,43
923,133	54,15
923,527	53,87
923,92	53,89
924,314	54,27
924,707	53,96
925,1	54,11
925,493	54,09
925,886	54,08
926,279	54,01
926,672	53,91
927,065	54,07
927,457	53,98
927,85	53,71
928,243	54,04
928,635	53,9
929,027	53,8
929,42	54,19
929,812	53,97
930,204	54,09
930,596	53,9
930,988	54,07
931,379	54
931,771	53,98
932,163	54,42
932,554	53,68
932,946	53,99
933,337	53,76
933,729	53,74
934,12	53,8
934,511	53,9
934,902	53,71
935,293	53,78
935,684	53,91
936,075	54,14
936,465	53,52
936,856	53,37
937,246	53,81
937,637	53,35
938,027	53,87
938,417	53,91
938,808	53,46
939,198	53,69
939,588	53,72
939,978	53,9
940,368	53,62
940,757	53,57
941,147	53,53
941,537	54,01
941,926	53,32
942,315	53,38
942,705	53,99
943,094	53,26
943,483	53,79
943,872	54,07
944,261	53,47
944,65	53,85
945,039	54,17
945,428	53,06
945,816	53,37
946,205	53,01
946,593	53,56
946,982	54,12
947,37	53,5
947,758	53,4
948,146	53,27
948,534	52,7
948,922	53,12
949,31	53,09
949,698	52,72
950,086	53,14
950,473	53,32
950,861	52,91
951,248	53,23
951,636	52,96
952,023	52,59
952,41	52,91
952,797	52,87
953,184	53,02
953,571	52,55
953,958	53,16
954,345	52,89
954,731	52,87
955,118	53,03
955,505	53,26
955,891	52,96
956,277	52,89
956,664	52,72
957,05	52,37
957,436	53,06
957,822	52,8
958,208	52,44
958,594	52,88
958,979	52,6
959,365	53,09
959,751	52,77
960,136	52,93
960,522	52,43
960,907	52,54
961,292	52,89
961,677	52,63
962,062	52,47
962,447	52,84
962,832	52,48
963,217	52,51
963,602	52,17
963,986	52,46
964,371	52,27
964,756	52,5
965,14	52,92
965,524	52,2
965,908	52,1
966,293	51,93
966,677	52
967,061	52,64
967,445	52,54
967,828	52,98
968,212	52,91
968,596	52,57
968,979	52,57
969,363	52,74
969,746	52,39
970,129	52,14
970,513	52,3
970,896	52,76
971,279	52,21
971,662	52,5
972,045	52,36
972,428	52,61
972,81	52,71
973,193	53,06
973,575	52,83
973,958	52,39
974,34	52,33
974,723	52,54
975,105	52,14
975,487	52,65
975,869	52,68
976,251	52,45
976,633	52,72
977,015	52,62
977,396	52,72
977,778	52,64
978,16	52,64
978,541	52,51
978,922	53,02
979,304	52,72
979,685	52,72
980,066	53,36
980,447	52,69
980,828	52,56
981,209	52,86
981,59	52,64
981,97	52,63
982,351	52,95
982,732	52,7
983,112	53
983,493	52,99
983,873	52,86
984,253	52,89
984,633	52,44
985,013	52,86
985,393	52,66
985,773	52,4
986,153	52,59
986,533	52,95
986,912	52,94
987,292	52,88
987,671	52,99
988,051	53,1
988,43	53,02
988,809	53,04
989,188	53,4
989,567	53,02
989,946	53,69
990,325	52,18
990,704	53,23
991,083	52,9
991,461	53,1
991,84	52,67
992,218	52,9
992,597	53,46
992,975	52,94
993,353	53,3
993,732	53,12
994,11	53,16
994,488	53,03
994,866	52,87
995,243	52,66
995,621	53,04
995,999	53,18
996,376	53,02
996,754	52,75
997,131	53,09
997,509	52,99
997,886	52,85
998,263	53,15
998,64	52,86
999,017	53,29
999,394	53,24
999,771	53,56
1000,148	53,06
1000,524	53,12
1000,901	52,99
1001,277	53,89
1001,654	53,14
1002,03	53,16
1002,406	53,5
1002,783	52,87
1003,159	52,96
1003,535	53,32
1003,911	53,11
1004,286	54,16
1004,662	53,29
1005,038	53,08
1005,414	53,67
1005,789	53,5
1006,164	53,47
1006,54	53,6
1006,915	53,26
1007,29	53,41
1007,665	53,26
1008,04	53,71
1008,415	53,32
1008,79	53,68
1009,165	53,58
1009,54	53,58
1009,914	54,03
1010,289	53,33
1010,663	53,73
1011,038	53,84
1011,412	53,82
1011,786	54,1
1012,16	53,64
1012,535	53,42
1012,909	53,82
1013,282	53,94
1013,656	53,95
1014,03	54,07
1014,404	54,16
1014,777	53,75
1015,151	53,85
1015,524	54,33
1015,897	53,92
1016,271	53,93
1016,644	53,83
1017,017	54,26
1017,39	54,49
1017,763	53,99
1018,136	54,11
1018,508	54,23
1018,881	54,08
1019,254	53,4
1019,626	53,55
1019,999	54,03
1020,371	53,99
1020,743	54,45
1021,116	54,33
1021,488	53,6
1021,86	53,92
1022,232	54,42
1022,604	53,96
1022,975	54,6
1023,347	54,24
1023,719	54,2
1024,09	54,61
1024,462	55,08
1024,833	54,16
1025,204	55,27
1025,576	54,5
1025,947	53,84
1026,318	55,09
1026,689	54,66
1027,06	54,5
1027,431	54,63
1027,801	55,25
1028,172	54,2
1028,543	54,94
1028,913	54,98
1029,284	54,49
1029,654	54,51
1030,024	54,39
1030,394	54,51
1030,764	54,67
1031,135	54,54
1031,504	54,46
1031,874	54,51
1032,244	54,53
1032,614	54,48
1032,983	54,81
1033,353	55,02
1033,722	54,61
1034,092	54,5
1034,461	55,01
1034,83	54,51
1035,2	55,05
1035,569	55,35
1035,938	54,42
1036,307	54,89
1036,675	55,32
1037,044	54,64
1037,413	55,75
1037,781	55,13
1038,15	55,57
1038,518	55,15
1038,887	55,16
1039,255	55,09
1039,623	54,58
1039,991	55,35
1040,359	54,76
1040,727	55,92
1041,095	55,1
1041,463	55,37
1041,831	55
1042,198	55,61
1042,566	55,17
1042,933	54,98
1043,301	55,63
1043,668	55,22
1044,035	55,53
1044,402	55,57
1044,77	55,16
1045,137	54,99
1045,503	55,33
1045,87	55,14
1046,237	55,32
1046,604	55,69
1046,97	55,59
1047,337	56,77
1047,703	55,7
1048,07	55,45
1048,436	56,37
1048,802	55,96
1049,168	56,55
1049,534	56,7
1049,9	55,86
1050,266	56,05
1050,632	55,87
1050,998	56,27
1051,364	55,7
1051,729	55,97
1052,095	55,56
1052,46	55,44
1052,825	55,45
1053,191	55,16
1053,556	55,76
1053,921	56,22
1054,286	56,23
1054,651	56,47
1055,016	55,89
1055,381	56,37
1055,745	56,32
1056,11	56,35
1056,475	56,38
1056,839	57,4
1057,203	56,11
1057,568	56,88
1057,932	56,58
1058,296	57,18
1058,66	57,16
1059,024	56,38
1059,388	57,99
1059,752	56,91
1060,116	57,4
1060,48	57,67
1060,843	56,29
1061,207	56,7
1061,57	58,54
1061,934	57,67
1062,297	56,94
1062,66	55,8
1063,023	56,95
1063,386	56,19
1063,749	56,95
1064,112	58,22
1064,475	56,98
1064,838	57,28
1065,201	57,53
1065,563	57
1065,926	56,38
1066,288	56,41
1066,651	58,1
1067,013	57,07
1067,375	57,6
1067,737	55,99
1068,099	56,91
1068,461	57,29
1068,823	56,69
1069,185	57,77
1069,547	56,97
1069,909	56,33
1070,27	56,42
1070,632	56,23
1070,993	57,38
1071,355	57,32
1071,716	56,13
1072,077	56,59
1072,438	58,36
1072,799	57,15
1073,16	58,23
1073,521	58,29
1073,882	57,71
1074,243	57,66
1074,603	56,88
1074,964	57,02
1075,325	57,46
1075,685	57,51
1076,045	58,1
1076,406	56,44
1076,766	57,03
1077,126	56,8
1077,486	56,89
1077,846	57,45
1078,206	57,31
1078,566	56,37
1078,925	57,76
1079,285	57,76
1079,645	57,35
1080,004	59,49
1080,364	58,01
1080,723	59,67
1081,082	57,68
1081,442	58,89
1081,801	57,41
1082,16	58,52
1082,519	57,16
1082,878	57,79
1083,237	56,53
1083,595	58,62
1083,954	57,77
1084,313	58,36
1084,671	58,75
1085,03	58,38
1085,388	56,83
1085,746	57,87
1086,104	57,31
1086,463	58,3
1086,821	59,15
1087,179	58,24
1087,537	57,64
1087,894	57,57
1088,252	59,87
1088,61	58,2
1088,967	58,37
1089,325	57,97
1089,682	59,09
1090,04	56,75
1090,397	57,62
1090,754	58,92
1091,111	58,06
1091,469	57,6
1091,826	57,92
1092,182	58,45
1092,539	59,53
1092,896	59,1
1093,253	59,43
1093,609	57,07
1093,966	59,15
1094,322	60,71
1094,679	58,12
1095,035	59,27
1095,391	59,57
1095,748	58,39
1096,104	59,99
1096,46	58,97
1096,816	59,82
1097,171	59,79
1097,527	60,17
1097,883	61,28
1098,239	60,55
1098,594	60,02
1098,95	61,7
1099,305	60,06
1099,66	59,77
1100,016	60,7
1100,371	58,34
1100,726	60,55
1101,081	59,79
1101,436	59,13
1101,791	60,08
1102,146	59,62
1102,5	59,74
1102,855	61,22
1103,21	61,49
1103,564	61,45
1103,918	59,77
1104,273	61,87
1104,627	59,43
1104,981	60,49
1105,335	62,36
1105,69	62,89
1106,043	60,15
1106,397	60,95
1106,751	62,26
1107,105	60,86
1107,459	62,06
1107,812	60,67
1108,166	60,97
1108,519	60,65
1108,873	61,06
1109,226	61,54
1109,579	64,54
1109,932	63,14
1110,285	60,47
1110,638	62,92
1110,991	62,51
1111,344	59,99
1111,697	62,92
1112,05	63,14
1112,402	61,98
1112,755	60,64
1113,107	63,59
1113,46	64,55
1113,812	63,77
1114,164	62,57
1114,517	64,03
1114,869	120,44
1115,221	118,44
1115,573	115,13
1115,924	108,6
