Data from H1__Relative__3__00145.txt Node

Date: Tue Jan 30 18:08:27 CET 2024
User: diatiterra
Spectrometer: HDX00911
Trigger mode: 0
Integration Time (sec): 6,000000E-3
Scans to average: 3
Nonlinearity correction enabled: true
Boxcar width: 0
Storing dark spectrum: false
XAxis mode: Wavelengths
Number of Pixels in Spectrum: 2068
>>>>>Begin Spectral Data<<<<<
194,468	137,76
195,025	109,8
195,581	113,65
196,138	104,46
196,694	99,53
197,251	82,46
197,807	81,52
198,363	78,41
198,919	71,97
199,474	79,07
200,03	70,02
200,586	72,92
201,141	74,89
201,696	70,93
202,251	74,54
202,806	74,33
203,361	78,22
203,916	69,67
204,471	78,35
205,025	74,28
205,58	76,77
206,134	76,58
206,688	74,69
207,242	75,23
207,796	77,64
208,35	75,74
208,904	76,43
209,457	75,7
210,011	77,22
210,564	72,46
211,117	73,77
211,67	83,12
212,223	79,26
212,776	77,31
213,329	82,41
213,881	79,66
214,434	73,49
214,986	79,66
215,538	74,79
216,09	71,39
216,642	78,18
217,194	73,86
217,746	80,96
218,297	72,1
218,849	83,48
219,4	76,96
219,951	76,24
220,502	81,44
221,053	72,04
221,604	73,32
222,155	82,34
222,705	75,68
223,256	74,94
223,806	76,2
224,356	77,61
224,906	76,64
225,456	71,22
226,006	72,11
226,556	70,88
227,106	79,49
227,655	74,42
228,204	74,63
228,754	78,87
229,303	74,19
229,852	83,27
230,401	76,25
230,949	77,68
231,498	75,46
232,047	68,84
232,595	79,66
233,143	75,21
233,691	69,97
234,239	76,32
234,787	75,05
235,335	75,46
235,883	78,54
236,43	73,5
236,978	78,86
237,525	78,64
238,072	72,8
238,619	80,66
239,166	72,27
239,713	74,63
240,26	74,52
240,806	70,6
241,353	69,87
241,899	73,23
242,445	78,85
242,991	72,89
243,537	76,74
244,083	72,41
244,629	71,71
245,174	73,42
245,72	70,36
246,265	73,74
246,81	78,59
247,355	75,59
247,9	77,57
248,445	78,73
248,99	75,66
249,534	78,58
250,079	81,5
250,623	70,73
251,168	75,82
251,712	69,84
252,256	68,17
252,8	75,04
253,343	78,32
253,887	73,91
254,43	83,35
254,974	73,46
255,517	77,19
256,06	73,48
256,603	80,6
257,146	76,04
257,689	74,84
258,232	71,65
258,774	73,82
259,317	71,82
259,859	69,98
260,401	79,65
260,943	75
261,485	75,77
262,027	73,34
262,569	77,39
263,11	66,53
263,652	78,54
264,193	70,36
264,734	75,27
265,275	74,17
265,816	78,29
266,357	75,62
266,898	76,19
267,438	73,1
267,979	80,29
268,519	76,44
269,059	70,9
269,6	74,67
270,14	80,19
270,68	72,26
271,219	77,69
271,759	75,44
272,298	71,49
272,838	78,22
273,377	69,23
273,916	71,42
274,455	69,58
274,994	79,48
275,533	67,11
276,072	73,48
276,61	75,68
277,149	70,49
277,687	78,82
278,225	75,21
278,763	78,43
279,301	73,83
279,839	75,46
280,377	78,31
280,914	71,4
281,452	72,84
281,989	78,66
282,526	73,52
283,064	77,86
283,601	70,84
284,137	75,34
284,674	78,48
285,211	77,84
285,747	77,74
286,284	80,15
286,82	72,89
287,356	78,92
287,892	77,74
288,428	72,69
288,964	74,9
289,5	77,93
290,035	71,76
290,571	75,11
291,106	80,45
291,641	73,31
292,176	74,84
292,711	75,6
293,246	76,81
293,781	72,94
294,315	68,56
294,85	79,05
295,384	87,35
295,918	70,46
296,453	75,06
296,987	76,66
297,52	76,61
298,054	79,17
298,588	78,66
299,121	76,48
299,655	73,39
300,188	75,77
300,721	72,69
301,254	76,38
301,787	72,67
302,32	81,67
302,853	77,94
303,385	72,22
303,918	70,83
304,45	75,16
304,982	74,33
305,514	80,68
306,046	74,74
306,578	70,69
307,11	69,76
307,641	83,05
308,173	76,9
308,704	80,62
309,236	78,67
309,767	77,88
310,298	69,63
310,829	76,69
311,359	79,05
311,89	74,61
312,421	71,43
312,951	77,1
313,481	78,46
314,012	73,48
314,542	76,16
315,072	72,29
315,601	70,21
316,131	75,13
316,661	72
317,19	77,05
317,72	73,8
318,249	74,84
318,778	76,94
319,307	72,42
319,836	78,09
320,365	75,48
320,893	76,93
321,422	75,65
321,95	70,28
322,479	73,57
323,007	70,51
323,535	72,37
324,063	69,88
324,591	81,37
325,118	76,81
325,646	72,87
326,173	76,08
326,701	74,52
327,228	73,34
327,755	81,67
328,282	74,36
328,809	71,71
329,336	74,22
329,862	70
330,389	77,2
330,915	79,17
331,441	78,44
331,968	65,88
332,494	71,31
333,02	69,68
333,545	69,33
334,071	76,23
334,597	71,81
335,122	71,12
335,648	71,03
336,173	73,33
336,698	72,07
337,223	69,87
337,748	70,22
338,272	70,82
338,797	73,63
339,322	76,26
339,846	70,84
340,37	72,21
340,894	70,94
341,419	70,77
341,942	65,61
342,466	66,46
342,99	70,02
343,514	68,7
344,037	68,38
344,56	70,68
345,084	65,53
345,607	67,06
346,13	70,55
346,653	64,42
347,175	66,14
347,698	66,96
348,221	67,8
348,743	63,16
349,265	66,46
349,787	64,32
350,309	64,97
350,831	71,86
351,353	61,61
351,875	59,3
352,397	59,55
352,918	62,76
353,439	64,84
353,961	58,74
354,482	60,02
355,003	58,61
355,524	54,8
356,044	58,25
356,565	61,84
357,086	60,66
357,606	59,79
358,126	62,34
358,646	55,83
359,167	57,77
359,687	59,64
360,206	54,11
360,726	60,48
361,246	55,34
361,765	54,49
362,285	55,02
362,804	56,41
363,323	55,85
363,842	56,85
364,361	59,54
364,88	54,7
365,398	53,57
365,917	57,38
366,435	54,13
366,954	55,99
367,472	51,81
367,99	56,95
368,508	51,85
369,026	52,08
369,544	54,41
370,061	53,99
370,579	50,4
371,096	51,4
371,613	53,73
372,131	52,94
372,648	49,99
373,165	47,55
373,681	50,04
374,198	50,86
374,715	46,87
375,231	51,39
375,747	50,33
376,264	48,01
376,78	49,47
377,296	47,7
377,812	47,8
378,327	48,79
378,843	46,5
379,359	45,2
379,874	47,76
380,389	45,3
380,905	45,44
381,42	42,8
381,935	44,92
382,449	43,98
382,964	40,96
383,479	41,74
383,993	42,01
384,508	40,1
385,022	39,52
385,536	40,77
386,05	41,08
386,564	39,34
387,078	39,28
387,592	37,85
388,105	40,61
388,619	36,81
389,132	36,91
389,645	36,83
390,158	36,56
390,671	37,02
391,184	34,84
391,697	36,01
392,21	35,93
392,722	35,14
393,235	34,71
393,747	33,81
394,259	33,9
394,771	35,67
395,283	31,78
395,795	34,68
396,307	33,21
396,818	32,75
397,33	30,56
397,841	29,92
398,353	31,02
398,864	28,82
399,375	28,82
399,886	28,09
400,397	28,53
400,907	27,99
401,418	27,09
401,928	27,54
402,439	26,68
402,949	25,65
403,459	24,8
403,969	24,92
404,479	23,86
404,989	24,15
405,498	22,72
406,008	22,22
406,517	22,06
407,027	20,98
407,536	20,64
408,045	19,24
408,554	19,7
409,063	17,94
409,572	18,06
410,08	17,68
410,589	17,55
411,097	16,58
411,606	16,91
412,114	15,35
412,622	15,18
413,13	14,26
413,638	14,85
414,145	13,76
414,653	13,44
415,16	13,33
415,668	12,96
416,175	12,92
416,682	11,89
417,189	12,53
417,696	11,8
418,203	11,78
418,71	11,79
419,216	11,81
419,723	11,27
420,229	11,05
420,735	10,86
421,242	10,96
421,748	10,38
422,254	10,38
422,759	10,46
423,265	10,49
423,771	10,3
424,276	9,85
424,781	9,79
425,287	9,87
425,792	9,94
426,297	9,58
426,802	9,46
427,306	9,59
427,811	9,73
428,316	9,63
428,82	9,3
429,324	9,61
429,829	9,42
430,333	8,67
430,837	9,03
431,34	8,54
431,844	8,76
432,348	9,19
432,851	8,55
433,355	9,16
433,858	8,76
434,361	8,58
434,864	8,65
435,367	8,4
435,87	8,63
436,373	8,29
436,876	8,41
437,378	8,65
437,88	8,3
438,383	8,18
438,885	8,3
439,387	8,44
439,889	8,12
440,391	8,35
440,892	8,39
441,394	8,14
441,896	8,33
442,397	8,13
442,898	8,19
443,399	8,24
443,9	8,2
444,401	8,63
444,902	8,39
445,403	8,4
445,903	8,55
446,404	8,3
446,904	8,02
447,405	8,32
447,905	8,21
448,405	8,74
448,905	8,53
449,404	8,69
449,904	8,37
450,404	8,51
450,903	8,61
451,403	8,36
451,902	8,33
452,401	8,39
452,9	8,56
453,399	8,45
453,898	8,58
454,396	8,81
454,895	8,58
455,393	8,81
455,892	8,84
456,39	8,69
456,888	8,63
457,386	8,5
457,884	8,74
458,382	8,58
458,879	8,6
459,377	8,69
459,874	8,81
460,372	8,78
460,869	8,75
461,366	9,05
461,863	8,72
462,36	8,62
462,857	8,62
463,353	8,61
463,85	8,72
464,346	8,26
464,843	8,61
465,339	8,78
465,835	8,58
466,331	8,65
466,827	8,63
467,323	8,4
467,818	8,55
468,314	8,73
468,809	8,43
469,305	8,45
469,8	8,48
470,295	8,55
470,79	8,6
471,285	8,48
471,78	8,63
472,274	8,74
472,769	8,61
473,263	8,49
473,758	8,5
474,252	8,36
474,746	8,43
475,24	8,32
475,734	8,69
476,228	8,55
476,721	8,56
477,215	8,82
477,708	8,73
478,202	8,59
478,695	8,65
479,188	8,59
479,681	8,6
480,174	8,67
480,667	8,76
481,159	8,86
481,652	8,87
482,144	8,75
482,637	8,83
483,129	8,72
483,621	8,54
484,113	8,9
484,605	8,66
485,097	8,96
485,588	8,91
486,08	8,89
486,571	8,92
487,063	8,88
487,554	8,94
488,045	8,99
488,536	8,92
489,027	8,82
489,518	8,94
490,008	9,11
490,499	9,13
490,989	9,06
491,48	8,92
491,97	9,27
492,46	9,21
492,95	9,17
493,44	9,23
493,93	9,42
494,419	9,43
494,909	9,4
495,398	9,32
495,888	9,55
496,377	9,71
496,866	9,66
497,355	9,58
497,844	9,78
498,333	9,77
498,821	9,73
499,31	9,97
499,798	10,04
500,287	10,02
500,775	10,19
501,263	10,58
501,751	10,42
502,239	10,53
502,727	10,64
503,215	10,74
503,702	11,04
504,19	10,82
504,677	10,99
505,164	11
505,651	11,56
506,139	11,33
506,625	11,58
507,112	11,81
507,599	12,15
508,086	12,12
508,572	12,38
509,058	12,51
509,545	12,57
510,031	12,63
510,517	12,65
511,003	13,23
511,489	13,48
511,974	13,85
512,46	13,81
512,946	14,13
513,431	14,44
513,916	14,34
514,401	14,78
514,887	15,08
515,371	15,16
515,856	15,46
516,341	15,99
516,826	15,93
517,31	16,33
517,795	16,52
518,279	16,87
518,763	17,08
519,247	17,49
519,731	17,48
520,215	17,94
520,699	18,34
521,182	18,41
521,666	19,02
522,149	19,31
522,633	19,59
523,116	19,44
523,599	20,29
524,082	20,54
524,565	20,64
525,048	21,07
525,53	21,51
526,013	21,24
526,495	21,64
526,978	22,05
527,46	22,14
527,942	22,51
528,424	22,79
528,906	22,79
529,388	22,75
529,87	23,09
530,351	23,48
530,833	23,66
531,314	23,82
531,795	23,75
532,277	23,94
532,758	24,2
533,238	24,22
533,719	24,32
534,2	24,44
534,681	24,65
535,161	24,69
535,642	24,72
536,122	24,96
536,602	24,79
537,082	25,13
537,562	25,22
538,042	25,31
538,522	25,13
539,001	25,33
539,481	25,47
539,96	25,54
540,44	25,54
540,919	25,48
541,398	25,54
541,877	25,71
542,356	25,54
542,835	25,69
543,313	25,65
543,792	25,73
544,27	25,94
544,749	25,97
545,227	26,19
545,705	26,03
546,183	26,18
546,661	26,09
547,139	25,89
547,616	25,94
548,094	25,93
548,571	26,07
549,049	26,08
549,526	26,09
550,003	26,38
550,48	26,41
550,957	26,69
551,434	26,38
551,911	26,44
552,387	26,44
552,864	26,27
553,34	26,35
553,817	26,44
554,293	26,51
554,769	26,51
555,245	26,19
555,721	26,43
556,197	26,37
556,672	26,32
557,148	26,44
557,623	26,43
558,099	26,35
558,574	26,12
559,049	26,12
559,524	25,95
559,999	26,2
560,474	25,99
560,948	25,92
561,423	25,75
561,897	25,58
562,372	25,47
562,846	25,62
563,32	25,59
563,794	25,38
564,268	25,46
564,742	25,26
565,216	25,06
565,69	25,1
566,163	24,83
566,636	24,8
567,11	24,78
567,583	24,45
568,056	24,46
568,529	24,27
569,002	23,76
569,475	23,91
569,947	23,54
570,42	23,51
570,892	23,35
571,365	23,38
571,837	23,14
572,309	22,82
572,781	22,74
573,253	22,53
573,725	22,26
574,197	22,08
574,668	22,15
575,14	21,85
575,611	21,84
576,082	21,55
576,554	21,32
577,025	21,44
577,496	21,03
577,967	21,01
578,437	20,87
578,908	20,66
579,379	20,76
579,849	20,62
580,319	20,49
580,79	20,25
581,26	19,86
581,73	19,87
582,2	20,17
582,669	19,77
583,139	19,71
583,609	19,45
584,078	19,55
584,548	19,39
585,017	19,49
585,486	19,3
585,955	19,13
586,424	18,94
586,893	19,04
587,362	18,8
587,83	18,73
588,299	18,51
588,767	18,69
589,236	18,47
589,704	18,49
590,172	18,54
590,64	18,33
591,108	18,35
591,576	18,23
592,043	18,26
592,511	18,13
592,978	18,09
593,446	18,09
593,913	18,06
594,38	17,87
594,847	17,68
595,314	17,55
595,781	17,77
596,248	17,78
596,715	17,58
597,181	17,87
597,647	17,62
598,114	17,63
598,58	17,6
599,046	17,6
599,512	17,44
599,978	17,53
600,444	17,45
600,91	17,36
601,375	17,41
601,841	17,09
602,306	17,23
602,771	17,39
603,236	17,1
603,702	17,17
604,167	17,07
604,631	17
605,096	16,95
605,561	17,03
606,025	16,94
606,49	16,62
606,954	16,65
607,418	16,61
607,882	16,52
608,347	16,56
608,81	16,44
609,274	16,27
609,738	16,28
610,202	16,24
610,665	15,96
611,128	16,08
611,592	15,87
612,055	15,88
612,518	15,63
612,981	15,63
613,444	15,56
613,907	15,4
614,369	15,4
614,832	15,38
615,294	15,21
615,757	15,12
616,219	15,18
616,681	15,05
617,143	14,92
617,605	14,71
618,067	14,78
618,529	14,63
618,99	14,65
619,452	14,49
619,913	14,52
620,375	14,29
620,836	14,27
621,297	14,27
621,758	14,19
622,219	14,15
622,68	14,14
623,14	14,26
623,601	14,1
624,061	14,16
624,522	14,09
624,982	13,98
625,442	14,06
625,902	13,85
626,362	13,69
626,822	13,96
627,282	13,91
627,742	13,8
628,201	13,79
628,661	13,81
629,12	13,89
629,579	13,79
630,038	13,75
630,497	13,69
630,956	13,75
631,415	13,69
631,874	13,63
632,332	13,72
632,791	13,66
633,249	13,56
633,708	13,53
634,166	13,49
634,624	13,31
635,082	13,19
635,54	13,23
635,998	13,26
636,455	13,08
636,913	13,11
637,37	13
637,828	12,89
638,285	12,89
638,742	12,77
639,199	12,52
639,656	12,56
640,113	12,37
640,57	12,34
641,027	12,16
641,483	12,12
641,94	11,97
642,396	11,92
642,852	11,77
643,309	11,62
643,765	11,57
644,221	11,49
644,676	11,49
645,132	11,32
645,588	11,22
646,043	11,13
646,499	11
646,954	10,9
647,409	10,84
647,864	10,76
648,319	10,56
648,774	10,48
649,229	10,42
649,684	10,48
650,139	10,36
650,593	10,34
651,047	10,28
651,502	10,11
651,956	10,15
652,41	10,06
652,864	10,05
653,318	10
653,772	10,02
654,225	9,94
654,679	9,77
655,133	9,82
655,586	9,73
656,039	9,72
656,492	9,67
656,946	9,72
657,399	9,55
657,851	9,5
658,304	9,38
658,757	9,51
659,209	9,24
659,662	9,17
660,114	9,2
660,567	9,08
661,019	9,05
661,471	8,94
661,923	8,86
662,375	8,83
662,826	8,74
663,278	8,66
663,73	8,61
664,181	8,58
664,632	8,47
665,084	8,5
665,535	8,45
665,986	8,36
666,437	8,24
666,888	8,34
667,338	8,38
667,789	8,37
668,24	8,31
668,69	8,21
669,14	8,32
669,591	8,25
670,041	8,3
670,491	8,23
670,941	8,29
671,391	8,35
671,84	8,26
672,29	8,29
672,74	8,34
673,189	8,38
673,638	8,43
674,088	8,49
674,537	8,46
674,986	8,65
675,435	8,61
675,883	8,7
676,332	8,75
676,781	8,86
677,229	8,89
677,678	8,98
678,126	8,99
678,574	9,24
679,022	9,13
679,47	9,29
679,918	9,36
680,366	9,38
680,814	9,52
681,261	9,55
681,709	9,71
682,156	9,88
682,604	9,89
683,051	10
683,498	10,08
683,945	10,36
684,392	10,4
684,839	10,4
685,286	10,55
685,732	10,73
686,179	10,84
686,625	10,93
687,071	11,11
687,518	11,27
687,964	11,46
688,41	11,78
688,856	12,07
689,301	12,25
689,747	12,51
690,193	12,76
690,638	12,99
691,084	13,36
691,529	13,66
691,974	14,14
692,419	14,46
692,864	14,81
693,309	15,33
693,754	15,71
694,199	16,09
694,643	16,7
695,088	17,16
695,532	17,65
695,977	18,05
696,421	18,59
696,865	19,04
697,309	19,77
697,753	20,09
698,197	20,58
698,64	21,24
699,084	21,76
699,527	22,21
699,971	22,78
700,414	23,16
700,857	23,77
701,3	24,21
701,743	24,87
702,186	25,24
702,629	25,72
703,072	26,12
703,515	26,6
703,957	26,98
704,399	27,57
704,842	27,98
705,284	28,47
705,726	28,83
706,168	29,38
706,61	29,82
707,052	30,17
707,494	30,6
707,935	30,95
708,377	31,47
708,818	31,59
709,26	32,21
709,701	32,58
710,142	32,83
710,583	33,32
711,024	33,77
711,465	34,08
711,905	34,31
712,346	34,6
712,787	34,86
713,227	35,41
713,667	35,9
714,108	36,11
714,548	36,37
714,988	36,63
715,428	37,2
715,868	37,38
716,307	37,42
716,747	38,05
717,186	38,35
717,626	38,51
718,065	38,92
718,504	38,78
718,944	39,49
719,383	39,62
719,822	40,03
720,261	40,01
720,699	40,36
721,138	40,61
721,576	40,82
722,015	41,12
722,453	41,34
722,892	41,61
723,33	41,83
723,768	41,88
724,206	42,54
724,644	42,41
725,081	42,63
725,519	42,86
725,957	42,98
726,394	43,18
726,832	43,34
727,269	43,61
727,706	43,61
728,143	43,83
728,58	44,09
729,017	44,03
729,454	44,38
729,89	44,49
730,327	44,48
730,764	44,62
731,2	44,73
731,636	45,01
732,072	45,13
732,509	45,14
732,945	45,27
733,38	45,44
733,816	45,23
734,252	45,6
734,688	45,31
735,123	45,41
735,559	45,76
735,994	45,85
736,429	45,75
736,864	45,83
737,299	45,69
737,734	45,94
738,169	45,72
738,604	46,07
739,038	46,23
739,473	46,02
739,907	46,29
740,342	46,27
740,776	45,9
741,21	46,23
741,644	46,21
742,078	46,5
742,512	46,51
742,946	46,56
743,379	46,24
743,813	46,06
744,246	46,31
744,68	46,4
745,113	46,35
745,546	46,36
745,979	46,16
746,412	46,21
746,845	46,38
747,278	46,43
747,711	46,44
748,143	46,56
748,576	46,29
749,008	46,42
749,441	46,49
749,873	46,35
750,305	46,32
750,737	46,18
751,169	46,12
751,601	46,24
752,032	46,05
752,464	46,25
752,896	46,09
753,327	46,25
753,758	46,09
754,19	46,13
754,621	46,18
755,052	46,25
755,483	45,98
755,914	46,09
756,344	46,04
756,775	45,94
757,206	46,09
757,636	46
758,066	45,81
758,497	46,09
758,927	45,95
759,357	45,84
759,787	46,14
760,217	45,79
760,647	45,78
761,076	45,91
761,506	45,81
761,935	45,66
762,365	45,65
762,794	45,78
763,223	45,62
763,653	45,73
764,082	45,77
764,51	45,71
764,939	45,44
765,368	45,72
765,797	45,7
766,225	45,63
766,654	45,57
767,082	45,43
767,51	45,56
767,938	45,57
768,367	45,34
768,795	45,47
769,222	45,4
769,65	45,55
770,078	45,58
770,505	45,12
770,933	45,36
771,36	45,09
771,788	45,23
772,215	45,39
772,642	45,34
773,069	45,36
773,496	45,01
773,923	45,1
774,349	44,98
774,776	45,15
775,203	45,22
775,629	45,19
776,055	45,21
776,482	45,21
776,908	45,12
777,334	44,91
777,76	44,95
778,186	45,13
778,611	44,94
779,037	45,22
779,463	45,07
779,888	44,95
780,314	45,17
780,739	45,07
781,164	44,96
781,589	44,88
782,014	44,94
782,439	44,89
782,864	44,78
783,289	45,14
783,713	44,86
784,138	44,77
784,562	44,95
784,987	44,77
785,411	44,84
785,835	44,89
786,259	44,71
786,683	44,89
787,107	44,9
787,531	44,86
787,954	44,7
788,378	44,84
788,802	44,86
789,225	44,58
789,648	44,79
790,071	44,76
790,495	44,74
790,918	44,79
791,34	44,72
791,763	44,79
792,186	44,86
792,609	44,87
793,031	44,71
793,454	44,73
793,876	44,79
794,298	44,79
794,721	44,77
795,143	44,65
795,565	44,66
795,986	44,62
796,408	44,46
796,83	44,57
797,252	44,85
797,673	44,49
798,094	44,5
798,516	44,73
798,937	44,86
799,358	44,85
799,779	44,48
800,2	44,49
800,621	44,6
801,042	44,6
801,462	44,53
801,883	44,39
802,303	44,77
802,724	44,41
803,144	44,67
803,564	44,42
803,984	44,68
804,404	44,79
804,824	44,83
805,244	44,8
805,664	44,66
806,084	44,56
806,503	44,6
806,923	44,36
807,342	44,51
807,761	44,25
808,18	44,68
808,599	44,61
809,018	44,37
809,437	44,46
809,856	44,3
810,275	44,45
810,693	44,53
811,112	44,4
811,53	44,52
811,949	44,53
812,367	44,5
812,785	44,63
813,203	44,54
813,621	44,73
814,039	44,55
814,457	44,36
814,874	44,54
815,292	44,46
815,709	44,51
816,127	44,47
816,544	44,65
816,961	44,59
817,378	44,59
817,795	44,52
818,212	44,35
818,629	44,66
819,046	44,54
819,462	44,57
819,879	44,46
820,295	44,48
820,712	44,33
821,128	44,61
821,544	44,28
821,96	44,46
822,376	44,24
822,792	44,38
823,208	44,53
823,624	44,53
824,039	44,37
824,455	44,39
824,87	44,44
825,286	44,09
825,701	44,68
826,116	44,13
826,531	44,37
826,946	44,57
827,361	44,36
827,776	44,37
828,19	44,24
828,605	44,24
829,02	44,43
829,434	44,07
829,848	44,57
830,263	44,28
830,677	44,35
831,091	44,34
831,505	44,35
831,919	44,21
832,332	44,06
832,746	44,15
833,16	44,15
833,573	44,25
833,987	44,43
834,4	44,17
834,813	44,04
835,226	44,32
835,639	44,14
836,052	44,26
836,465	44,46
836,878	44,34
837,29	44,29
837,703	44,19
838,116	44,33
838,528	44,14
838,94	44,15
839,352	44,26
839,765	44,36
840,177	44,27
840,589	44,12
841	44,07
841,412	44,1
841,824	43,92
842,235	43,96
842,647	44,11
843,058	44,19
843,47	44,32
843,881	44,12
844,292	44,09
844,703	44,27
845,114	44,16
845,525	44,27
845,935	44,34
846,346	44,04
846,757	44,01
847,167	44,15
847,577	44,3
847,988	43,92
848,398	43,94
848,808	43,86
849,218	44,03
849,628	44,22
850,038	44,15
850,448	44,02
850,857	44,26
851,267	44,06
851,676	44,2
852,086	44,24
852,495	43,9
852,904	43,88
853,313	44,11
853,722	44,19
854,131	44,03
854,54	44,07
854,949	43,86
855,357	43,74
855,766	43,92
856,174	43,93
856,583	43,79
856,991	43,91
857,399	44
857,807	44,18
858,215	43,72
858,623	44,25
859,031	44,12
859,439	44,09
859,846	44,25
860,254	44,09
860,661	44,15
861,069	43,96
861,476	44,09
861,883	43,83
862,29	44,15
862,697	43,94
863,104	43,65
863,511	43,91
863,918	43,72
864,325	43,79
864,731	43,84
865,138	43,9
865,544	43,99
865,95	44
866,357	43,89
866,763	44,01
867,169	44,05
867,575	44,11
867,98	44,05
868,386	44,13
868,792	43,87
869,197	43,97
869,603	43,58
870,008	43,75
870,414	43,82
870,819	43,79
871,224	43,85
871,629	43,72
872,034	43,88
872,439	43,9
872,844	43,68
873,248	43,93
873,653	43,85
874,057	43,99
874,462	43,97
874,866	43,77
875,27	44,01
875,674	44,01
876,078	43,95
876,482	43,95
876,886	43,59
877,29	43,61
877,694	43,64
878,097	43,58
878,501	43,76
878,904	43,89
879,308	43,7
879,711	43,69
880,114	44,05
880,517	43,83
880,92	43,89
881,323	43,93
881,726	43,83
882,128	43,98
882,531	43,84
882,934	43,96
883,336	43,82
883,738	44,16
884,141	43,79
884,543	43,84
884,945	43,82
885,347	43,67
885,749	43,84
886,151	43,76
886,552	43,77
886,954	43,73
887,355	43,68
887,757	43,68
888,158	43,82
888,56	44,15
888,961	43,67
889,362	43,85
889,763	43,72
890,164	43,79
890,565	43,84
890,965	43,81
891,366	44,17
891,767	43,79
892,167	44,11
892,567	43,69
892,968	43,97
893,368	43,65
893,768	43,62
894,168	43,79
894,568	43,71
894,968	43,81
895,368	43,56
895,767	43,64
896,167	43,73
896,566	43,9
896,966	43,64
897,365	43,88
897,764	43,66
898,164	43,77
898,563	44,06
898,962	43,83
899,361	44,02
899,759	43,73
900,158	43,54
900,557	43,77
900,955	44,01
901,354	43,41
901,752	43,75
902,15	43,7
902,548	43,62
902,947	43,49
903,345	43,87
903,742	43,68
904,14	43,65
904,538	43,54
904,936	43,7
905,333	43,59
905,731	43,48
906,128	43,62
906,525	43,87
906,923	43,66
907,32	43,92
907,717	43,64
908,114	43,57
908,511	43,41
908,907	43,45
909,304	43,61
909,701	43,67
910,097	43,6
910,494	43,73
910,89	43,72
911,286	43,57
911,682	43,9
912,078	43,94
912,474	43,97
912,87	43,74
913,266	43,91
913,662	43,65
914,058	43,84
914,453	43,87
914,849	43,64
915,244	44
915,639	43,63
916,034	43,85
916,43	43,69
916,825	43,8
917,22	43,63
917,614	43,54
918,009	43,27
918,404	43,47
918,798	43,57
919,193	43,46
919,587	43,47
919,982	43,53
920,376	43,67
920,77	43,46
921,164	43,82
921,558	43,92
921,952	43,56
922,346	43,73
922,74	43,58
923,133	43,44
923,527	43,59
923,92	43,65
924,314	43,61
924,707	43,57
925,1	43,19
925,493	43,67
925,886	43,61
926,279	43,39
926,672	43,42
927,065	43,47
927,457	43,41
927,85	43,17
928,243	43,47
928,635	43,25
929,027	43,44
929,42	43,5
929,812	43,42
930,204	43,27
930,596	43,26
930,988	43,55
931,379	43,56
931,771	43,42
932,163	43,44
932,554	43,14
932,946	43,17
933,337	43,32
933,729	43,08
934,12	43,21
934,511	43,37
934,902	42,94
935,293	43,31
935,684	43,1
936,075	43,27
936,465	43,13
936,856	43,12
937,246	43,2
937,637	43,09
938,027	43,28
938,417	42,97
938,808	43,4
939,198	42,72
939,588	43,18
939,978	43,27
940,368	43,33
940,757	42,82
941,147	43,5
941,537	43,49
941,926	42,78
942,315	42,85
942,705	42,8
943,094	43,03
943,483	42,81
943,872	42,77
944,261	42,57
944,65	42,68
945,039	42,67
945,428	42,63
945,816	43,14
946,205	42,53
946,593	43,02
946,982	42,73
947,37	43,17
947,758	43,22
948,146	42,55
948,534	42,57
948,922	42,27
949,31	42,2
949,698	42,03
950,086	42,13
950,473	42,69
950,861	42,63
951,248	42,17
951,636	42,61
952,023	42,37
952,41	42,26
952,797	42,13
953,184	42,24
953,571	41,95
953,958	41,86
954,345	41,99
954,731	42,36
955,118	42,17
955,505	42,01
955,891	42,17
956,277	42,1
956,664	41,85
957,05	41,77
957,436	42,02
957,822	42
958,208	41,59
958,594	41,73
958,979	41,36
959,365	41,51
959,751	41,59
960,136	41,65
960,522	41,6
960,907	41,66
961,292	41,61
961,677	41,44
962,062	41,77
962,447	41,53
962,832	41,89
963,217	41,35
963,602	41,82
963,986	41,64
964,371	41,51
964,756	41,49
965,14	41,71
965,524	41,35
965,908	41,3
966,293	41,16
966,677	41,36
967,061	41,56
967,445	41,5
967,828	41,86
968,212	41,71
968,596	41,64
968,979	41,54
969,363	41,54
969,746	41,67
970,129	41,59
970,513	41,49
970,896	41,27
971,279	41,4
971,662	41,94
972,045	41,35
972,428	41,32
972,81	41,29
973,193	41,63
973,575	41,62
973,958	41,25
974,34	41,36
974,723	41,34
975,105	41,65
975,487	41,63
975,869	41,81
976,251	41,85
976,633	41,68
977,015	41,75
977,396	41,55
977,778	41,52
978,16	41,57
978,541	41,87
978,922	41,57
979,304	41,79
979,685	41,51
980,066	42,02
980,447	41,42
980,828	41,63
981,209	41,58
981,59	41,35
981,97	41,49
982,351	42,27
982,732	41,71
983,112	41,67
983,493	41,39
983,873	41,73
984,253	41,85
984,633	41,44
985,013	41,52
985,393	41,8
985,773	41,47
986,153	41,7
986,533	41,79
986,912	41,92
987,292	41,45
987,671	41,99
988,051	42,04
988,43	41,65
988,809	41,91
989,188	41,87
989,567	41,73
989,946	42,23
990,325	41,43
990,704	41,83
991,083	41,9
991,461	42,13
991,84	42,19
992,218	41,74
992,597	41,98
992,975	41,91
993,353	42,24
993,732	41,61
994,11	41,75
994,488	42,06
994,866	41,69
995,243	42,29
995,621	42,32
995,999	41,8
996,376	41,96
996,754	41,94
997,131	41,61
997,509	41,77
997,886	42,14
998,263	41,93
998,64	41,91
999,017	42,13
999,394	42,13
999,771	42,22
1000,148	41,82
1000,524	41,89
1000,901	42,19
1001,277	42,74
1001,654	42,3
1002,03	42,63
1002,406	42,31
1002,783	42,23
1003,159	42,12
1003,535	42,45
1003,911	42,19
1004,286	42,17
1004,662	42,56
1005,038	42,1
1005,414	42,04
1005,789	42,48
1006,164	42,04
1006,54	42,7
1006,915	42,3
1007,29	42,66
1007,665	42,13
1008,04	42,54
1008,415	42,47
1008,79	42,7
1009,165	42,33
1009,54	42,52
1009,914	42,92
1010,289	42,66
1010,663	42,8
1011,038	43,21
1011,412	42,71
1011,786	42,99
1012,16	42,68
1012,535	42,78
1012,909	42,9
1013,282	42,44
1013,656	42,66
1014,03	42,54
1014,404	42,75
1014,777	42,33
1015,151	42,76
1015,524	43,04
1015,897	42,58
1016,271	43,24
1016,644	42,71
1017,017	42,96
1017,39	43,28
1017,763	42,57
1018,136	42,7
1018,508	43,07
1018,881	42,97
1019,254	43,21
1019,626	43,23
1019,999	42,58
1020,371	42,32
1020,743	43,29
1021,116	43,09
1021,488	43,23
1021,86	43,3
1022,232	43,12
1022,604	43
1022,975	43,36
1023,347	43,25
1023,719	43,18
1024,09	43,31
1024,462	44,06
1024,833	43,29
1025,204	43,42
1025,576	43,74
1025,947	43,41
1026,318	44,06
1026,689	43,77
1027,06	43,94
1027,431	43,77
1027,801	43,9
1028,172	43,69
1028,543	43,24
1028,913	43,54
1029,284	43,59
1029,654	43,74
1030,024	43,88
1030,394	43,07
1030,764	43,8
1031,135	43,71
1031,504	43,49
1031,874	43,64
1032,244	43,47
1032,614	44,48
1032,983	44,1
1033,353	43,6
1033,722	43,45
1034,092	44,01
1034,461	43,9
1034,83	43,65
1035,2	43,88
1035,569	43,69
1035,938	43,79
1036,307	44,78
1036,675	44,51
1037,044	43,92
1037,413	44,24
1037,781	44,48
1038,15	44,26
1038,518	44,31
1038,887	44,75
1039,255	44,83
1039,623	44,19
1039,991	44,27
1040,359	44,41
1040,727	44,03
1041,095	44,25
1041,463	44,54
1041,831	43,79
1042,198	44,25
1042,566	44,06
1042,933	44,68
1043,301	44,58
1043,668	44,43
1044,035	44,18
1044,402	44,77
1044,77	44,68
1045,137	44,73
1045,503	44,34
1045,87	43,77
1046,237	44,78
1046,604	45,29
1046,97	45,32
1047,337	44,94
1047,703	44,93
1048,07	44,11
1048,436	45,44
1048,802	44,96
1049,168	44,83
1049,534	45,63
1049,9	45,47
1050,266	45,38
1050,632	44,92
1050,998	45,36
1051,364	44,6
1051,729	45,04
1052,095	45,6
1052,46	45,52
1052,825	45,25
1053,191	44,8
1053,556	44,79
1053,921	44,74
1054,286	45,55
1054,651	44,91
1055,016	44,89
1055,381	45,39
1055,745	45,24
1056,11	45,7
1056,475	45,06
1056,839	45,13
1057,203	45,01
1057,568	45,45
1057,932	45,15
1058,296	45,64
1058,66	46,22
1059,024	45,93
1059,388	46,59
1059,752	45,61
1060,116	45,83
1060,48	46,72
1060,843	46,03
1061,207	46,3
1061,57	46,26
1061,934	46,15
1062,297	46
1062,66	46,52
1063,023	46,38
1063,386	46,45
1063,749	46,19
1064,112	46,52
1064,475	47,03
1064,838	45,45
1065,201	46,53
1065,563	45,5
1065,926	46,14
1066,288	45,81
1066,651	46,39
1067,013	46,12
1067,375	46,83
1067,737	45,72
1068,099	45,73
1068,461	45,78
1068,823	45,71
1069,185	46,75
1069,547	46,26
1069,909	45,82
1070,27	47,04
1070,632	45,65
1070,993	46,9
1071,355	46,68
1071,716	46
1072,077	46,43
1072,438	46,68
1072,799	47,38
1073,16	46,65
1073,521	47
1073,882	47,07
1074,243	46,02
1074,603	47,42
1074,964	45,89
1075,325	47,08
1075,685	47,26
1076,045	47,07
1076,406	46,55
1076,766	46,13
1077,126	46,5
1077,486	46,82
1077,846	47,32
1078,206	45,78
1078,566	46,38
1078,925	46,74
1079,285	46,82
1079,645	47,31
1080,004	47,88
1080,364	47,18
1080,723	47,34
1081,082	45,81
1081,442	47,65
1081,801	46,82
1082,16	48,53
1082,519	47,12
1082,878	46,74
1083,237	46,72
1083,595	47,81
1083,954	47,44
1084,313	46,52
1084,671	47,53
1085,03	47,56
1085,388	49,12
1085,746	47,27
1086,104	47,28
1086,463	46,5
1086,821	47,62
1087,179	47,26
1087,537	47,55
1087,894	46,84
1088,252	47,83
1088,61	48,98
1088,967	47,06
1089,325	48,04
1089,682	47,63
1090,04	46,53
1090,397	46,93
1090,754	48,84
1091,111	48,7
1091,469	47,06
1091,826	48,57
1092,182	48,91
1092,539	48,99
1092,896	46,07
1093,253	48,11
1093,609	46,06
1093,966	47,37
1094,322	48,06
1094,679	47,49
1095,035	48,53
1095,391	48,21
1095,748	49,05
1096,104	47,09
1096,46	47,89
1096,816	48,9
1097,171	48,15
1097,527	49,7
1097,883	48,12
1098,239	50,4
1098,594	48,9
1098,95	50,06
1099,305	47,76
1099,66	50,82
1100,016	48,88
1100,371	49,01
1100,726	48,71
1101,081	48,87
1101,436	49,16
1101,791	51,02
1102,146	49,61
1102,5	47,34
1102,855	48,69
1103,21	51,91
1103,564	50,8
1103,918	50,33
1104,273	49,68
1104,627	49,3
1104,981	51,96
1105,335	49,88
1105,69	49,41
1106,043	49,41
1106,397	50,76
1106,751	49,47
1107,105	48,83
1107,459	49,57
1107,812	50,67
1108,166	50,91
1108,519	50,34
1108,873	50,37
1109,226	50,75
1109,579	54,07
1109,932	50,42
1110,285	50,36
1110,638	51,46
1110,991	51,81
1111,344	51,77
1111,697	49,37
1112,05	50,27
1112,402	51,16
1112,755	51,31
1113,107	52,34
1113,46	50,77
1113,812	54,15
1114,164	52,6
1114,517	53,51
1114,869	116,63
1115,221	111,5
1115,573	103,15
1115,924	99,93
