Data from I2__Relative__4__00156.txt Node

Date: Tue Jan 30 18:09:56 CET 2024
User: diatiterra
Spectrometer: HDX00911
Trigger mode: 0
Integration Time (sec): 6,000000E-3
Scans to average: 3
Nonlinearity correction enabled: true
Boxcar width: 0
Storing dark spectrum: false
XAxis mode: Wavelengths
Number of Pixels in Spectrum: 2068
>>>>>Begin Spectral Data<<<<<
194,468	153,81
195,025	114,16
195,581	105,85
196,138	108,09
196,694	94,42
197,251	80,08
197,807	82,57
198,363	83,02
198,919	83,71
199,474	87,04
200,03	85,12
200,586	78,99
201,141	76,31
201,696	72,8
202,251	79,02
202,806	78,2
203,361	79,92
203,916	75,89
204,471	80,62
205,025	75,5
205,58	78,58
206,134	81,02
206,688	77,7
207,242	74,64
207,796	79,26
208,35	73,34
208,904	78,21
209,457	78,92
210,011	74,89
210,564	74,05
211,117	79,3
211,67	79,18
212,223	82,92
212,776	76,89
213,329	82,84
213,881	75,05
214,434	72,7
214,986	85,87
215,538	77,64
216,09	74,84
216,642	84,56
217,194	79,41
217,746	75,73
218,297	74,89
218,849	84,77
219,4	81,19
219,951	79,75
220,502	77,73
221,053	71,21
221,604	71,95
222,155	76,59
222,705	79,83
223,256	75,75
223,806	76,2
224,356	74,27
224,906	81,53
225,456	73,79
226,006	73,87
226,556	71,08
227,106	83,12
227,655	73,59
228,204	79,24
228,754	75,73
229,303	71,57
229,852	74,57
230,401	81,26
230,949	79,34
231,498	72,59
232,047	73,35
232,595	82,88
233,143	79,45
233,691	76,53
234,239	72,97
234,787	78,32
235,335	76,71
235,883	79,43
236,43	75,77
236,978	73,98
237,525	78,02
238,072	73,84
238,619	80,22
239,166	76,62
239,713	70,78
240,26	76,45
240,806	77,75
241,353	69,27
241,899	76,36
242,445	82,45
242,991	78,43
243,537	79,07
244,083	75,65
244,629	77,98
245,174	78,48
245,72	75,9
246,265	85,6
246,81	81,91
247,355	76,67
247,9	78,41
248,445	78,27
248,99	76,53
249,534	78,13
250,079	80,62
250,623	70,53
251,168	76,65
251,712	70,06
252,256	68,99
252,8	76,68
253,343	77,47
253,887	75,88
254,43	82,66
254,974	75,45
255,517	80,1
256,06	82,32
256,603	84,44
257,146	80,83
257,689	81,7
258,232	80,09
258,774	81,33
259,317	83,09
259,859	80,76
260,401	81,44
260,943	80,94
261,485	79,3
262,027	80,68
262,569	79,02
263,11	76,18
263,652	85,7
264,193	75,89
264,734	79,53
265,275	79,69
265,816	80,32
266,357	71,04
266,898	80,96
267,438	77,58
267,979	82,1
268,519	79,75
269,059	82,06
269,6	81,56
270,14	85,89
270,68	76,71
271,219	83,39
271,759	86,19
272,298	78,61
272,838	79,52
273,377	75,43
273,916	78,36
274,455	73,54
274,994	83,46
275,533	83,34
276,072	83,35
276,61	74,56
277,149	76,64
277,687	78,61
278,225	73,54
278,763	80,91
279,301	77,04
279,839	80,23
280,377	80,48
280,914	80,72
281,452	84,72
281,989	82,65
282,526	71,28
283,064	76,57
283,601	80,13
284,137	82,45
284,674	77,43
285,211	81,91
285,747	81,81
286,284	76,73
286,82	77,11
287,356	81,84
287,892	85,8
288,428	75,33
288,964	77,59
289,5	83,56
290,035	81,63
290,571	76,6
291,106	88,81
291,641	80,1
292,176	80,46
292,711	75,38
293,246	77,24
293,781	79,87
294,315	79,32
294,85	85,28
295,384	82,18
295,918	75,52
296,453	69,81
296,987	76,45
297,52	79,48
298,054	73,25
298,588	81
299,121	79,88
299,655	79,62
300,188	74,89
300,721	79,3
301,254	82,94
301,787	77,54
302,32	86,14
302,853	72,37
303,385	80,23
303,918	83,03
304,45	69,54
304,982	81,38
305,514	77,76
306,046	76,84
306,578	80,18
307,11	76,38
307,641	80,11
308,173	80,44
308,704	80,62
309,236	74,96
309,767	74,9
310,298	75,7
310,829	81,85
311,359	77,18
311,89	75,74
312,421	76,47
312,951	75,99
313,481	85,11
314,012	78,53
314,542	74,62
315,072	76,34
315,601	73,4
316,131	80,96
316,661	77,03
317,19	77,77
317,72	76,51
318,249	70,58
318,778	75,22
319,307	74,67
319,836	72,72
320,365	77,82
320,893	80,66
321,422	73,91
321,95	78,56
322,479	82,68
323,007	70,51
323,535	68,52
324,063	75,9
324,591	78,42
325,118	74,49
325,646	73,52
326,173	72,24
326,701	81,71
327,228	72,89
327,755	81,67
328,282	73,93
328,809	73,25
329,336	78,74
329,862	77,61
330,389	74,44
330,915	74,95
331,441	78,23
331,968	72,92
332,494	69,89
333,02	74,63
333,545	74,73
334,071	75,56
334,597	72,44
335,122	82,5
335,648	73,95
336,173	74,79
336,698	74,73
337,223	69,46
337,748	71,39
338,272	67,22
338,797	69,81
339,322	74,09
339,846	74,95
340,37	76,47
340,894	78,21
341,419	71,19
341,942	68,54
342,466	63,55
342,99	66,13
343,514	72,39
344,037	68,57
344,56	70,29
345,084	63,26
345,607	73,32
346,13	65,53
346,653	65,34
347,175	67,85
347,698	73,98
348,221	63,37
348,743	65,28
349,265	66,64
349,787	63,61
350,309	67,83
350,831	68,26
351,353	59,46
351,875	63,3
352,397	60,33
352,918	60,72
353,439	63,81
353,961	65,21
354,482	62,04
355,003	62,04
355,524	60,42
356,044	60,22
356,565	59,73
357,086	62,51
357,606	60,27
358,126	61,27
358,646	59,95
359,167	60,12
359,687	57,11
360,206	57,8
360,726	61,96
361,246	60,07
361,765	58,76
362,285	56,61
362,804	58,43
363,323	60,54
363,842	58,84
364,361	60,35
364,88	61,62
365,398	54,6
365,917	55,6
366,435	55,46
366,954	58
367,472	53,55
367,99	59,51
368,508	52,96
369,026	50,73
369,544	56,62
370,061	53,41
370,579	49,94
371,096	52,99
371,613	57,63
372,131	56,87
372,648	53,07
373,165	52,74
373,681	54,87
374,198	53,49
374,715	50,03
375,231	52,22
375,747	50,53
376,264	50,21
376,78	53,06
377,296	49,15
377,812	51,96
378,327	49,07
378,843	48,53
379,359	50,61
379,874	51,53
380,389	47,79
380,905	45,79
381,42	48,14
381,935	48,84
382,449	42,94
382,964	45,34
383,479	46,53
383,993	43,68
384,508	43,14
385,022	41,39
385,536	44,74
386,05	43,65
386,564	42,15
387,078	40,82
387,592	40,39
388,105	40,93
388,619	39,58
389,132	35,46
389,645	38,13
390,158	37,49
390,671	37,87
391,184	38,36
391,697	34,56
392,21	37,11
392,722	35,62
393,235	36,56
393,747	35,72
394,259	34,91
394,771	35,94
395,283	35,02
395,795	34,68
396,307	34,36
396,818	34,82
397,33	33,81
397,841	31,65
398,353	33,01
398,864	33,13
399,375	31,25
399,886	31,18
400,397	28,45
400,907	29,49
401,418	28,36
401,928	29,67
402,439	27,01
402,949	28,09
403,459	25,23
403,969	26,39
404,479	25,03
404,989	24,15
405,498	23,84
406,008	23,71
406,517	23,45
407,027	21,47
407,536	21,17
408,045	20,99
408,554	19,72
409,063	19,11
409,572	18,57
410,08	18,9
410,589	17,99
411,097	17,53
411,606	16,37
412,114	16,39
412,622	14,85
413,13	15,5
413,638	15,37
414,145	14,83
414,653	14,28
415,16	13,85
415,668	13,47
416,175	12,97
416,682	12,63
417,189	12,65
417,696	11,58
418,203	12,17
418,71	12,23
419,216	12,05
419,723	12
420,229	11,24
420,735	11,51
421,242	10,89
421,748	10,46
422,254	10,94
422,759	10,93
423,265	10,55
423,771	10,26
424,276	10,07
424,781	10,1
425,287	10,03
425,792	9,96
426,297	9,89
426,802	9,59
427,306	10,01
427,811	10,11
428,316	9,49
428,82	9,16
429,324	9,57
429,829	9,33
430,333	9,72
430,837	9,79
431,34	9,2
431,844	9,39
432,348	9,31
432,851	9,38
433,355	8,94
433,858	8,56
434,361	9,04
434,864	8,83
435,367	8,51
435,87	9,27
436,373	8,79
436,876	8,61
437,378	8,82
437,88	8,74
438,383	8,39
438,885	8,74
439,387	8,59
439,889	8,92
440,391	8,71
440,892	8,4
441,394	8,64
441,896	8,64
442,397	8,65
442,898	8,58
443,399	8,58
443,9	8,58
444,401	8,88
444,902	8,39
445,403	8,51
445,903	8,67
446,404	8,56
446,904	8,59
447,405	8,63
447,905	8,68
448,405	9,13
448,905	8,77
449,404	8,84
449,904	8,63
450,404	8,9
450,903	9,15
451,403	8,83
451,902	9,01
452,401	8,88
452,9	8,77
453,399	9,1
453,898	9,12
454,396	8,96
454,895	9,23
455,393	8,81
455,892	9,16
456,39	9,53
456,888	9,25
457,386	9,25
457,884	9,1
458,382	9,08
458,879	9,05
459,377	9,06
459,874	9,2
460,372	9,33
460,869	9,23
461,366	9,48
461,863	9,29
462,36	8,92
462,857	9,29
463,353	9,06
463,85	8,94
464,346	9,05
464,843	9,07
465,339	9,48
465,835	9,14
466,331	8,95
466,827	9,01
467,323	8,95
467,818	9,01
468,314	9,05
468,809	8,75
469,305	8,88
469,8	9,27
470,295	9,03
470,79	9,23
471,285	9,26
471,78	8,99
472,274	9,26
472,769	9,2
473,263	9,24
473,758	9,07
474,252	9,13
474,746	9,01
475,24	8,95
475,734	9,21
476,228	9,09
476,721	9,21
477,215	9,17
477,708	9,33
478,202	9,23
478,695	9,19
479,188	9,23
479,681	9,18
480,174	9,36
480,667	9,28
481,159	9,51
481,652	9,29
482,144	9,17
482,637	9,55
483,129	9,52
483,621	9,35
484,113	9,48
484,605	9,43
485,097	9,4
485,588	9,2
486,08	9,63
486,571	9,46
487,063	9,62
487,554	9,54
488,045	9,66
488,536	9,68
489,027	9,6
489,518	9,47
490,008	9,61
490,499	9,82
490,989	9,93
491,48	9,97
491,97	10,18
492,46	10,18
492,95	9,89
493,44	10,25
493,93	10,2
494,419	10,27
494,909	10,47
495,398	10,46
495,888	10,51
496,377	10,78
496,866	10,68
497,355	10,97
497,844	10,95
498,333	10,97
498,821	11,26
499,31	11,27
499,798	11,43
500,287	11,49
500,775	11,7
501,263	11,78
501,751	12
502,239	12,06
502,727	12,43
503,215	12,51
503,702	12,73
504,19	12,8
504,677	13
505,164	13,07
505,651	13,44
506,139	13,72
506,625	13,87
507,112	14,09
507,599	14,37
508,086	14,57
508,572	14,88
509,058	15,04
509,545	15,05
510,031	15,44
510,517	15,5
511,003	16,05
511,489	16,35
511,974	16,54
512,46	16,65
512,946	17
513,431	17,15
513,916	17,64
514,401	18,16
514,887	18,56
515,371	19,08
515,856	18,7
516,341	19,4
516,826	20,02
517,31	20,08
517,795	20,69
518,279	20,77
518,763	21,01
519,247	21,64
519,731	22,1
520,215	22,23
520,699	22,39
521,182	22,98
521,666	23,28
522,149	23,73
522,633	24,41
523,116	23,95
523,599	24,67
524,082	25,19
524,565	25,51
525,048	25,73
525,53	25,98
526,013	26,35
526,495	26,68
526,978	26,74
527,46	26,99
527,942	27,53
528,424	27,66
528,906	27,85
529,388	27,91
529,87	28,58
530,351	28,56
530,833	28,74
531,314	28,93
531,795	28,82
532,277	29,06
532,758	29,25
533,238	29,49
533,719	29,59
534,2	29,47
534,681	29,68
535,161	30,27
535,642	30,11
536,122	30,16
536,602	29,97
537,082	30,25
537,562	30,52
538,042	30,66
538,522	30,41
539,001	30,35
539,481	30,8
539,96	30,72
540,44	30,68
540,919	30,68
541,398	30,77
541,877	30,7
542,356	31,11
542,835	30,89
543,313	31,19
543,792	31,19
544,27	31,01
544,749	31,17
545,227	31,22
545,705	31,39
546,183	31,31
546,661	31,45
547,139	31,3
547,616	31,21
548,094	31,34
548,571	31,55
549,049	31,38
549,526	31,65
550,003	31,61
550,48	31,53
550,957	31,82
551,434	31,85
551,911	31,66
552,387	32,04
552,864	31,62
553,34	31,74
553,817	32,14
554,293	31,62
554,769	32,16
555,245	31,76
555,721	31,56
556,197	31,76
556,672	31,56
557,148	31,78
557,623	31,62
558,099	31,91
558,574	31,66
559,049	31,76
559,524	31,67
559,999	31,39
560,474	31,21
560,948	31,36
561,423	31,42
561,897	31,26
562,372	31,14
562,846	31,1
563,32	31,01
563,794	30,55
564,268	30,63
564,742	30,63
565,216	30,45
565,69	30,12
566,163	30,39
566,636	30,06
567,11	30,04
567,583	29,61
568,056	29,45
568,529	29,28
569,002	29,22
569,475	29,19
569,947	28,69
570,42	28,69
570,892	28,62
571,365	28,23
571,837	28,2
572,309	27,98
572,781	28,01
573,253	27,7
573,725	27,5
574,197	27,4
574,668	27,19
575,14	26,79
575,611	26,64
576,082	26,56
576,554	26,23
577,025	26,41
577,496	25,87
577,967	25,92
578,437	25,88
578,908	25,53
579,379	25,45
579,849	25,23
580,319	25,1
580,79	24,89
581,26	24,8
581,73	24,55
582,2	24,77
582,669	24,56
583,139	24,39
583,609	24,15
584,078	24,13
584,548	23,94
585,017	23,9
585,486	23,92
585,955	23,51
586,424	23,63
586,893	23,52
587,362	23,39
587,83	23,06
588,299	22,91
588,767	23,11
589,236	23,24
589,704	22,95
590,172	22,84
590,64	22,75
591,108	22,67
591,576	22,39
592,043	22,52
592,511	22,57
592,978	22,33
593,446	22,28
593,913	22,12
594,38	22,2
594,847	22,21
595,314	22,16
595,781	21,99
596,248	22,11
596,715	21,96
597,181	22,05
597,647	21,97
598,114	21,82
598,58	22,03
599,046	21,77
599,512	21,68
599,978	21,49
600,444	21,52
600,91	21,59
601,375	21,65
601,841	21,57
602,306	21,4
602,771	21,46
603,236	21,44
603,702	21,2
604,167	21,29
604,631	21,05
605,096	20,98
605,561	21,11
606,025	20,88
606,49	20,75
606,954	20,74
607,418	20,79
607,882	20,63
608,347	20,54
608,81	20,51
609,274	20,25
609,738	20,15
610,202	20,1
610,665	20,03
611,128	19,82
611,592	19,64
612,055	19,61
612,518	19,61
612,981	19,62
613,444	19,25
613,907	19,4
614,369	19,1
614,832	18,94
615,294	18,78
615,757	19,02
616,219	18,8
616,681	18,73
617,143	18,64
617,605	18,4
618,067	18,25
618,529	18,53
618,99	18,23
619,452	18,01
619,913	18,17
620,375	17,86
620,836	17,94
621,297	17,88
621,758	17,71
622,219	17,72
622,68	17,67
623,14	17,8
623,601	17,78
624,061	17,68
624,522	17,37
624,982	17,43
625,442	17,52
625,902	17,34
626,362	17,44
626,822	17,32
627,282	17,3
627,742	17,28
628,201	17,27
628,661	17,28
629,12	17,22
629,579	17,21
630,038	17,04
630,497	17,22
630,956	17,07
631,415	17,14
631,874	17,15
632,332	17,13
632,791	16,91
633,249	16,9
633,708	16,87
634,166	16,63
634,624	16,7
635,082	16,52
635,54	16,56
635,998	16,49
636,455	16,44
636,913	16,24
637,37	16,11
637,828	16,05
638,285	16,03
638,742	15,72
639,199	15,53
639,656	15,62
640,113	15,37
640,57	15,28
641,027	15,16
641,483	14,82
641,94	14,79
642,396	14,71
642,852	14,59
643,309	14,29
643,765	14,13
644,221	14,03
644,676	14,08
645,132	13,74
645,588	13,66
646,043	13,51
646,499	13,37
646,954	13,32
647,409	13,17
647,864	12,97
648,319	12,92
648,774	12,76
649,229	12,58
649,684	12,5
650,139	12,49
650,593	12,57
651,047	12,29
651,502	12,26
651,956	12,14
652,41	12,05
652,864	12
653,318	12,03
653,772	11,87
654,225	11,93
654,679	11,66
655,133	11,77
655,586	11,7
656,039	11,53
656,492	11,57
656,946	11,39
657,399	11,29
657,851	11,17
658,304	11,19
658,757	11,11
659,209	10,93
659,662	10,9
660,114	10,72
660,567	10,74
661,019	10,63
661,471	10,57
661,923	10,36
662,375	10,37
662,826	10,18
663,278	10,11
663,73	10,02
664,181	9,9
664,632	9,8
665,084	9,81
665,535	9,7
665,986	9,67
666,437	9,59
666,888	9,62
667,338	9,55
667,789	9,47
668,24	9,42
668,69	9,52
669,14	9,54
669,591	9,39
670,041	9,42
670,491	9,36
670,941	9,37
671,391	9,46
671,84	9,46
672,29	9,58
672,74	9,52
673,189	9,59
673,638	9,59
674,088	9,72
674,537	9,75
674,986	9,92
675,435	9,87
675,883	10,06
676,332	10,03
676,781	10,17
677,229	10,28
677,678	10,36
678,126	10,5
678,574	10,65
679,022	10,61
679,47	10,78
679,918	10,91
680,366	11,01
680,814	11,06
681,261	11,28
681,709	11,36
682,156	11,49
682,604	11,72
683,051	11,86
683,498	12,01
683,945	12,3
684,392	12,38
684,839	12,5
685,286	12,8
685,732	12,88
686,179	13,24
686,625	13,36
687,071	13,56
687,518	13,85
687,964	14,12
688,41	14,37
688,856	14,78
689,301	15,19
689,747	15,51
690,193	15,87
690,638	16,34
691,084	16,73
691,529	17,18
691,974	17,92
692,419	18,38
692,864	18,88
693,309	19,38
693,754	20,03
694,199	20,61
694,643	21,07
695,088	21,73
695,532	22,46
695,977	22,98
696,421	23,53
696,865	24,18
697,309	24,76
697,753	25,48
698,197	25,97
698,64	26,52
699,084	27,13
699,527	27,56
699,971	28,32
700,414	28,98
700,857	29,25
701,3	29,81
701,743	30,23
702,186	31,01
702,629	31,38
703,072	31,9
703,515	32,52
703,957	32,79
704,399	33,19
704,842	33,75
705,284	34,2
705,726	34,54
706,168	34,95
706,61	35,46
707,052	35,83
707,494	36,08
707,935	36,56
708,377	36,74
708,818	37,1
709,26	37,42
709,701	37,92
710,142	38,23
710,583	38,72
711,024	38,99
711,465	39,3
711,905	39,53
712,346	39,99
712,787	40,1
713,227	40,36
713,667	40,89
714,108	41,29
714,548	41,31
714,988	41,54
715,428	41,74
715,868	42,22
716,307	42,21
716,747	42,73
717,186	42,99
717,626	43,08
718,065	43,46
718,504	43,43
718,944	44
719,383	44,28
719,822	44,17
720,261	44,3
720,699	44,64
721,138	44,73
721,576	45,05
722,015	45,28
722,453	45,45
722,892	45,74
723,33	45,65
723,768	46,23
724,206	46,43
724,644	46,3
725,081	46,57
725,519	46,58
725,957	46,55
726,394	46,75
726,832	47,06
727,269	47,24
727,706	46,98
728,143	47,42
728,58	47,54
729,017	47,47
729,454	47,78
729,89	47,83
730,327	47,8
730,764	48,03
731,2	48,09
731,636	48,2
732,072	48,31
732,509	48,41
732,945	48,3
733,38	48,44
733,816	48,58
734,252	48,35
734,688	48,2
735,123	48,39
735,559	48,69
735,994	48,74
736,429	48,74
736,864	48,8
737,299	48,43
737,734	48,86
738,169	48,83
738,604	48,79
739,038	48,69
739,473	48,84
739,907	49,21
740,342	49
740,776	48,77
741,21	48,89
741,644	48,91
742,078	49,1
742,512	49,13
742,946	49,07
743,379	48,91
743,813	49,08
744,246	48,85
744,68	48,96
745,113	48,69
745,546	48,81
745,979	48,84
746,412	48,9
746,845	48,78
747,278	49,02
747,711	48,83
748,143	48,88
748,576	48,62
749,008	48,73
749,441	48,68
749,873	48,73
750,305	48,55
750,737	48,69
751,169	48,46
751,601	48,58
752,032	48,45
752,464	48,46
752,896	48,57
753,327	48,28
753,758	48,42
754,19	48,3
754,621	48,38
755,052	48,66
755,483	48,16
755,914	48,23
756,344	48,4
756,775	48,27
757,206	48,41
757,636	47,97
758,066	48,07
758,497	48,03
758,927	47,82
759,357	48,03
759,787	47,91
760,217	47,92
760,647	47,81
761,076	47,83
761,506	47,73
761,935	47,65
762,365	47,72
762,794	47,87
763,223	47,66
763,653	47,59
764,082	47,66
764,51	47,72
764,939	47,45
765,368	47,48
765,797	47,76
766,225	47,64
766,654	47,36
767,082	47,42
767,51	47,41
767,938	47,45
768,367	47,46
768,795	47,2
769,222	47,47
769,65	47,48
770,078	47,51
770,505	47,25
770,933	47,19
771,36	47,23
771,788	47,21
772,215	47,42
772,642	47,18
773,069	47,03
773,496	47,01
773,923	47,06
774,349	46,91
774,776	47,01
775,203	46,94
775,629	47
776,055	47,05
776,482	46,99
776,908	47,03
777,334	46,83
777,76	47,08
778,186	46,82
778,611	46,97
779,037	46,9
779,463	46,68
779,888	46,88
780,314	46,9
780,739	47,04
781,164	46,81
781,589	46,73
782,014	46,65
782,439	46,66
782,864	46,79
783,289	46,84
783,713	46,67
784,138	46,6
784,562	46,68
784,987	46,63
785,411	46,67
785,835	46,54
786,259	46,65
786,683	46,94
787,107	46,61
787,531	46,37
787,954	46,59
788,378	46,97
788,802	46,86
789,225	46,46
789,648	46,63
790,071	46,58
790,495	46,42
790,918	46,73
791,34	46,79
791,763	46,46
792,186	46,65
792,609	46,73
793,031	46,56
793,454	46,57
793,876	46,69
794,298	46,47
794,721	46,32
795,143	46,61
795,565	46,14
795,986	46,45
796,408	46,43
796,83	46,5
797,252	46,38
797,673	46,43
798,094	46,37
798,516	46,42
798,937	46,56
799,358	46,52
799,779	46,49
800,2	46,5
800,621	46,44
801,042	46,23
801,462	46,2
801,883	46,36
802,303	46,39
802,724	46,28
803,144	46,61
803,564	46,27
803,984	46,28
804,404	46,44
804,824	46,42
805,244	46,45
805,664	46,46
806,084	46,42
806,503	46,4
806,923	46,4
807,342	46,43
807,761	46,47
808,18	46,41
808,599	46,44
809,018	46,37
809,437	46,33
809,856	46
810,275	46,27
810,693	46,45
811,112	46,41
811,53	46,38
811,949	46,49
812,367	46,43
812,785	46,39
813,203	46,43
813,621	46,27
814,039	46,27
814,457	45,99
814,874	46,37
815,292	46,43
815,709	46,29
816,127	46,34
816,544	46,39
816,961	46,37
817,378	46,36
817,795	46,2
818,212	46,1
818,629	46,32
819,046	46,09
819,462	46,36
819,879	46,41
820,295	46,03
820,712	46,09
821,128	46,34
821,544	45,99
821,96	46,33
822,376	46,28
822,792	46,19
823,208	46,16
823,624	46,34
824,039	46,13
824,455	46,12
824,87	46,13
825,286	46,17
825,701	46,21
826,116	45,8
826,531	46,01
826,946	46,26
827,361	45,98
827,776	45,98
828,19	46,14
828,605	46,1
829,02	46,08
829,434	46,07
829,848	46,42
830,263	46,24
830,677	45,96
831,091	46,11
831,505	46,28
831,919	46,11
832,332	45,92
832,746	46,14
833,16	46,25
833,573	46,08
833,987	46,08
834,4	46,19
834,813	45,72
835,226	45,94
835,639	46,09
836,052	45,98
836,465	46,16
836,878	46,31
837,29	46,02
837,703	46,17
838,116	46,23
838,528	45,99
838,94	45,79
839,352	46,03
839,765	46,13
840,177	45,85
840,589	46,23
841	45,97
841,412	46,02
841,824	45,93
842,235	45,74
842,647	45,94
843,058	45,94
843,47	45,97
843,881	45,84
844,292	45,88
844,703	45,91
845,114	46,19
845,525	46,13
845,935	45,95
846,346	45,88
846,757	45,82
847,167	46,04
847,577	46,1
847,988	45,5
848,398	45,84
848,808	45,69
849,218	45,97
849,628	45,81
850,038	45,72
850,448	45,84
850,857	46,01
851,267	45,88
851,676	45,92
852,086	46,19
852,495	45,84
852,904	45,88
853,313	45,65
853,722	46,12
854,131	45,96
854,54	45,91
854,949	45,83
855,357	45,8
855,766	45,82
856,174	45,67
856,583	45,86
856,991	45,91
857,399	46,05
857,807	45,95
858,215	45,77
858,623	46,05
859,031	46,19
859,439	46,07
859,846	45,99
860,254	46,13
860,661	45,91
861,069	45,82
861,476	45,92
861,883	45,66
862,29	45,81
862,697	45,6
863,104	45,65
863,511	45,83
863,918	45,41
864,325	45,56
864,731	45,32
865,138	45,52
865,544	45,66
865,95	45,79
866,357	45,69
866,763	45,68
867,169	45,74
867,575	45,97
867,98	46
868,386	45,95
868,792	45,84
869,197	46,05
869,603	45,58
870,008	45,88
870,414	45,18
870,819	45,35
871,224	45,51
871,629	45,68
872,034	45,83
872,439	45,73
872,844	45,74
873,248	45,6
873,653	45,75
874,057	45,6
874,462	45,83
874,866	45,86
875,27	45,77
875,674	45,69
876,078	45,69
876,482	45,9
876,886	45,71
877,29	45,51
877,694	45,51
878,097	45,63
878,501	45,58
878,904	45,56
879,308	45,42
879,711	45,68
880,114	45,77
880,517	45,41
880,92	45,86
881,323	45,98
881,726	45,72
882,128	45,62
882,531	45,66
882,934	45,71
883,336	45,57
883,738	45,72
884,141	45,54
884,543	45,68
884,945	45,62
885,347	45,63
885,749	45,43
886,151	45,3
886,552	45,7
886,954	45,66
887,355	45,57
887,757	45,31
888,158	45,63
888,56	46,06
888,961	45,59
889,362	45,8
889,763	45,94
890,164	45,73
890,565	45,77
890,965	45,63
891,366	45,61
891,767	46
892,167	45,64
892,567	45,58
892,968	45,54
893,368	45,56
893,768	45,53
894,168	45,67
894,568	45,65
894,968	45,61
895,368	45,68
895,767	45,56
896,167	45,72
896,566	45,52
896,966	45,71
897,365	45,86
897,764	45,62
898,164	45,59
898,563	45,73
898,962	45,71
899,361	45,77
899,759	45,4
900,158	45,62
900,557	45,66
900,955	45,86
901,354	45,45
901,752	45,29
902,15	45,44
902,548	45,55
902,947	45,62
903,345	45,8
903,742	45,85
904,14	45,64
904,538	45,66
904,936	45,45
905,333	45,79
905,731	45,4
906,128	45,38
906,525	45,65
906,923	45,83
907,32	45,7
907,717	45,64
908,114	45,85
908,511	45,4
908,907	45,64
909,304	45,53
909,701	45,67
910,097	45,2
910,494	45,92
910,89	45,53
911,286	45,84
911,682	45,75
912,078	46,12
912,474	45,88
912,87	45,85
913,266	45,46
913,662	45,45
914,058	45,76
914,453	45,62
914,849	45,67
915,244	45,67
915,639	45,79
916,034	46,08
916,43	45,61
916,825	45,81
917,22	45,48
917,614	45,61
918,009	45,46
918,404	45,44
918,798	46,05
919,193	45,52
919,587	45,62
919,982	45,55
920,376	45,6
920,77	45,54
921,164	45,76
921,558	45,97
921,952	45,66
922,346	45,47
922,74	45,48
923,133	45,83
923,527	45,08
923,92	45,52
924,314	46,02
924,707	45,42
925,1	45,42
925,493	45,67
925,886	45,76
926,279	45,52
926,672	45,48
927,065	45,5
927,457	45,34
927,85	45,37
928,243	45,53
928,635	45,58
929,027	45,61
929,42	45,59
929,812	45,78
930,204	45,27
930,596	45,8
930,988	45,59
931,379	45,68
931,771	45,17
932,163	45,75
932,554	45,46
932,946	45,52
933,337	45,69
933,729	45,33
934,12	45,64
934,511	45,62
934,902	45,25
935,293	45,46
935,684	45,67
936,075	45,33
936,465	45,17
936,856	45,08
937,246	45,37
937,637	45,31
938,027	45,5
938,417	45,33
938,808	45,2
939,198	45,56
939,588	45,31
939,978	45,13
940,368	45,75
940,757	44,98
941,147	45,86
941,537	46,19
941,926	44,68
942,315	44,75
942,705	45,46
943,094	45,23
943,483	45,15
943,872	45,55
944,261	45,1
944,65	45,36
945,039	45,64
945,428	44,93
945,816	45,96
946,205	45,05
946,593	45,17
946,982	45,17
947,37	45,84
947,758	45,4
948,146	45,08
948,534	44,41
948,922	45,46
949,31	44,94
949,698	44,92
950,086	44,91
950,473	45,15
950,861	44,78
951,248	44,77
951,636	45,17
952,023	45,19
952,41	45,41
952,797	45,04
953,184	45,27
953,571	44,48
953,958	44,5
954,345	44,8
954,731	44,68
955,118	44,78
955,505	45,01
955,891	45,33
956,277	44,64
956,664	44,43
957,05	44,15
957,436	44,66
957,822	44,61
958,208	44,38
958,594	44,87
958,979	44,32
959,365	44,28
959,751	44,81
960,136	44,16
960,522	44,46
960,907	44,26
961,292	44,46
961,677	44,7
962,062	44,77
962,447	44,63
962,832	44,51
963,217	44,55
963,602	44,2
963,986	44,39
964,371	44,27
964,756	44,29
965,14	44,81
965,524	44,55
965,908	44,56
966,293	44,06
966,677	44,26
967,061	44,69
967,445	44,17
967,828	45,27
968,212	44,88
968,596	44,58
968,979	44,67
969,363	44,78
969,746	44,62
970,129	44,14
970,513	44,31
970,896	44,47
971,279	44,18
971,662	44,67
972,045	44,68
972,428	44,63
972,81	44,53
973,193	44,72
973,575	44,6
973,958	44,41
974,34	44,31
974,723	44,6
975,105	44,51
975,487	44,7
975,869	44,47
976,251	44,77
976,633	44,8
977,015	44,62
977,396	44,62
977,778	44,48
978,16	44,65
978,541	44,47
978,922	44,63
979,304	44,18
979,685	44,8
980,066	45,07
980,447	44,39
980,828	45,04
981,209	44,89
981,59	44,6
981,97	44,55
982,351	44,99
982,732	45,07
983,112	44,74
983,493	44,79
983,873	44,91
984,253	44,62
984,633	44,53
985,013	44,81
985,393	44,66
985,773	44,39
986,153	45,15
986,533	44,65
986,912	44,53
987,292	44,66
987,671	44,94
988,051	45,17
988,43	45,07
988,809	44,89
989,188	45,38
989,567	44,67
989,946	45,19
990,325	44,67
990,704	45,04
991,083	44,69
991,461	44,76
991,84	44,92
992,218	44,93
992,597	45,08
992,975	44,78
993,353	45,41
993,732	44,99
994,11	44,71
994,488	45,14
994,866	45,16
995,243	44,88
995,621	45,01
995,999	44,81
996,376	45,15
996,754	44,93
997,131	44,9
997,509	45,19
997,886	44,81
998,263	45,18
998,64	45,08
999,017	44,99
999,394	45,15
999,771	45,33
1000,148	45,13
1000,524	45,14
1000,901	45,52
1001,277	45,33
1001,654	45,25
1002,03	45,62
1002,406	45,78
1002,783	45,63
1003,159	45,19
1003,535	45,01
1003,911	44,97
1004,286	45,89
1004,662	45,2
1005,038	45,01
1005,414	45,54
1005,789	45,27
1006,164	44,99
1006,54	45,71
1006,915	45,28
1007,29	45,57
1007,665	45,24
1008,04	45,4
1008,415	45,08
1008,79	45,75
1009,165	45,35
1009,54	45,27
1009,914	46,34
1010,289	45,86
1010,663	45,65
1011,038	45,96
1011,412	46,04
1011,786	45,46
1012,16	45,67
1012,535	45,7
1012,909	45,91
1013,282	45,96
1013,656	45,82
1014,03	45,93
1014,404	45,55
1014,777	46,12
1015,151	45,56
1015,524	45,9
1015,897	45,78
1016,271	45,75
1016,644	46,24
1017,017	45,85
1017,39	46,43
1017,763	45,61
1018,136	46,25
1018,508	45,99
1018,881	46,12
1019,254	45,83
1019,626	45,52
1019,999	45,57
1020,371	45,59
1020,743	45,95
1021,116	45,91
1021,488	45,73
1021,86	46,23
1022,232	46,57
1022,604	45,99
1022,975	46,35
1023,347	46,47
1023,719	46,01
1024,09	46,9
1024,462	46,91
1024,833	46,47
1025,204	46,48
1025,576	46,69
1025,947	45,82
1026,318	46,52
1026,689	46,41
1027,06	45,8
1027,431	46,38
1027,801	46,6
1028,172	46,45
1028,543	46,64
1028,913	45,88
1029,284	46,75
1029,654	46,66
1030,024	46,48
1030,394	46,25
1030,764	45,88
1031,135	46,11
1031,504	45,9
1031,874	46,54
1032,244	46,09
1032,614	46,51
1032,983	46,02
1033,353	46,87
1033,722	46,31
1034,092	46,09
1034,461	47,15
1034,83	46,91
1035,2	46,93
1035,569	46,67
1035,938	46,61
1036,307	47,18
1036,675	46,76
1037,044	46,51
1037,413	47,56
1037,781	47,45
1038,15	47,22
1038,518	47,46
1038,887	47,18
1039,255	47,08
1039,623	47,37
1039,991	47,07
1040,359	47,72
1040,727	47,07
1041,095	47,41
1041,463	47,31
1041,831	46,54
1042,198	47,61
1042,566	46,84
1042,933	46,74
1043,301	47,42
1043,668	47,31
1044,035	47,16
1044,402	47,76
1044,77	47,47
1045,137	47,26
1045,503	46,67
1045,87	46,95
1046,237	47,23
1046,604	47,69
1046,97	47,2
1047,337	48
1047,703	47,96
1048,07	47,64
1048,436	47,64
1048,802	47,36
1049,168	48,09
1049,534	48,47
1049,9	47,46
1050,266	48,04
1050,632	48,01
1050,998	48,48
1051,364	48,29
1051,729	48,41
1052,095	47,4
1052,46	48,43
1052,825	47,69
1053,191	47,31
1053,556	47,55
1053,921	48,68
1054,286	47,82
1054,651	47,71
1055,016	47,24
1055,381	48,01
1055,745	48,15
1056,11	48,53
1056,475	48,37
1056,839	48,71
1057,203	48,7
1057,568	48,34
1057,932	47,79
1058,296	48,1
1058,66	49,07
1059,024	47,81
1059,388	48,69
1059,752	48,01
1060,116	48,46
1060,48	48,67
1060,843	48,27
1061,207	48,28
1061,57	49,5
1061,934	49,07
1062,297	47,94
1062,66	48,38
1063,023	49,14
1063,386	49,31
1063,749	49,47
1064,112	49,22
1064,475	49,02
1064,838	48,75
1065,201	49,4
1065,563	49,28
1065,926	48,3
1066,288	48,01
1066,651	48,8
1067,013	48,77
1067,375	48,8
1067,737	48,82
1068,099	49,02
1068,461	48,88
1068,823	48,52
1069,185	48,84
1069,547	49,13
1069,909	48,74
1070,27	49,54
1070,632	48,84
1070,993	49,61
1071,355	48,32
1071,716	48,89
1072,077	48,96
1072,438	49,03
1072,799	48,54
1073,16	48,94
1073,521	49,96
1073,882	48,7
1074,243	49,45
1074,603	50,3
1074,964	48,38
1075,325	49,58
1075,685	50,64
1076,045	49,89
1076,406	49,28
1076,766	47,99
1077,126	48,93
1077,486	51,04
1077,846	49,36
1078,206	49,49
1078,566	48,85
1078,925	49,43
1079,285	49,18
1079,645	49,95
1080,004	50,87
1080,364	50,7
1080,723	51,52
1081,082	48,66
1081,442	50,37
1081,801	48,64
1082,16	51,08
1082,519	49,24
1082,878	48,98
1083,237	50,36
1083,595	49,93
1083,954	50,55
1084,313	49,41
1084,671	51,11
1085,03	49,73
1085,388	49,87
1085,746	50,33
1086,104	50
1086,463	50,66
1086,821	49,04
1087,179	49,76
1087,537	51
1087,894	50,68
1088,252	51,08
1088,61	51,49
1088,967	49,69
1089,325	51,24
1089,682	49,62
1090,04	48,73
1090,397	49,53
1090,754	50,59
1091,111	50,55
1091,469	51,75
1091,826	50,8
1092,182	49,9
1092,539	51,08
1092,896	49,83
1093,253	50,99
1093,609	50,2
1093,966	49,82
1094,322	50,5
1094,679	51,01
1095,035	49,86
1095,391	51,35
1095,748	50,97
1096,104	51,23
1096,46	51,85
1096,816	51,59
1097,171	52,01
1097,527	53,08
1097,883	51,92
1098,239	52,9
1098,594	51,06
1098,95	51,1
1099,305	52,72
1099,66	52,95
1100,016	52,71
1100,371	52,18
1100,726	51,58
1101,081	50,84
1101,436	50,45
1101,791	52,57
1102,146	52,17
1102,5	50,88
1102,855	51,32
1103,21	53,94
1103,564	53,89
1103,918	51,92
1104,273	52,93
1104,627	50,85
1104,981	51,69
1105,335	51,45
1105,69	52,72
1106,043	53,5
1106,397	53,98
1106,751	52,76
1107,105	53,32
1107,459	52,69
1107,812	52,04
1108,166	52,98
1108,519	54,47
1108,873	54,57
1109,226	52,13
1109,579	55,81
1109,932	53,11
1110,285	53,27
1110,638	54,8
1110,991	53,16
1111,344	54,34
1111,697	52,43
1112,05	53,75
1112,402	54,12
1112,755	53,32
1113,107	53,68
1113,46	55,38
1113,812	54,77
1114,164	56,67
1114,517	54,74
1114,869	117,1
1115,221	116,59
1115,573	105,46
1115,924	99,93
