Data from I4__Relative__1__00163.txt Node

Date: Tue Jan 30 18:10:35 CET 2024
User: diatiterra
Spectrometer: HDX00911
Trigger mode: 0
Integration Time (sec): 6,000000E-3
Scans to average: 3
Nonlinearity correction enabled: true
Boxcar width: 0
Storing dark spectrum: false
XAxis mode: Wavelengths
Number of Pixels in Spectrum: 2068
>>>>>Begin Spectral Data<<<<<
194,468	157,38
195,025	127,22
195,581	118,69
196,138	109
196,694	105,54
197,251	91,01
197,807	82,36
198,363	81,35
198,919	91,54
199,474	96,61
200,03	80,92
200,586	84,04
201,141	86,23
201,696	76,52
202,251	80,24
202,806	87,98
203,361	85,41
203,916	85,73
204,471	85,36
205,025	82,18
205,58	84,44
206,134	85,45
206,688	83,32
207,242	75,62
207,796	81,09
208,35	80,55
208,904	84,15
209,457	83,29
210,011	85,87
210,564	81,77
211,117	88,32
211,67	92,34
212,223	84,34
212,776	87,39
213,329	86,7
213,881	86,79
214,434	75,28
214,986	86,72
215,538	85,36
216,09	78,9
216,642	86,41
217,194	84,35
217,746	84,31
218,297	78,47
218,849	90,56
219,4	91,12
219,951	81,82
220,502	86,39
221,053	78,04
221,604	81,16
222,155	90,14
222,705	86,49
223,256	82,88
223,806	85,4
224,356	85,36
224,906	82,8
225,456	80,34
226,006	85,56
226,556	77,33
227,106	90,39
227,655	80,04
228,204	90,15
228,754	85,77
229,303	82,05
229,852	90,01
230,401	88,34
230,949	91,12
231,498	79,1
232,047	80,73
232,595	88,87
233,143	85,39
233,691	86,27
234,239	79,48
234,787	83,64
235,335	83,78
235,883	88,28
236,43	85,3
236,978	82,52
237,525	84,39
238,072	81,58
238,619	91,31
239,166	85,53
239,713	81,33
240,26	82,23
240,806	83,26
241,353	84,33
241,899	79,68
242,445	87,73
242,991	84,59
243,537	85,63
244,083	78,09
244,629	85,45
245,174	90,29
245,72	85,92
246,265	90,26
246,81	84,78
247,355	82,07
247,9	84,7
248,445	86,51
248,99	86,53
249,534	91,52
250,079	84,59
250,623	79,15
251,168	84,71
251,712	82,8
252,256	80,77
252,8	82,2
253,343	88,63
253,887	77,86
254,43	90,76
254,974	86,29
255,517	85,03
256,06	83,46
256,603	88,92
257,146	81,71
257,689	91,09
258,232	85,07
258,774	88,84
259,317	82,88
259,859	78,43
260,401	89,72
260,943	84,96
261,485	85,24
262,027	88,68
262,569	80,85
263,11	85,42
263,652	92,17
264,193	83,64
264,734	82,09
265,275	82,56
265,816	88,92
266,357	81,66
266,898	83,77
267,438	89,47
267,979	87,32
268,519	82,17
269,059	86,88
269,6	82,45
270,14	92,27
270,68	73,27
271,219	80,2
271,759	84
272,298	76,67
272,838	85,19
273,377	82,48
273,916	82,56
274,455	82,71
274,994	80,59
275,533	83,34
276,072	85,98
276,61	87,4
277,149	78,98
277,687	82,76
278,225	81,87
278,763	86,75
279,301	83,91
279,839	91,83
280,377	88,29
280,914	79,66
281,452	86,31
281,989	89,46
282,526	78
283,064	88,18
283,601	77,75
284,137	83,12
284,674	85,66
285,211	86,21
285,747	87,37
286,284	86,55
286,82	80,89
287,356	84,97
287,892	89,6
288,428	81,28
288,964	79,25
289,5	84,64
290,035	82,97
290,571	81,92
291,106	92,39
291,641	86,44
292,176	87,53
292,711	81,64
293,246	81,7
293,781	79,87
294,315	79,32
294,85	84,59
295,384	88,05
295,918	79,95
296,453	79,22
296,987	79,66
297,52	85,44
298,054	78,51
298,588	86,17
299,121	83,04
299,655	83,48
300,188	81,66
300,721	81,06
301,254	82,5
301,787	82,2
302,32	85,67
302,853	80,3
303,385	84,45
303,918	87,82
304,45	82,5
304,982	83,42
305,514	83,16
306,046	78,95
306,578	86
307,11	77,71
307,641	85,09
308,173	87,75
308,704	89,4
309,236	89,11
309,767	81,71
310,298	80,69
310,829	81,4
311,359	80,08
311,89	82,48
312,421	79,83
312,951	80,18
313,481	92,91
314,012	78,11
314,542	77,47
315,072	81,25
315,601	85,31
316,131	89,03
316,661	80,75
317,19	87,58
317,72	79,21
318,249	81,24
318,778	86,86
319,307	78,7
319,836	86,37
320,365	86,23
320,893	81,32
321,422	77,39
321,95	79,19
322,479	88,24
323,007	76,06
323,535	76,23
324,063	78,14
324,591	91,38
325,118	79,83
325,646	85,34
326,173	83,76
326,701	83,23
327,228	80,23
327,755	92,78
328,282	83,12
328,809	80,27
329,336	86,44
329,862	82,61
330,389	83,66
330,915	84,27
331,441	79,92
331,968	74,84
332,494	79,39
333,02	81,08
333,545	85,32
334,071	85,34
334,597	78,7
335,122	79,66
335,648	73,12
336,173	84,58
336,698	78,84
337,223	82,37
337,748	76,83
338,272	72,9
338,797	78,46
339,322	85,85
339,846	78,23
340,37	79,61
340,894	82,05
341,419	79,75
341,942	74,39
342,466	73,56
342,99	78,58
343,514	81,38
344,037	70,61
344,56	77,61
345,084	69,2
345,607	77,56
346,13	72,97
346,653	69,05
347,175	71,08
347,698	76,07
348,221	64,11
348,743	71,12
349,265	72,72
349,787	73,23
350,309	70,51
350,831	70,24
351,353	63,43
351,875	64,63
352,397	61,41
352,918	69,42
353,439	67,78
353,961	68,61
354,482	58,77
355,003	58,46
355,524	61,05
356,044	63,17
356,565	61,84
357,086	66,21
357,606	60,43
358,126	61,42
358,646	58,58
359,167	59,83
359,687	54,44
360,206	57,03
360,726	56,33
361,246	56,23
361,765	52,84
362,285	60,52
362,804	58,43
363,323	57,7
363,842	59,26
364,361	57,51
364,88	53,89
365,398	53,31
365,917	54,79
366,435	53,6
366,954	51,69
367,472	49,94
367,99	56,41
368,508	47,65
369,026	49,51
369,544	49,51
370,061	50,17
370,579	50,17
371,096	51,07
371,613	53,61
372,131	50,63
372,648	48,78
373,165	47,23
373,681	48,75
374,198	51,08
374,715	47,92
375,231	48,06
375,747	45,99
376,264	42,65
376,78	48,13
377,296	44,71
377,812	46,54
378,327	46,23
378,843	44,1
379,359	43,27
379,874	47,02
380,389	42,46
380,905	41,57
381,42	40,85
381,935	39,85
382,449	37,73
382,964	39,61
383,479	38,44
383,993	37,22
384,508	34,89
385,022	36,36
385,536	38,6
386,05	35,59
386,564	35,26
387,078	36,26
387,592	34,58
388,105	33,71
388,619	32,88
389,132	33,89
389,645	32,32
390,158	31,21
390,671	30,71
391,184	31,6
391,697	29,11
392,21	30,78
392,722	31,01
393,235	32,01
393,747	30,15
394,259	27,75
394,771	29,72
395,283	28,13
395,795	28,95
396,307	28,47
396,818	28,12
397,33	26,91
397,841	25,85
398,353	27,65
398,864	27,04
399,375	25,8
399,886	23,91
400,397	21,95
400,907	24,41
401,418	21,64
401,928	23,33
402,439	22,71
402,949	21,59
403,459	19,42
403,969	20,13
404,479	19,05
404,989	18,89
405,498	18,64
406,008	18,02
406,517	17,17
407,027	17,74
407,536	15,98
408,045	15,38
408,554	15,5
409,063	14,87
409,572	14,59
410,08	13,92
410,589	13,59
411,097	13,08
411,606	12,67
412,114	12,41
412,622	12,27
413,13	11,78
413,638	11,06
414,145	10,61
414,653	10,61
415,16	10,1
415,668	10
416,175	9,98
416,682	9,39
417,189	9,31
417,696	9,2
418,203	8,88
418,71	8,65
419,216	8,75
419,723	8,38
420,229	8,72
420,735	8,26
421,242	8,38
421,748	7,98
422,254	7,76
422,759	7,92
423,265	7,58
423,771	7,58
424,276	7,53
424,781	7,42
425,287	7,66
425,792	7,64
426,297	7,26
426,802	7,15
427,306	7,15
427,811	7,38
428,316	6,91
428,82	6,93
429,324	6,85
429,829	6,91
430,333	6,68
430,837	6,85
431,34	6,79
431,844	6,48
432,348	6,75
432,851	6,63
433,355	6,55
433,858	6,32
434,361	6,48
434,864	6,46
435,367	5,93
435,87	6,85
436,373	6,33
436,876	6,09
437,378	6,3
437,88	6,01
438,383	6,05
438,885	6,23
439,387	6,2
439,889	6,21
440,391	5,95
440,892	6,01
441,394	6,17
441,896	5,98
442,397	6,26
442,898	6,18
443,399	6
443,9	6,16
444,401	6,18
444,902	5,92
445,403	5,67
445,903	5,65
446,404	5,76
446,904	5,99
447,405	5,69
447,905	5,78
448,405	6,21
448,905	6,01
449,404	6,3
449,904	5,87
450,404	6,05
450,903	6,22
451,403	5,97
451,902	6,02
452,401	5,94
452,9	6,35
453,399	5,97
453,898	6,03
454,396	6,05
454,895	6,22
455,393	6,24
455,892	6,15
456,39	6,17
456,888	5,97
457,386	6,03
457,884	5,95
458,382	6,18
458,879	6,06
459,377	6,14
459,874	5,95
460,372	6,12
460,869	6,15
461,366	6,22
461,863	6,07
462,36	6,09
462,857	6,02
463,353	6,1
463,85	6,18
464,346	5,95
464,843	5,81
465,339	6,05
465,835	6,07
466,331	6,06
466,827	5,97
467,323	6
467,818	5,86
468,314	5,89
468,809	5,94
469,305	6,12
469,8	5,85
470,295	5,87
470,79	6,06
471,285	5,82
471,78	5,96
472,274	5,75
472,769	5,85
473,263	5,94
473,758	5,94
474,252	5,83
474,746	6
475,24	5,79
475,734	5,95
476,228	5,79
476,721	5,83
477,215	6,04
477,708	6,01
478,202	6
478,695	6,02
479,188	5,94
479,681	5,81
480,174	6,03
480,667	5,97
481,159	6,1
481,652	6,3
482,144	5,97
482,637	5,85
483,129	5,89
483,621	6,28
484,113	5,94
484,605	6,08
485,097	6,19
485,588	6,09
486,08	5,99
486,571	6,3
487,063	6,11
487,554	6,13
488,045	6,3
488,536	6,22
489,027	6,27
489,518	6,29
490,008	6,22
490,499	6,04
490,989	6,43
491,48	6,43
491,97	6,44
492,46	6,38
492,95	6,58
493,44	6,64
493,93	6,54
494,419	6,71
494,909	6,57
495,398	6,84
495,888	6,66
496,377	6,98
496,866	6,94
497,355	6,94
497,844	7,06
498,333	7,01
498,821	7,48
499,31	7,32
499,798	7,59
500,287	7,42
500,775	7,69
501,263	7,75
501,751	7,77
502,239	8,1
502,727	8,22
503,215	8,31
503,702	8,13
504,19	8,51
504,677	8,74
505,164	9,07
505,651	9,06
506,139	9,11
506,625	9,45
507,112	9,76
507,599	9,88
508,086	9,95
508,572	10,49
509,058	10,35
509,545	10,66
510,031	10,88
510,517	11,21
511,003	11,4
511,489	11,62
511,974	12
512,46	12,03
512,946	12,43
513,431	12,7
513,916	12,86
514,401	13,12
514,887	13,96
515,371	13,99
515,856	14,38
516,341	14,63
516,826	14,79
517,31	15,3
517,795	15,66
518,279	16,23
518,763	16,29
519,247	16,64
519,731	16,92
520,215	17,62
520,699	17,69
521,182	18,15
521,666	18,74
522,149	18,59
522,633	19,5
523,116	19,42
523,599	19,98
524,082	20,23
524,565	20,82
525,048	20,99
525,53	21,33
526,013	21,58
526,495	22,11
526,978	22,4
527,46	22,5
527,942	22,81
528,424	23,15
528,906	23,27
529,388	23,7
529,87	23,93
530,351	23,85
530,833	24,22
531,314	24,43
531,795	24,56
532,277	24,84
532,758	24,87
533,238	25,13
533,719	25,33
534,2	25,3
534,681	25,71
535,161	25,82
535,642	25,87
536,122	25,8
536,602	25,98
537,082	26,32
537,562	26,43
538,042	26,3
538,522	26,62
539,001	26,63
539,481	26,82
539,96	26,83
540,44	26,44
540,919	26,29
541,398	26,83
541,877	27,13
542,356	27
542,835	27,14
543,313	27,23
543,792	27,27
544,27	27,09
544,749	27,27
545,227	27,52
545,705	27,53
546,183	27,59
546,661	27,27
547,139	27,28
547,616	27,86
548,094	27,5
548,571	27,66
549,049	27,72
549,526	27,97
550,003	28
550,48	27,67
550,957	27,95
551,434	27,79
551,911	27,69
552,387	27,73
552,864	27,85
553,34	28,06
553,817	27,92
554,293	27,74
554,769	28,2
555,245	27,8
555,721	27,73
556,197	27,76
556,672	27,86
557,148	27,75
557,623	27,67
558,099	27,68
558,574	27,71
559,049	27,59
559,524	27,35
559,999	27,51
560,474	27,4
560,948	27,11
561,423	27,32
561,897	27,11
562,372	26,9
562,846	26,94
563,32	26,74
563,794	26,59
564,268	26,32
564,742	26,38
565,216	26,27
565,69	25,86
566,163	25,75
566,636	25,63
567,11	25,37
567,583	25,38
568,056	25,27
568,529	24,79
569,002	24,9
569,475	24,61
569,947	24,17
570,42	24,39
570,892	24,01
571,365	23,57
571,837	23,52
572,309	23,33
572,781	23,14
573,253	22,89
573,725	22,7
574,197	22,28
574,668	22,32
575,14	22,17
575,611	21,81
576,082	21,39
576,554	21,58
577,025	21,63
577,496	21,15
577,967	21,12
578,437	20,89
578,908	20,74
579,379	20,59
579,849	20,44
580,319	20,32
580,79	20,02
581,26	20,08
581,73	19,75
582,2	19,85
582,669	19,38
583,139	19,34
583,609	19,33
584,078	18,99
584,548	19,13
585,017	19,06
585,486	18,74
585,955	18,61
586,424	18,5
586,893	18,51
587,362	18,49
587,83	18,22
588,299	17,95
588,767	18,16
589,236	18
589,704	18,05
590,172	17,9
590,64	17,74
591,108	17,61
591,576	17,59
592,043	17,72
592,511	17,54
592,978	17,22
593,446	17,42
593,913	17,25
594,38	17,16
594,847	17,28
595,314	17,22
595,781	17,03
596,248	17,01
596,715	17
597,181	16,97
597,647	16,9
598,114	16,99
598,58	17,01
599,046	16,83
599,512	16,8
599,978	16,58
600,444	16,75
600,91	16,7
601,375	16,59
601,841	16,41
602,306	16,38
602,771	16,45
603,236	16,45
603,702	16,24
604,167	16,24
604,631	16,07
605,096	16,11
605,561	16,01
606,025	15,89
606,49	15,67
606,954	15,74
607,418	15,71
607,882	15,55
608,347	15,55
608,81	15,28
609,274	15,23
609,738	15,25
610,202	15,25
610,665	14,88
611,128	14,69
611,592	14,79
612,055	14,47
612,518	14,44
612,981	14,33
613,444	14,28
613,907	14,22
614,369	14,06
614,832	14,07
615,294	13,87
615,757	13,85
616,219	13,74
616,681	13,64
617,143	13,59
617,605	13,33
618,067	13,4
618,529	13,13
618,99	13,24
619,452	13,03
619,913	13,02
620,375	12,86
620,836	13,01
621,297	12,85
621,758	12,81
622,219	12,72
622,68	12,75
623,14	12,66
623,601	12,66
624,061	12,53
624,522	12,44
624,982	12,57
625,442	12,39
625,902	12,32
626,362	12,27
626,822	12,37
627,282	12,34
627,742	12,21
628,201	12,25
628,661	12,15
629,12	12,32
629,579	12,16
630,038	12,37
630,497	12,18
630,956	12,24
631,415	12,16
631,874	12,23
632,332	12,07
632,791	12,14
633,249	11,91
633,708	11,96
634,166	11,99
634,624	11,81
635,082	11,83
635,54	11,71
635,998	11,66
636,455	11,54
636,913	11,51
637,37	11,35
637,828	11,31
638,285	11,11
638,742	11,17
639,199	11,04
639,656	10,79
640,113	10,74
640,57	10,57
641,027	10,51
641,483	10,4
641,94	10,22
642,396	10,09
642,852	9,92
643,309	9,83
643,765	9,72
644,221	9,52
644,676	9,47
645,132	9,25
645,588	9,14
646,043	9,06
646,499	8,84
646,954	8,74
647,409	8,61
647,864	8,59
648,319	8,44
648,774	8,31
649,229	8,4
649,684	8,2
650,139	8,15
650,593	8,08
651,047	8,1
651,502	7,97
651,956	7,93
652,41	7,82
652,864	7,81
653,318	7,72
653,772	7,67
654,225	7,76
654,679	7,63
655,133	7,54
655,586	7,56
656,039	7,47
656,492	7,45
656,946	7,35
657,399	7,3
657,851	7,26
658,304	7,17
658,757	7,06
659,209	7,05
659,662	6,92
660,114	6,85
660,567	6,8
661,019	6,65
661,471	6,72
661,923	6,55
662,375	6,52
662,826	6,45
663,278	6,36
663,73	6,34
664,181	6,34
664,632	6,21
665,084	6,13
665,535	6,1
665,986	6,11
666,437	6,04
666,888	6,03
667,338	6,02
667,789	6,04
668,24	6,12
668,69	5,99
669,14	6,1
669,591	6,08
670,041	6,1
670,491	6,11
670,941	6,15
671,391	6,21
671,84	6,29
672,29	6,36
672,74	6,38
673,189	6,43
673,638	6,46
674,088	6,52
674,537	6,68
674,986	6,61
675,435	6,75
675,883	6,91
676,332	6,95
676,781	7
677,229	7,11
677,678	7,31
678,126	7,34
678,574	7,53
679,022	7,53
679,47	7,71
679,918	7,78
680,366	7,84
680,814	8,09
681,261	8,17
681,709	8,24
682,156	8,34
682,604	8,41
683,051	8,66
683,498	8,8
683,945	8,93
684,392	8,96
684,839	9,09
685,286	9,21
685,732	9,39
686,179	9,55
686,625	9,7
687,071	9,91
687,518	10,15
687,964	10,17
688,41	10,46
688,856	10,84
689,301	11,06
689,747	11,3
690,193	11,77
690,638	12,21
691,084	12,62
691,529	13,13
691,974	13,53
692,419	13,96
692,864	14,42
693,309	15,11
693,754	15,68
694,199	16,24
694,643	16,75
695,088	17,54
695,532	18,16
695,977	18,7
696,421	19,47
696,865	20,07
697,309	20,79
697,753	21,47
698,197	22,17
698,64	22,82
699,084	23,54
699,527	24,05
699,971	24,68
700,414	25,39
700,857	26,08
701,3	26,78
701,743	27,38
702,186	28,11
702,629	28,73
703,072	29,15
703,515	29,98
703,957	30,56
704,399	31,09
704,842	31,55
705,284	32,17
705,726	32,8
706,168	33,48
706,61	33,94
707,052	34,5
707,494	34,98
707,935	35,51
708,377	36,06
708,818	36,56
709,26	37,03
709,701	37,39
710,142	37,98
710,583	38,59
711,024	38,97
711,465	39,55
711,905	39,94
712,346	40,3
712,787	40,71
713,227	41,33
713,667	41,81
714,108	42,32
714,548	42,54
714,988	42,97
715,428	43,43
715,868	43,76
716,307	43,78
716,747	44,64
717,186	45,13
717,626	45,33
718,065	45,65
718,504	46,15
718,944	46,5
719,383	46,71
719,822	47,02
720,261	47,41
720,699	47,78
721,138	47,85
721,576	48,37
722,015	48,57
722,453	49,07
722,892	49,34
723,33	49,64
723,768	49,94
724,206	50,32
724,644	50,36
725,081	50,86
725,519	50,68
725,957	51,2
726,394	51,47
726,832	51,39
727,269	51,94
727,706	51,85
728,143	52,38
728,58	52,55
729,017	52,51
729,454	52,74
729,89	53,11
730,327	53,12
730,764	53,25
731,2	53,51
731,636	53,61
732,072	53,83
732,509	53,96
732,945	53,94
733,38	54,08
733,816	54,03
734,252	54,18
734,688	54,11
735,123	54,23
735,559	54,79
735,994	54,82
736,429	54,62
736,864	54,94
737,299	54,61
737,734	55,09
738,169	54,99
738,604	55,29
739,038	55,24
739,473	55,01
739,907	55,26
740,342	55,57
740,776	55,06
741,21	55,37
741,644	55,37
742,078	55,71
742,512	55,48
742,946	55,87
743,379	55,5
743,813	55,47
744,246	55,44
744,68	55,45
745,113	55,6
745,546	55,57
745,979	55,43
746,412	55,63
746,845	55,54
747,278	55,72
747,711	55,69
748,143	55,54
748,576	55,3
749,008	55,42
749,441	55,41
749,873	55,65
750,305	55,43
750,737	55,32
751,169	55,41
751,601	55,5
752,032	55,29
752,464	55,39
752,896	55,26
753,327	55,04
753,758	55,19
754,19	55,26
754,621	55,26
755,052	55,37
755,483	55,09
755,914	55,16
756,344	55,33
756,775	55,2
757,206	55,17
757,636	54,95
758,066	55,07
758,497	55,06
758,927	55,07
759,357	55,06
759,787	54,87
760,217	54,91
760,647	54,67
761,076	54,88
761,506	54,73
761,935	54,73
762,365	54,89
762,794	54,7
763,223	54,48
763,653	54,76
764,082	54,63
764,51	54,76
764,939	54,7
765,368	54,74
765,797	54,62
766,225	54,62
766,654	54,3
767,082	54,4
767,51	54,38
767,938	54,31
768,367	54,23
768,795	54,29
769,222	54,51
769,65	54,16
770,078	54,47
770,505	54,23
770,933	54,17
771,36	54,13
771,788	54,3
772,215	54,27
772,642	54,11
773,069	54,03
773,496	54,05
773,923	54
774,349	53,88
774,776	54,19
775,203	53,93
775,629	53,96
776,055	54,11
776,482	53,96
776,908	54,14
777,334	53,81
777,76	53,87
778,186	53,98
778,611	53,82
779,037	53,88
779,463	53,85
779,888	53,86
780,314	53,93
780,739	54,17
781,164	53,93
781,589	53,67
782,014	53,76
782,439	53,77
782,864	53,75
783,289	53,97
783,713	53,59
784,138	53,48
784,562	53,71
784,987	53,71
785,411	53,76
785,835	53,7
786,259	53,6
786,683	53,85
787,107	53,86
787,531	53,73
787,954	53,57
788,378	53,85
788,802	53,65
789,225	53,83
789,648	53,68
790,071	53,76
790,495	53,51
790,918	53,77
791,34	53,63
791,763	53,47
792,186	53,77
792,609	53,66
793,031	53,48
793,454	53,56
793,876	53,68
794,298	53,57
794,721	53,52
795,143	53,84
795,565	53,29
795,986	53,77
796,408	53,37
796,83	53,66
797,252	53,51
797,673	53,68
798,094	53,34
798,516	53,35
798,937	53,55
799,358	53,54
799,779	53,41
800,2	53,48
800,621	53,38
801,042	53,38
801,462	53,56
801,883	53,56
802,303	53,56
802,724	53,38
803,144	53,63
803,564	53,32
803,984	53,41
804,404	53,35
804,824	53,5
805,244	53,21
805,664	53,88
806,084	53,29
806,503	53,45
806,923	53,33
807,342	53,35
807,761	53,26
808,18	53,5
808,599	53,25
809,018	53,5
809,437	53,29
809,856	53,19
810,275	53,17
810,693	53,59
811,112	53,61
811,53	53,58
811,949	53,6
812,367	53,33
812,785	53,53
813,203	53,41
813,621	53,23
814,039	53,09
814,457	53,25
814,874	53,49
815,292	53,29
815,709	53,14
816,127	53,48
816,544	53,82
816,961	53,52
817,378	53,34
817,795	53,4
818,212	53,55
818,629	53,2
819,046	53,17
819,462	53,21
819,879	53,48
820,295	53,3
820,712	53,13
821,128	53,27
821,544	53,22
821,96	53,22
822,376	53,23
822,792	53,3
823,208	53,13
823,624	53,21
824,039	53,19
824,455	53,2
824,87	53,47
825,286	53
825,701	53,27
826,116	53,07
826,531	52,98
826,946	53,46
827,361	53,09
827,776	53,06
828,19	52,91
828,605	53,01
829,02	53,06
829,434	53,09
829,848	53,4
830,263	53,06
830,677	53,12
831,091	53,35
831,505	53,14
831,919	53,14
832,332	52,93
832,746	53,25
833,16	53,05
833,573	53,09
833,987	53,02
834,4	53,14
834,813	52,82
835,226	53,13
835,639	52,72
836,052	53,13
836,465	53,39
836,878	53,38
837,29	53,21
837,703	52,9
838,116	53,06
838,528	52,87
838,94	53,17
839,352	53,09
839,765	53,23
840,177	52,87
840,589	53,05
841	53,12
841,412	52,94
841,824	52,96
842,235	52,8
842,647	52,92
843,058	53,16
843,47	53,07
843,881	52,96
844,292	53
844,703	52,91
845,114	53,12
845,525	52,98
845,935	53,22
846,346	53,03
846,757	53,03
847,167	53,03
847,577	53,05
847,988	52,63
848,398	52,99
848,808	52,83
849,218	52,57
849,628	52,75
850,038	53,14
850,448	52,84
850,857	53,29
851,267	53,08
851,676	53,13
852,086	52,91
852,495	52,99
852,904	52,93
853,313	52,79
853,722	52,91
854,131	52,64
854,54	52,81
854,949	53,13
855,357	52,82
855,766	52,74
856,174	52,8
856,583	52,77
856,991	52,93
857,399	52,93
857,807	52,97
858,215	52,84
858,623	53,1
859,031	53,14
859,439	53,22
859,846	53,01
860,254	53,24
860,661	53
861,069	52,89
861,476	53,31
861,883	52,63
862,29	52,78
862,697	52,94
863,104	52,73
863,511	52,82
863,918	52,51
864,325	52,8
864,731	52,26
865,138	52,91
865,544	52,89
865,95	52,69
866,357	52,89
866,763	52,82
867,169	53,09
867,575	52,57
867,98	53,02
868,386	53,24
868,792	52,58
869,197	52,9
869,603	52,61
870,008	53,04
870,414	52,71
870,819	52,65
871,224	52,88
871,629	52,73
872,034	52,62
872,439	52,9
872,844	52,67
873,248	52,91
873,653	52,73
874,057	52,84
874,462	53,04
874,866	52,95
875,27	52,8
875,674	52,89
876,078	52,97
876,482	52,95
876,886	52,76
877,29	52,54
877,694	52,37
878,097	52,62
878,501	52,31
878,904	52,54
879,308	52,65
879,711	52,54
880,114	52,69
880,517	52,7
880,92	52,89
881,323	53,11
881,726	52,64
882,128	52,41
882,531	52,97
882,934	52,94
883,336	52,61
883,738	53,15
884,141	52,72
884,543	52,93
884,945	52,64
885,347	52,87
885,749	52,61
886,151	52,57
886,552	52,62
886,954	52,56
887,355	52,71
887,757	52,43
888,158	52,65
888,56	52,86
888,961	52,71
889,362	52,77
889,763	52,68
890,164	52,84
890,565	52,71
890,965	52,79
891,366	52,98
891,767	53,1
892,167	52,95
892,567	52,75
892,968	52,65
893,368	52,66
893,768	52,48
894,168	52,64
894,568	52,75
894,968	52,51
895,368	52,92
895,767	53,03
896,167	52,72
896,566	52,83
896,966	52,89
897,365	52,86
897,764	52,64
898,164	52,9
898,563	53,1
898,962	52,77
899,361	52,83
899,759	52,37
900,158	52,7
900,557	52,94
900,955	53
901,354	52,44
901,752	52,75
902,15	52,73
902,548	52,76
902,947	52,64
903,345	52,77
903,742	52,63
904,14	52,76
904,538	52,91
904,936	53,02
905,333	52,76
905,731	52,72
906,128	52,75
906,525	52,96
906,923	52,61
907,32	52,64
907,717	52,73
908,114	52,88
908,511	52,46
908,907	52,62
909,304	52,33
909,701	52,34
910,097	52,24
910,494	53,02
910,89	52,64
911,286	53,02
911,682	53
912,078	52,96
912,474	53,14
912,87	53,16
913,266	52,69
913,662	52,59
914,058	52,8
914,453	52,73
914,849	52,72
915,244	52,58
915,639	52,93
916,034	52,8
916,43	52,69
916,825	52,94
917,22	52,75
917,614	52,57
918,009	52,47
918,404	52,74
918,798	52,49
919,193	52,2
919,587	52,45
919,982	52,46
920,376	52,73
920,77	52,97
921,164	52,52
921,558	53,08
921,952	52,8
922,346	52,52
922,74	52,98
923,133	52,65
923,527	52,83
923,92	52,44
924,314	52,69
924,707	52,27
925,1	52,44
925,493	52,96
925,886	52,73
926,279	52,63
926,672	52,79
927,065	52,33
927,457	52,44
927,85	52,45
928,243	52,73
928,635	52,57
929,027	52,49
929,42	52,26
929,812	52,26
930,204	52,34
930,596	52,73
930,988	52,36
931,379	52,49
931,771	52,5
932,163	53
932,554	52,4
932,946	52,12
933,337	52,41
933,729	52,32
934,12	52,47
934,511	52,66
934,902	52,04
935,293	52,34
935,684	52,24
936,075	52,61
936,465	52,26
936,856	52,29
937,246	52,34
937,637	52,2
938,027	53,06
938,417	52,74
938,808	52,34
939,198	52,4
939,588	52,94
939,978	52,59
940,368	52,75
940,757	52,14
941,147	52,4
941,537	53
941,926	52,25
942,315	52,19
942,705	52,28
943,094	52,93
943,483	52,68
943,872	52,22
944,261	52,58
944,65	52,61
945,039	52,4
945,428	51,56
945,816	52,42
946,205	52,21
946,593	52,11
946,982	51,96
947,37	52,86
947,758	52,28
948,146	51,72
948,534	51,88
948,922	52,36
949,31	51,75
949,698	52,23
950,086	52,33
950,473	51,76
950,861	51,87
951,248	51,68
951,636	52,16
952,023	51,52
952,41	51,91
952,797	52,08
953,184	52,09
953,571	51,36
953,958	51,29
954,345	52,2
954,731	51,56
955,118	51,71
955,505	52,01
955,891	52
956,277	51,59
956,664	51,63
957,05	51,34
957,436	51,48
957,822	51,65
958,208	51,47
958,594	51,41
958,979	51,17
959,365	51,38
959,751	51,64
960,136	51,56
960,522	51,29
960,907	51,29
961,292	51,68
961,677	51,41
962,062	51,09
962,447	51,23
962,832	51,47
963,217	51,49
963,602	51,43
963,986	51,37
964,371	51,16
964,756	51,15
965,14	51,27
965,524	51,28
965,908	50,95
966,293	50,69
966,677	50,95
967,061	51,21
967,445	51,24
967,828	51,77
968,212	51,68
968,596	51,72
968,979	51,25
969,363	51,69
969,746	51,85
970,129	50,4
970,513	51,2
970,896	51,43
971,279	51,34
971,662	51,46
972,045	51,53
972,428	51,15
972,81	51,3
973,193	51,58
973,575	51,48
973,958	51,56
974,34	51,31
974,723	51,76
975,105	51,4
975,487	51,24
975,869	51,8
976,251	51,38
976,633	51,48
977,015	51,48
977,396	51,33
977,778	51,38
978,16	51,11
978,541	51,13
978,922	51,13
979,304	51,66
979,685	50,81
980,066	51,71
980,447	51,38
980,828	51,06
981,209	51,8
981,59	51,23
981,97	51,47
982,351	51,79
982,732	51,53
983,112	51,46
983,493	51,88
983,873	51,85
984,253	51,74
984,633	51,55
985,013	51,87
985,393	51,45
985,773	51,21
986,153	51,86
986,533	51,32
986,912	51,47
987,292	51,13
987,671	51,88
988,051	51,9
988,43	51,62
988,809	51,56
989,188	51,93
989,567	51,5
989,946	51,65
990,325	51,26
990,704	51,66
991,083	51,66
991,461	51,47
991,84	51,54
992,218	51,5
992,597	52,15
992,975	51,35
993,353	51,92
993,732	52,07
994,11	51,66
994,488	51,72
994,866	51,9
995,243	51,93
995,621	51,87
995,999	51,95
996,376	52,16
996,754	51,96
997,131	52,06
997,509	51,76
997,886	51,48
998,263	52,17
998,64	51,32
999,017	52,11
999,394	52,31
999,771	51,73
1000,148	51,93
1000,524	51,83
1000,901	51,96
1001,277	52,42
1001,654	52,25
1002,03	52,06
1002,406	52,58
1002,783	52,64
1003,159	51,99
1003,535	52,07
1003,911	52,11
1004,286	52,44
1004,662	52,49
1005,038	52,41
1005,414	52,08
1005,789	52,14
1006,164	52,01
1006,54	52,29
1006,915	52,42
1007,29	52,26
1007,665	52,02
1008,04	52,62
1008,415	51,92
1008,79	52,42
1009,165	52,05
1009,54	52,59
1009,914	53,12
1010,289	52,27
1010,663	52,9
1011,038	52,75
1011,412	52,66
1011,786	52,93
1012,16	52,72
1012,535	53,05
1012,909	53,08
1013,282	52,91
1013,656	52,43
1014,03	52,25
1014,404	52,52
1014,777	52,93
1015,151	52,77
1015,524	53,26
1015,897	52,55
1016,271	53,07
1016,644	53,61
1017,017	53,25
1017,39	52,72
1017,763	52,67
1018,136	52,71
1018,508	52,54
1018,881	53,13
1019,254	52,61
1019,626	52,8
1019,999	52,6
1020,371	52,78
1020,743	53,03
1021,116	52,93
1021,488	52,9
1021,86	53,16
1022,232	53,28
1022,604	52,64
1022,975	53,29
1023,347	53,01
1023,719	53,23
1024,09	53,57
1024,462	53,5
1024,833	52,92
1025,204	53,73
1025,576	53,7
1025,947	53,33
1026,318	53,85
1026,689	53,27
1027,06	53,66
1027,431	53,27
1027,801	53,53
1028,172	53,52
1028,543	53,33
1028,913	53,53
1029,284	53,83
1029,654	53,7
1030,024	53,58
1030,394	53,6
1030,764	53,71
1031,135	53,02
1031,504	53,43
1031,874	53,97
1032,244	53,51
1032,614	53,41
1032,983	54,22
1033,353	53,17
1033,722	53,57
1034,092	53,4
1034,461	53,61
1034,83	53,81
1035,2	54,18
1035,569	54,38
1035,938	53,48
1036,307	55,2
1036,675	54,32
1037,044	53,8
1037,413	54,28
1037,781	54,38
1038,15	54,33
1038,518	54,39
1038,887	54,4
1039,255	54,59
1039,623	53,97
1039,991	54,17
1040,359	54,02
1040,727	54,32
1041,095	54,25
1041,463	54,27
1041,831	53,64
1042,198	54,05
1042,566	54,01
1042,933	53,62
1043,301	54,44
1043,668	53,56
1044,035	54,09
1044,402	54,84
1044,77	54,72
1045,137	54,31
1045,503	54,07
1045,87	54,42
1046,237	55,06
1046,604	55,28
1046,97	54,69
1047,337	55,27
1047,703	55,23
1048,07	54,71
1048,436	55,37
1048,802	54,78
1049,168	55,42
1049,534	55,11
1049,9	55,29
1050,266	54,96
1050,632	55,55
1050,998	55,79
1051,364	54,81
1051,729	54,96
1052,095	55,22
1052,46	55,75
1052,825	54,66
1053,191	54,74
1053,556	55,18
1053,921	55,56
1054,286	54,57
1054,651	55,05
1055,016	55,09
1055,381	55,39
1055,745	55,71
1056,11	55,23
1056,475	55,45
1056,839	56,53
1057,203	55,61
1057,568	55,24
1057,932	56,23
1058,296	56,32
1058,66	56,23
1059,024	55,83
1059,388	55,92
1059,752	55,41
1060,116	56,11
1060,48	56,37
1060,843	57,01
1061,207	55,98
1061,57	57,83
1061,934	56,92
1062,297	54,5
1062,66	55,49
1063,023	56,32
1063,386	55,92
1063,749	56,66
1064,112	56,67
1064,475	56,87
1064,838	56,08
1065,201	55,57
1065,563	55,97
1065,926	55,69
1066,288	55
1066,651	56,31
1067,013	55,93
1067,375	56,16
1067,737	56,63
1068,099	56,08
1068,461	56,09
1068,823	56,37
1069,185	56,89
1069,547	56,36
1069,909	56,21
1070,27	56,67
1070,632	56,25
1070,993	55,91
1071,355	56,14
1071,716	55,86
1072,077	56,69
1072,438	56,8
1072,799	56,19
1073,16	57,4
1073,521	57,2
1073,882	57,63
1074,243	57,3
1074,603	57,31
1074,964	55,89
1075,325	56,91
1075,685	56,97
1076,045	58,06
1076,406	56,55
1076,766	56,66
1077,126	56,15
1077,486	56,81
1077,846	56,55
1078,206	56,67
1078,566	56,77
1078,925	56,9
1079,285	57,05
1079,645	56,86
1080,004	57,69
1080,364	57,83
1080,723	58,54
1081,082	55,54
1081,442	58,03
1081,801	56,94
1082,16	57,35
1082,519	56,94
1082,878	57,07
1083,237	56,51
1083,595	57,5
1083,954	57,6
1084,313	56,67
1084,671	58,34
1085,03	57,86
1085,388	57,17
1085,746	59,25
1086,104	56,32
1086,463	57,07
1086,821	58,54
1087,179	57,2
1087,537	57,38
1087,894	57,15
1088,252	58,22
1088,61	58,91
1088,967	56,98
1089,325	59,09
1089,682	58,73
1090,04	58,34
1090,397	57,77
1090,754	58,24
1091,111	58,87
1091,469	58,8
1091,826	56,96
1092,182	57,91
1092,539	58,13
1092,896	56,78
1093,253	57,88
1093,609	57,16
1093,966	58,16
1094,322	58,73
1094,679	57,33
1095,035	58,14
1095,391	59,32
1095,748	59,54
1096,104	58,36
1096,46	58,56
1096,816	59,04
1097,171	59,02
1097,527	59,55
1097,883	59,61
1098,239	60,46
1098,594	60
1098,95	59,76
1099,305	58,69
1099,66	61,45
1100,016	60,7
1100,371	60,08
1100,726	58,96
1101,081	59,85
1101,436	58,96
1101,791	62,11
1102,146	60,04
1102,5	59,07
1102,855	60,2
1103,21	61,43
1103,564	61,81
1103,918	60,41
1104,273	61,21
1104,627	60,55
1104,981	62,25
1105,335	60,55
1105,69	60,1
1106,043	59,2
1106,397	60,6
1106,751	62,23
1107,105	60,06
1107,459	59,41
1107,812	61,63
1108,166	62,54
1108,519	60,72
1108,873	62,92
1109,226	60,47
1109,579	62,84
1109,932	60,9
1110,285	59,52
1110,638	63,44
1110,991	59,99
1111,344	59,15
1111,697	60,7
1112,05	60,34
1112,402	61,89
1112,755	60,35
1113,107	63,64
1113,46	63,71
1113,812	61,45
1114,164	65,49
1114,517	63,13
1114,869	119,96
1115,221	118,91
1115,573	116,97
1115,924	113,16
