Data from A_2__Relative__4__00004.txt Node

Date: Mon Jan 29 17:59:54 CET 2024
User: diatiterra
Spectrometer: HDX00911
Trigger mode: 0
Integration Time (sec): 6,000000E-3
Scans to average: 2
Nonlinearity correction enabled: false
Boxcar width: 0
Storing dark spectrum: false
XAxis mode: Wavelengths
Number of Pixels in Spectrum: 2068
>>>>>Begin Spectral Data<<<<<
194,468	43,14
195,025	36,28
195,581	39,36
196,138	26,15
196,694	29,31
197,251	27,56
197,807	26
198,363	26,18
198,919	22,78
199,474	18,93
200,03	21,69
200,586	27,89
201,141	24,34
201,696	16,26
202,251	26,2
202,806	25,19
203,361	22,81
203,916	27,4
204,471	28,87
205,025	20,71
205,58	16,49
206,134	26,3
206,688	19,2
207,242	26,87
207,796	24,75
208,35	20,58
208,904	18,64
209,457	23,47
210,011	26,57
210,564	24,31
211,117	19,72
211,67	26,76
212,223	17,12
212,776	23,6
213,329	21,99
213,881	15,71
214,434	26,9
214,986	19,87
215,538	21,25
216,09	21,97
216,642	30,74
217,194	27,15
217,746	25,59
218,297	22,15
218,849	19
219,4	27,27
219,951	32,36
220,502	18,47
221,053	21,63
221,604	22,82
222,155	17,7
222,705	23,75
223,256	22,3
223,806	24,49
224,356	29,35
224,906	18,52
225,456	18,97
226,006	22,82
226,556	24,82
227,106	13,64
227,655	14,98
228,204	23,68
228,754	21,03
229,303	22,37
229,852	27,78
230,401	25,81
230,949	32,68
231,498	25,37
232,047	20,2
232,595	27,3
233,143	32,2
233,691	28,4
234,239	22,01
234,787	19,23
235,335	23,13
235,883	22,58
236,43	30,37
236,978	20
237,525	21,64
238,072	23,62
238,619	16,78
239,166	24,92
239,713	27,88
240,26	28,46
240,806	21,28
241,353	29,33
241,899	24,92
242,445	33,57
242,991	29,62
243,537	22,77
244,083	24,36
244,629	23,99
245,174	25
245,72	22,07
246,265	24,38
246,81	25,91
247,355	21,69
247,9	31,49
248,445	31,03
248,99	21,45
249,534	23,42
250,079	32,46
250,623	24,41
251,168	24,16
251,712	26,6
252,256	24,92
252,8	29,86
253,343	27,71
253,887	27,21
254,43	32,34
254,974	24,48
255,517	28,52
256,06	19,86
256,603	29,81
257,146	24,92
257,689	25
258,232	26,44
258,774	23,99
259,317	27,84
259,859	23,62
260,401	30,68
260,943	23,13
261,485	21,28
262,027	23,79
262,569	14,66
263,11	23,47
263,652	29,04
264,193	25,71
264,734	23,02
265,275	23,29
265,816	24,46
266,357	23,74
266,898	21,84
267,438	14,51
267,979	31,27
268,519	25,63
269,059	24,47
269,6	29,12
270,14	19,47
270,68	26,05
271,219	23,16
271,759	26,87
272,298	19,27
272,838	22,09
273,377	19,26
273,916	22,02
274,455	22,99
274,994	21,58
275,533	23,21
276,072	16,54
276,61	26,96
277,149	14,86
277,687	28,83
278,225	21,58
278,763	28,26
279,301	28,3
279,839	21,01
280,377	21,53
280,914	14,65
281,452	28,46
281,989	30,38
282,526	24,37
283,064	21,18
283,601	29,17
284,137	17,15
284,674	27,17
285,211	17,27
285,747	22,37
286,284	22,46
286,82	19,5
287,356	24,74
287,892	24,21
288,428	27,46
288,964	25,99
289,5	28,23
290,035	24,46
290,571	24,25
291,106	22,91
291,641	27,2
292,176	25,56
292,711	23,45
293,246	19,13
293,781	20,82
294,315	16,91
294,85	24,82
295,384	29,63
295,918	27,87
296,453	22,97
296,987	25,52
297,52	22,6
298,054	20,22
298,588	29,53
299,121	20,88
299,655	23,16
300,188	25,48
300,721	28,97
301,254	33,45
301,787	27,24
302,32	31,44
302,853	27,87
303,385	21,98
303,918	27,37
304,45	30,5
304,982	22,71
305,514	22,14
306,046	22,46
306,578	22,86
307,11	26,02
307,641	25,09
308,173	19,7
308,704	27,2
309,236	27,34
309,767	23,33
310,298	24,74
310,829	27
311,359	27,76
311,89	31,67
312,421	23,91
312,951	17,82
313,481	21,29
314,012	24,91
314,542	20,89
315,072	22,18
315,601	23,13
316,131	23,36
316,661	26,67
317,19	23,49
317,72	24,91
318,249	24,66
318,778	26,62
319,307	21,96
319,836	28,86
320,365	28,99
320,893	25,18
321,422	19,4
321,95	18,15
322,479	23,53
323,007	22,46
323,535	29,43
324,063	36,57
324,591	21
325,118	17,83
325,646	25
326,173	26,07
326,701	22,55
327,228	24,92
327,755	24,73
328,282	24,15
328,809	18,89
329,336	23,53
329,862	24,62
330,389	21,5
330,915	17,02
331,441	18,64
331,968	19,24
332,494	22,41
333,02	20,07
333,545	16,97
334,071	23
334,597	18,92
335,122	19,06
335,648	20,88
336,173	18,81
336,698	22,26
337,223	20,82
337,748	14,74
338,272	17,82
338,797	23,62
339,322	21,93
339,846	17,19
340,37	15,75
340,894	24,32
341,419	21,48
341,942	10,74
342,466	13,65
342,99	14,77
343,514	16,56
344,037	16,39
344,56	15,36
345,084	16,4
345,607	15,81
346,13	15,08
346,653	13,84
347,175	18,71
347,698	16,37
348,221	11,34
348,743	18,66
349,265	15,77
349,787	19,43
350,309	13,77
350,831	10,45
351,353	23,02
351,875	14,33
352,397	15,43
352,918	14,69
353,439	11,92
353,961	14,37
354,482	21,35
355,003	13,67
355,524	19,9
356,044	16,09
356,565	14,71
357,086	6,62
357,606	16,87
358,126	15,57
358,646	10,45
359,167	15,72
359,687	17,45
360,206	15,66
360,726	9,41
361,246	13,25
361,765	14,69
362,285	16,35
362,804	10,44
363,323	10,32
363,842	16,9
364,361	16,02
364,88	16,67
365,398	10,6
365,917	15,81
366,435	14,81
366,954	10,42
367,472	15,14
367,99	13,14
368,508	15,62
369,026	11,43
369,544	9,27
370,061	15,99
370,579	13,13
371,096	11,68
371,613	13,03
372,131	14,08
372,648	14,44
373,165	16,46
373,681	11,38
374,198	11,48
374,715	13,37
375,231	11,76
375,747	17,02
376,264	10,86
376,78	15,47
377,296	10,6
377,812	9,79
378,327	8,3
378,843	13,15
379,359	10,87
379,874	12,3
380,389	13,62
380,905	11,27
381,42	10,57
381,935	11,73
382,449	13,98
382,964	14,62
383,479	8,94
383,993	10,46
384,508	11,01
385,022	10,74
385,536	10,18
386,05	9,49
386,564	10,39
387,078	8,38
387,592	10,73
388,105	9,54
388,619	11,8
389,132	10,46
389,645	10,24
390,158	10,5
390,671	11,15
391,184	8,42
391,697	7,7
392,21	9,41
392,722	8,44
393,235	9,9
393,747	9,07
394,259	10,39
394,771	8,09
395,283	7,32
395,795	9,01
396,307	7,75
396,818	9,61
397,33	6,88
397,841	8,5
398,353	6,92
398,864	8,24
399,375	7,49
399,886	6,48
400,397	7,88
400,907	7,6
401,418	5,88
401,928	6,61
402,439	6,45
402,949	7,18
403,459	5,92
403,969	6,28
404,479	6,45
404,989	4,98
405,498	6,27
406,008	5,13
406,517	5,21
407,027	4,98
407,536	4,58
408,045	4,78
408,554	4,2
409,063	3,98
409,572	3,84
410,08	4,13
410,589	3,99
411,097	3,07
411,606	4,04
412,114	3,83
412,622	4,55
413,13	3,69
413,638	3,34
414,145	2,8
414,653	3,04
415,16	2,91
415,668	2,82
416,175	3,43
416,682	2,85
417,189	3,11
417,696	2,91
418,203	2,95
418,71	2,63
419,216	2,51
419,723	2,86
420,229	2,69
420,735	2,4
421,242	2,69
421,748	2,82
422,254	2,72
422,759	2,42
423,265	2,5
423,771	2,26
424,276	2,64
424,781	2,15
425,287	2,38
425,792	2,36
426,297	2,66
426,802	2,43
427,306	2,48
427,811	2,15
428,316	2,57
428,82	2,25
429,324	2,22
429,829	2,54
430,333	2,29
430,837	2,25
431,34	1,98
431,844	2,01
432,348	2,06
432,851	2,13
433,355	2,06
433,858	1,85
434,361	1,96
434,864	2,04
435,367	2,01
435,87	1,96
436,373	2,03
436,876	1,68
437,378	1,83
437,88	2,12
438,383	1,82
438,885	2,12
439,387	1,96
439,889	1,84
440,391	2,29
440,892	1,96
441,394	1,98
441,896	2,17
442,397	1,94
442,898	2,26
443,399	2,16
443,9	2,02
444,401	2,1
444,902	2,04
445,403	2,06
445,903	1,93
446,404	2,11
446,904	2,04
447,405	2,09
447,905	2,03
448,405	2,32
448,905	2,02
449,404	2,24
449,904	2,19
450,404	1,93
450,903	2,1
451,403	2,15
451,902	2,19
452,401	2,39
452,9	2,15
453,399	2,2
453,898	2,2
454,396	2,11
454,895	2,36
455,393	2,03
455,892	2,08
456,39	2,41
456,888	2,1
457,386	2,03
457,884	2,1
458,382	2,1
458,879	2,24
459,377	2,01
459,874	2,14
460,372	2,05
460,869	2,25
461,366	2,14
461,863	2,13
462,36	2,27
462,857	2,17
463,353	2,3
463,85	2,14
464,346	2,33
464,843	2,11
465,339	2,13
465,835	2,26
466,331	2,15
466,827	2,18
467,323	2,09
467,818	2,09
468,314	2,44
468,809	2
469,305	2,05
469,8	2,08
470,295	2,16
470,79	2,26
471,285	2,01
471,78	2,14
472,274	2,17
472,769	2,16
473,263	1,95
473,758	2,3
474,252	2,08
474,746	2,54
475,24	2,1
475,734	2,18
476,228	2,27
476,721	2,17
477,215	2,16
477,708	2,24
478,202	2,24
478,695	2,25
479,188	2,11
479,681	2,18
480,174	2,26
480,667	2,43
481,159	2,16
481,652	2,26
482,144	2,12
482,637	2,24
483,129	2,38
483,621	2,28
484,113	2,32
484,605	2,36
485,097	2,23
485,588	2,31
486,08	2,33
486,571	2,6
487,063	2,32
487,554	2,39
488,045	2,37
488,536	2,47
489,027	2,48
489,518	2,44
490,008	2,58
490,499	2,49
490,989	2,57
491,48	2,57
491,97	2,73
492,46	2,66
492,95	2,83
493,44	2,68
493,93	2,73
494,419	2,69
494,909	2,82
495,398	2,55
495,888	2,83
496,377	2,98
496,866	3
497,355	3,13
497,844	2,94
498,333	3,12
498,821	3,1
499,31	3,23
499,798	3,43
500,287	3,43
500,775	3,36
501,263	3,35
501,751	3,61
502,239	3,77
502,727	3,82
503,215	3,77
503,702	3,83
504,19	4,1
504,677	4,06
505,164	4,09
505,651	4,24
506,139	4,48
506,625	4,61
507,112	4,66
507,599	4,65
508,086	5,01
508,572	5,24
509,058	5,08
509,545	5,37
510,031	5,46
510,517	5,59
511,003	5,86
511,489	6
511,974	6,11
512,46	6,27
512,946	6,42
513,431	6,5
513,916	6,61
514,401	7,03
514,887	7,18
515,371	7,25
515,856	7,55
516,341	7,72
516,826	8,06
517,31	8,1
517,795	8,54
518,279	8,36
518,763	8,72
519,247	8,95
519,731	9,1
520,215	9,26
520,699	9,55
521,182	9,44
521,666	9,92
522,149	10,12
522,633	10,26
523,116	10,97
523,599	11
524,082	11,04
524,565	11,16
525,048	11,24
525,53	11,52
526,013	11,62
526,495	11,94
526,978	12,02
527,46	12,42
527,942	12,36
528,424	12,44
528,906	12,91
529,388	12,72
529,87	13,11
530,351	12,96
530,833	13,26
531,314	13,38
531,795	13,71
532,277	13,59
532,758	13,32
533,238	13,67
533,719	14,01
534,2	13,99
534,681	13,97
535,161	14,14
535,642	14,07
536,122	14,04
536,602	14,2
537,082	14,38
537,562	14,63
538,042	14,19
538,522	14,23
539,001	14,54
539,481	14,49
539,96	14,56
540,44	14,73
540,919	14,68
541,398	14,61
541,877	14,62
542,356	14,7
542,835	14,62
543,313	14,57
543,792	14,76
544,27	14,87
544,749	14,64
545,227	14,91
545,705	14,62
546,183	15,08
546,661	15
547,139	14,95
547,616	15,04
548,094	15,11
548,571	15,22
549,049	15,19
549,526	15,24
550,003	15,17
550,48	15,09
550,957	15,37
551,434	15,02
551,911	15,39
552,387	15,02
552,864	15,32
553,34	15,23
553,817	15,29
554,293	15,12
554,769	15,04
555,245	15,32
555,721	15,38
556,197	15,35
556,672	15,05
557,148	15,09
557,623	14,95
558,099	15,14
558,574	15,21
559,049	15,1
559,524	15
559,999	15,2
560,474	15
560,948	14,73
561,423	14,88
561,897	14,88
562,372	14,76
562,846	14,75
563,32	14,61
563,794	14,43
564,268	14,15
564,742	14,32
565,216	14,2
565,69	14,34
566,163	14,19
566,636	14,17
567,11	13,78
567,583	13,68
568,056	13,79
568,529	13,52
569,002	13,57
569,475	13,34
569,947	13,31
570,42	13,44
570,892	12,91
571,365	12,88
571,837	12,86
572,309	12,75
572,781	12,64
573,253	12,48
573,725	12,29
574,197	12,4
574,668	12,13
575,14	12,15
575,611	11,79
576,082	11,8
576,554	11,69
577,025	11,76
577,496	11,53
577,967	11,55
578,437	11,43
578,908	10,97
579,379	11,05
579,849	11,21
580,319	10,95
580,79	10,88
581,26	10,92
581,73	10,81
582,2	10,58
582,669	10,76
583,139	10,73
583,609	10,39
584,078	10,5
584,548	10,41
585,017	10,28
585,486	10,23
585,955	10,09
586,424	10,23
586,893	10,18
587,362	10,09
587,83	10,03
588,299	9,75
588,767	9,89
589,236	9,91
589,704	9,74
590,172	9,8
590,64	9,68
591,108	9,64
591,576	9,63
592,043	9,56
592,511	9,64
592,978	9,63
593,446	9,43
593,913	9,39
594,38	9,59
594,847	9,38
595,314	9,46
595,781	9,33
596,248	9,3
596,715	9,22
597,181	9,25
597,647	9,18
598,114	9,18
598,58	9,19
599,046	9,15
599,512	9,13
599,978	9,18
600,444	9,19
600,91	9,1
601,375	9,05
601,841	9,1
602,306	9,09
602,771	9,04
603,236	9,06
603,702	8,89
604,167	8,85
604,631	8,75
605,096	8,76
605,561	8,78
606,025	8,53
606,49	8,57
606,954	8,54
607,418	8,74
607,882	8,54
608,347	8,36
608,81	8,31
609,274	8,32
609,738	8,23
610,202	8,26
610,665	8,17
611,128	8,15
611,592	8,18
612,055	7,99
612,518	7,82
612,981	7,78
613,444	7,78
613,907	7,71
614,369	7,58
614,832	7,54
615,294	7,58
615,757	7,55
616,219	7,49
616,681	7,26
617,143	7,32
617,605	7,25
618,067	7,18
618,529	7,07
618,99	7,15
619,452	7,16
619,913	7,12
620,375	6,95
620,836	6,8
621,297	6,86
621,758	6,92
622,219	6,93
622,68	6,77
623,14	6,84
623,601	6,8
624,061	6,82
624,522	6,76
624,982	6,72
625,442	6,7
625,902	6,6
626,362	6,65
626,822	6,69
627,282	6,54
627,742	6,61
628,201	6,67
628,661	6,53
629,12	6,59
629,579	6,51
630,038	6,6
630,497	6,56
630,956	6,48
631,415	6,61
631,874	6,5
632,332	6,54
632,791	6,41
633,249	6,36
633,708	6,39
634,166	6,36
634,624	6,37
635,082	6,18
635,54	6,23
635,998	6,16
636,455	6,12
636,913	6,1
637,37	5,93
637,828	6,07
638,285	5,94
638,742	5,92
639,199	5,74
639,656	5,74
640,113	5,59
640,57	5,52
641,027	5,45
641,483	5,44
641,94	5,32
642,396	5,24
642,852	5,1
643,309	5,03
643,765	4,94
644,221	4,84
644,676	4,84
645,132	4,79
645,588	4,72
646,043	4,66
646,499	4,57
646,954	4,44
647,409	4,41
647,864	4,35
648,319	4,24
648,774	4,23
649,229	4,15
649,684	4,08
650,139	4,06
650,593	4,05
651,047	3,99
651,502	4,12
651,956	3,84
652,41	3,94
652,864	3,93
653,318	3,94
653,772	3,79
654,225	3,84
654,679	3,76
655,133	3,77
655,586	3,72
656,039	3,7
656,492	3,63
656,946	3,56
657,399	3,57
657,851	3,54
658,304	3,48
658,757	3,46
659,209	3,42
659,662	3,33
660,114	3,28
660,567	3,25
661,019	3,19
661,471	3,22
661,923	3,11
662,375	3,14
662,826	3,09
663,278	3,06
663,73	3
664,181	2,99
664,632	2,92
665,084	2,92
665,535	2,86
665,986	2,85
666,437	2,86
666,888	2,8
667,338	2,86
667,789	2,82
668,24	2,8
668,69	2,85
669,14	2,81
669,591	2,79
670,041	2,79
670,491	2,82
670,941	2,9
671,391	2,9
671,84	2,9
672,29	2,91
672,74	3,01
673,189	3
673,638	2,97
674,088	3,11
674,537	3,17
674,986	3,15
675,435	3,25
675,883	3,38
676,332	3,35
676,781	3,49
677,229	3,48
677,678	3,48
678,126	3,62
678,574	3,64
679,022	3,79
679,47	3,8
679,918	3,96
680,366	3,99
680,814	4,07
681,261	4,06
681,709	4,26
682,156	4,33
682,604	4,37
683,051	4,47
683,498	4,57
683,945	4,63
684,392	4,83
684,839	4,83
685,286	4,93
685,732	5,06
686,179	5,14
686,625	5,23
687,071	5,27
687,518	5,46
687,964	5,63
688,41	5,76
688,856	5,97
689,301	6,21
689,747	6,27
690,193	6,48
690,638	6,77
691,084	7,01
691,529	7,22
691,974	7,62
692,419	7,76
692,864	8,1
693,309	8,51
693,754	8,73
694,199	9,21
694,643	9,45
695,088	9,81
695,532	10,13
695,977	10,51
696,421	10,91
696,865	11,12
697,309	11,76
697,753	12,03
698,197	12,32
698,64	12,76
699,084	12,98
699,527	13,39
699,971	13,7
700,414	14,14
700,857	14,27
701,3	14,69
701,743	15,22
702,186	15,48
702,629	15,92
703,072	15,97
703,515	16,37
703,957	16,8
704,399	16,99
704,842	17,23
705,284	17,81
705,726	17,92
706,168	18,09
706,61	18,31
707,052	18,76
707,494	18,93
707,935	19,15
708,377	19,39
708,818	19,68
709,26	20,05
709,701	20,18
710,142	20,61
710,583	20,66
711,024	20,84
711,465	20,95
711,905	21,42
712,346	21,29
712,787	21,87
713,227	22,27
713,667	22,27
714,108	22,48
714,548	22,67
714,988	22,95
715,428	22,88
715,868	23,18
716,307	23,3
716,747	23,7
717,186	23,82
717,626	23,97
718,065	24,1
718,504	24,27
718,944	24,6
719,383	24,82
719,822	24,98
720,261	24,83
720,699	25,2
721,138	25,32
721,576	25,49
722,015	25,57
722,453	25,59
722,892	25,98
723,33	26,01
723,768	26,08
724,206	26,32
724,644	26,52
725,081	26,38
725,519	26,69
725,957	26,51
726,394	26,97
726,832	26,7
727,269	27,04
727,706	27,36
728,143	27,25
728,58	27,2
729,017	27,25
729,454	27,43
729,89	27,32
730,327	27,55
730,764	27,61
731,2	27,66
731,636	27,54
732,072	27,7
732,509	27,9
732,945	28,03
733,38	27,93
733,816	28,13
734,252	27,93
734,688	28,06
735,123	28,11
735,559	28,14
735,994	28,3
736,429	28,27
736,864	28,24
737,299	28,17
737,734	28,5
738,169	28,44
738,604	28,49
739,038	28,33
739,473	28,59
739,907	28,4
740,342	28,52
740,776	28,47
741,21	28,63
741,644	28,51
742,078	28,73
742,512	28,63
742,946	28,37
743,379	28,55
743,813	28,45
744,246	28,75
744,68	28,68
745,113	28,47
745,546	28,71
745,979	28,47
746,412	28,38
746,845	28,49
747,278	28,47
747,711	28,56
748,143	28,44
748,576	28,55
749,008	28,48
749,441	28,45
749,873	28,26
750,305	28,12
750,737	28,25
751,169	28,35
751,601	28,33
752,032	28,21
752,464	28,32
752,896	28,21
753,327	28,4
753,758	28,08
754,19	28,17
754,621	28,2
755,052	28,24
755,483	27,91
755,914	28,15
756,344	28,09
756,775	28,09
757,206	28,29
757,636	28,07
758,066	28,06
758,497	28
758,927	27,79
759,357	28,04
759,787	27,9
760,217	27,85
760,647	27,85
761,076	27,91
761,506	27,89
761,935	27,94
762,365	27,78
762,794	27,68
763,223	27,78
763,653	27,78
764,082	27,62
764,51	27,58
764,939	27,52
765,368	27,54
765,797	27,62
766,225	27,6
766,654	27,61
767,082	27,9
767,51	27,68
767,938	27,73
768,367	27,44
768,795	27,34
769,222	27,62
769,65	27,62
770,078	27,47
770,505	27,63
770,933	27,5
771,36	27,23
771,788	27,31
772,215	27,53
772,642	27,52
773,069	27,2
773,496	27,4
773,923	27,48
774,349	27,39
774,776	27,43
775,203	27,29
775,629	27,52
776,055	27,1
776,482	27,45
776,908	27,12
777,334	27,29
777,76	27,41
778,186	27,12
778,611	27,28
779,037	27,32
779,463	27,06
779,888	27,25
780,314	27,18
780,739	27,14
781,164	27,1
781,589	27,16
782,014	27,44
782,439	27,11
782,864	26,97
783,289	26,97
783,713	26,99
784,138	27,17
784,562	27,08
784,987	27,16
785,411	26,99
785,835	27,12
786,259	26,99
786,683	27,05
787,107	27,06
787,531	26,9
787,954	27,09
788,378	26,89
788,802	27,12
789,225	26,93
789,648	27,1
790,071	27,04
790,495	27,07
790,918	26,97
791,34	27,04
791,763	27,02
792,186	27,08
792,609	26,98
793,031	27,02
793,454	27,01
793,876	26,97
794,298	27
794,721	27,02
795,143	26,99
795,565	26,88
795,986	27
796,408	27,05
796,83	27,07
797,252	26,63
797,673	26,94
798,094	27,12
798,516	26,96
798,937	26,87
799,358	26,85
799,779	26,83
800,2	26,8
800,621	26,77
801,042	26,94
801,462	26,95
801,883	27,09
802,303	26,76
802,724	26,79
803,144	26,98
803,564	26,97
803,984	26,82
804,404	26,9
804,824	26,87
805,244	26,63
805,664	26,87
806,084	26,93
806,503	26,52
806,923	26,7
807,342	26,83
807,761	26,67
808,18	26,87
808,599	26,66
809,018	26,8
809,437	26,64
809,856	26,66
810,275	26,9
810,693	26,87
811,112	26,9
811,53	26,85
811,949	26,87
812,367	26,75
812,785	26,79
813,203	26,59
813,621	26,78
814,039	26,79
814,457	26,84
814,874	26,71
815,292	26,84
815,709	26,86
816,127	26,59
816,544	26,97
816,961	26,77
817,378	26,87
817,795	26,66
818,212	27,02
818,629	26,7
819,046	26,91
819,462	26,78
819,879	26,87
820,295	26,75
820,712	26,68
821,128	26,73
821,544	26,71
821,96	26,94
822,376	26,73
822,792	26,7
823,208	26,49
823,624	26,57
824,039	26,68
824,455	26,89
824,87	26,87
825,286	26,7
825,701	26,63
826,116	26,69
826,531	26,73
826,946	26,67
827,361	26,77
827,776	26,83
828,19	26,56
828,605	26,72
829,02	26,59
829,434	26,54
829,848	26,76
830,263	26,55
830,677	26,19
831,091	26,8
831,505	26,64
831,919	26,84
832,332	26,48
832,746	26,69
833,16	26,57
833,573	26,54
833,987	26,59
834,4	26,57
834,813	26,85
835,226	26,46
835,639	26,53
836,052	26,66
836,465	26,68
836,878	26,4
837,29	26,69
837,703	26,53
838,116	26,51
838,528	26,35
838,94	26,5
839,352	26,71
839,765	26,53
840,177	26,72
840,589	26,56
841	26,44
841,412	26,61
841,824	26,47
842,235	26,83
842,647	26,46
843,058	26,47
843,47	26,55
843,881	26,47
844,292	26,37
844,703	26,47
845,114	26,5
845,525	26,83
845,935	26,59
846,346	26,39
846,757	26,46
847,167	26,5
847,577	26,58
847,988	26,39
848,398	26,7
848,808	26,16
849,218	26,77
849,628	26,54
850,038	26,34
850,448	26,68
850,857	26,38
851,267	26,37
851,676	26,59
852,086	26,48
852,495	26,38
852,904	26,45
853,313	26,51
853,722	26,55
854,131	26,67
854,54	26,37
854,949	26,48
855,357	26,32
855,766	26,48
856,174	26,3
856,583	26,48
856,991	26,28
857,399	26,29
857,807	26,28
858,215	26,48
858,623	26,32
859,031	26,4
859,439	26,37
859,846	26,28
860,254	26,55
860,661	26,51
861,069	26,29
861,476	26,36
861,883	26,33
862,29	26,31
862,697	26,43
863,104	26,32
863,511	26,46
863,918	26,51
864,325	26,29
864,731	26,38
865,138	26,37
865,544	26,59
865,95	26,51
866,357	26,54
866,763	26,38
867,169	26,33
867,575	26,47
867,98	26,18
868,386	26,31
868,792	26,43
869,197	26,36
869,603	26,28
870,008	26,17
870,414	26,1
870,819	26,7
871,224	26,43
871,629	26,35
872,034	26,21
872,439	26,41
872,844	26,41
873,248	26,27
873,653	26,15
874,057	26,52
874,462	26,33
874,866	26,42
875,27	26,31
875,674	26,35
876,078	26,29
876,482	26,43
876,886	26,2
877,29	26,33
877,694	26,25
878,097	26,41
878,501	26,31
878,904	26,35
879,308	26,6
879,711	26,54
880,114	26,24
880,517	26,19
880,92	26,31
881,323	26,46
881,726	26,47
882,128	26,51
882,531	26,27
882,934	26,59
883,336	26,23
883,738	26,44
884,141	26,3
884,543	26,24
884,945	26,53
885,347	26,46
885,749	26,26
886,151	26,26
886,552	26,23
886,954	26,5
887,355	26,46
887,757	26,43
888,158	26,4
888,56	26,44
888,961	26,48
889,362	26,37
889,763	26,25
890,164	26,42
890,565	26,37
890,965	26,34
891,366	26,1
891,767	26,34
892,167	26,35
892,567	26,3
892,968	26,37
893,368	26,37
893,768	26,57
894,168	26,3
894,568	26,46
894,968	26,29
895,368	26,18
895,767	26,25
896,167	26,41
896,566	26,23
896,966	26,47
897,365	26,2
897,764	26,42
898,164	26,43
898,563	26,06
898,962	26,21
899,361	26,2
899,759	26,25
900,158	26,23
900,557	26,49
900,955	26,42
901,354	26,39
901,752	26,24
902,15	26,45
902,548	26,43
902,947	26,37
903,345	26,42
903,742	26,37
904,14	26,4
904,538	26,43
904,936	26,31
905,333	26,05
905,731	26,32
906,128	26,19
906,525	26,51
906,923	26,26
907,32	26,31
907,717	26,25
908,114	26,47
908,511	26,17
908,907	26,11
909,304	26,39
909,701	26,11
910,097	26,51
910,494	26,18
910,89	26,33
911,286	26,36
911,682	26,18
912,078	26,48
912,474	26,19
912,87	26,21
913,266	26,53
913,662	26,21
914,058	26,23
914,453	26,45
914,849	26,31
915,244	26,17
915,639	26,15
916,034	26,37
916,43	26,45
916,825	26,49
917,22	26,25
917,614	26,53
918,009	26,42
918,404	26,24
918,798	26,37
919,193	26,49
919,587	26,33
919,982	26,01
920,376	26,39
920,77	26,33
921,164	26,39
921,558	26,53
921,952	26,2
922,346	26,18
922,74	26,06
923,133	26,38
923,527	26,36
923,92	26,1
924,314	26,33
924,707	26,04
925,1	26,25
925,493	26,14
925,886	26,11
926,279	26,32
926,672	26,22
927,065	25,88
927,457	26,5
927,85	26,4
928,243	26,12
928,635	26,08
929,027	26,18
929,42	26,1
929,812	26,05
930,204	26,43
930,596	25,92
930,988	26,07
931,379	26,07
931,771	25,97
932,163	26,13
932,554	26,15
932,946	26,06
933,337	26,01
933,729	26,45
934,12	26,15
934,511	26,29
934,902	26,03
935,293	26,01
935,684	26,24
936,075	26,1
936,465	25,86
936,856	26,06
937,246	25,76
937,637	26,06
938,027	25,92
938,417	25,83
938,808	26,17
939,198	26,16
939,588	25,54
939,978	26,37
940,368	25,5
940,757	25,95
941,147	26,04
941,537	26,02
941,926	25,54
942,315	25,6
942,705	25,96
943,094	25,74
943,483	25,96
943,872	26,21
944,261	25,95
944,65	25,57
945,039	25,73
945,428	26,06
945,816	26,07
946,205	26,11
946,593	25,92
946,982	26,09
947,37	25,87
947,758	25,37
948,146	26,01
948,534	25,89
948,922	25,8
949,31	26,18
949,698	25,49
950,086	25,58
950,473	25,27
950,861	25,67
951,248	25,78
951,636	25,62
952,023	25,27
952,41	25,55
952,797	25,69
953,184	25,75
953,571	25,36
953,958	25,7
954,345	25,15
954,731	25,54
955,118	25,56
955,505	25,35
955,891	25,37
956,277	25,24
956,664	25,55
957,05	25,29
957,436	25,39
957,822	25,36
958,208	25,22
958,594	25,21
958,979	25,19
959,365	25,09
959,751	25,51
960,136	25,14
960,522	25,72
960,907	25,32
961,292	25,41
961,677	25,27
962,062	25,44
962,447	25,14
962,832	25,63
963,217	25,42
963,602	25,39
963,986	25,2
964,371	25,43
964,756	25,16
965,14	25,24
965,524	25,35
965,908	25,36
966,293	25,35
966,677	25,32
967,061	25,14
967,445	25,07
967,828	24,76
968,212	25,21
968,596	25,2
968,979	25,39
969,363	25,4
969,746	25,45
970,129	25,13
970,513	25,3
970,896	25,37
971,279	25,35
971,662	24,92
972,045	25,5
972,428	25,31
972,81	25,6
973,193	25,13
973,575	25,27
973,958	25,33
974,34	25,25
974,723	25,18
975,105	24,91
975,487	25,18
975,869	25,31
976,251	25,27
976,633	25,25
977,015	25,23
977,396	25,6
977,778	25,47
978,16	25,53
978,541	25,24
978,922	25,56
979,304	25,26
979,685	25,45
980,066	25,35
980,447	25,54
980,828	25,42
981,209	25,37
981,59	25,44
981,97	25,52
982,351	25,07
982,732	25,5
983,112	25,52
983,493	25,44
983,873	25,54
984,253	25,24
984,633	25,45
985,013	25,55
985,393	25,59
985,773	25,31
986,153	25,3
986,533	25,53
986,912	25,07
987,292	25,19
987,671	25,09
988,051	25,6
988,43	25,19
988,809	25,23
989,188	25,63
989,567	25,79
989,946	25,73
990,325	25,09
990,704	25,26
991,083	25,31
991,461	25,3
991,84	25,56
992,218	25,49
992,597	25,26
992,975	25,78
993,353	25,53
993,732	25,61
994,11	25,87
994,488	25,23
994,866	25,75
995,243	25,66
995,621	25,22
995,999	25,27
996,376	25,71
996,754	25,2
997,131	25,84
997,509	25,51
997,886	25,47
998,263	25,4
998,64	25,43
999,017	25,53
999,394	25,89
999,771	25,39
1000,148	25,52
1000,524	25,49
1000,901	25,25
1001,277	25,9
1001,654	25,44
1002,03	25,31
1002,406	25,42
1002,783	25,25
1003,159	25,94
1003,535	25,32
1003,911	25,2
1004,286	25,37
1004,662	25,61
1005,038	25,64
1005,414	25,7
1005,789	25,28
1006,164	25,11
1006,54	25,58
1006,915	25,52
1007,29	25,73
1007,665	25,73
1008,04	25,69
1008,415	25,84
1008,79	25,78
1009,165	26,02
1009,54	25,27
1009,914	25,66
1010,289	25,72
1010,663	25,62
1011,038	25,56
1011,412	25,82
1011,786	25,27
1012,16	25,63
1012,535	25,84
1012,909	25,34
1013,282	25,87
1013,656	25,13
1014,03	25,84
1014,404	25,61
1014,777	26,06
1015,151	25,25
1015,524	26,03
1015,897	25,81
1016,271	25,52
1016,644	25,55
1017,017	25,7
1017,39	25,59
1017,763	25,53
1018,136	25,05
1018,508	26,2
1018,881	25,46
1019,254	25,73
1019,626	25,73
1019,999	25,41
1020,371	25,7
1020,743	25,41
1021,116	25,73
1021,488	25,69
1021,86	25,43
1022,232	25,93
1022,604	25,68
1022,975	25,6
1023,347	25,58
1023,719	25,99
1024,09	25,54
1024,462	25,31
1024,833	25,51
1025,204	25,78
1025,576	25,78
1025,947	25,47
1026,318	25,3
1026,689	25,53
1027,06	26,09
1027,431	25,31
1027,801	25,61
1028,172	25,57
1028,543	25,75
1028,913	25,42
1029,284	25,67
1029,654	25,28
1030,024	25,5
1030,394	25,68
1030,764	25,91
1031,135	25,55
1031,504	25,57
1031,874	25,79
1032,244	25,69
1032,614	25,77
1032,983	25,36
1033,353	25,7
1033,722	25,28
1034,092	25,8
1034,461	25,73
1034,83	25,68
1035,2	25,87
1035,569	25,58
1035,938	25,56
1036,307	26
1036,675	25,45
1037,044	25,86
1037,413	25,27
1037,781	25,96
1038,15	25,52
1038,518	25,43
1038,887	26,16
1039,255	25,75
1039,623	25,85
1039,991	25,8
1040,359	25,35
1040,727	25,17
1041,095	25,78
1041,463	26,07
1041,831	25,88
1042,198	26,02
1042,566	25,5
1042,933	25,88
1043,301	25,84
1043,668	25,5
1044,035	25,11
1044,402	26,33
1044,77	25,71
1045,137	25,66
1045,503	25,44
1045,87	26,52
1046,237	25,1
1046,604	25,8
1046,97	26,26
1047,337	25,87
1047,703	25,35
1048,07	25,84
1048,436	26,23
1048,802	26,25
1049,168	26,11
1049,534	25,6
1049,9	26,06
1050,266	25,83
1050,632	25,41
1050,998	26,29
1051,364	26,2
1051,729	25,71
1052,095	25,93
1052,46	25,77
1052,825	25,91
1053,191	25,21
1053,556	25,64
1053,921	25,76
1054,286	25,77
1054,651	25,54
1055,016	26,31
1055,381	24,98
1055,745	26,11
1056,11	26,05
1056,475	25,92
1056,839	26,13
1057,203	25,72
1057,568	25,53
1057,932	25,91
1058,296	25,64
1058,66	26,01
1059,024	25,95
1059,388	26,27
1059,752	25,77
1060,116	25,32
1060,48	26,33
1060,843	25,49
1061,207	25,56
1061,57	25,71
1061,934	26,02
1062,297	26,22
1062,66	26,73
1063,023	26,22
1063,386	25,6
1063,749	25,53
1064,112	24,77
1064,475	26,45
1064,838	25,1
1065,201	25,91
1065,563	26,17
1065,926	25,59
1066,288	25,7
1066,651	24,92
1067,013	25,47
1067,375	25,84
1067,737	25,17
1068,099	25,88
1068,461	25,35
1068,823	26,3
1069,185	25,85
1069,547	24,7
1069,909	25,2
1070,27	26,01
1070,632	25,04
1070,993	25,54
1071,355	25,29
1071,716	25,72
1072,077	25,9
1072,438	25,33
1072,799	25,45
1073,16	25,61
1073,521	26,72
1073,882	24,55
1074,243	25,69
1074,603	26,59
1074,964	24,69
1075,325	25,52
1075,685	25,69
1076,045	26,12
1076,406	26,35
1076,766	26,51
1077,126	25,51
1077,486	26,71
1077,846	25,1
1078,206	24,73
1078,566	25,27
1078,925	24,91
1079,285	25,87
1079,645	25,81
1080,004	25,98
1080,364	25,72
1080,723	24,98
1081,082	25,95
1081,442	25,33
1081,801	25,58
1082,16	26,33
1082,519	24,96
1082,878	25,57
1083,237	24,68
1083,595	25,61
1083,954	27,25
1084,313	25,57
1084,671	27,57
1085,03	25,34
1085,388	24,87
1085,746	25,49
1086,104	25,25
1086,463	26
1086,821	24,76
1087,179	26,01
1087,537	25,89
1087,894	25,11
1088,252	25,59
1088,61	25,92
1088,967	25,34
1089,325	25,66
1089,682	25,52
1090,04	26,19
1090,397	24,58
1090,754	25,52
1091,111	25,98
1091,469	24,86
1091,826	25,4
1092,182	25,53
1092,539	25,21
1092,896	26,22
1093,253	26,21
1093,609	26,65
1093,966	25,54
1094,322	25,8
1094,679	24,86
1095,035	24,79
1095,391	26,82
1095,748	26,09
1096,104	24,82
1096,46	26
1096,816	25,51
1097,171	25,87
1097,527	26,03
1097,883	26,39
1098,239	26,23
1098,594	25,04
1098,95	25,93
1099,305	27,78
1099,66	26,32
1100,016	26,13
1100,371	26,65
1100,726	25,73
1101,081	25,81
1101,436	26,32
1101,791	25,62
1102,146	25,58
1102,5	24,55
1102,855	24,15
1103,21	25,23
1103,564	25,27
1103,918	23,91
1104,273	25,82
1104,627	26,18
1104,981	26,13
1105,335	26,09
1105,69	25,41
1106,043	24,01
1106,397	26,37
1106,751	25,67
1107,105	27,43
1107,459	26,39
1107,812	25,74
1108,166	24,62
1108,519	25,32
1108,873	27,3
1109,226	26,35
1109,579	24,86
1109,932	24,82
1110,285	23,83
1110,638	24,54
1110,991	26,6
1111,344	25,77
1111,697	25,75
1112,05	25,51
1112,402	26,02
1112,755	24,36
1113,107	24,98
1113,46	24,54
1113,812	25,79
1114,164	26,06
1114,517	24,59
1114,869	33,33
1115,221	28,23
1115,573	4,72
1115,924	27,74
