Data from C_6__Relative__8__00057.txt Node

Date: Mon Jan 29 18:13:58 CET 2024
User: diatiterra
Spectrometer: HDX00911
Trigger mode: 0
Integration Time (sec): 6,000000E-3
Scans to average: 2
Nonlinearity correction enabled: false
Boxcar width: 0
Storing dark spectrum: false
XAxis mode: Wavelengths
Number of Pixels in Spectrum: 2068
>>>>>Begin Spectral Data<<<<<
194,468	71,57
195,025	52,21
195,581	59,57
196,138	50
196,694	54,6
197,251	40,89
197,807	46,4
198,363	43,64
198,919	47,69
199,474	44,64
200,03	45,59
200,586	39,8
201,141	45,32
201,696	37,72
202,251	39,85
202,806	44,74
203,361	50,18
203,916	44,18
204,471	49,65
205,025	36,43
205,58	43,01
206,134	38,89
206,688	36,23
207,242	37,41
207,796	35,59
208,35	34,3
208,904	29,83
209,457	41,88
210,011	36,71
210,564	36,46
211,117	44,01
211,67	35,56
212,223	38,01
212,776	44,57
213,329	35,4
213,881	37,5
214,434	40
214,986	39,39
215,538	39,56
216,09	32,79
216,642	40,37
217,194	42,05
217,746	39,73
218,297	38,26
218,849	39,56
219,4	46,5
219,951	47,27
220,502	38,33
221,053	42,32
221,604	43,96
222,155	42,39
222,705	36,79
223,256	46,4
223,806	47,28
224,356	46,38
224,906	41,11
225,456	34,48
226,006	33,89
226,556	44,89
227,106	39,51
227,655	44,25
228,204	40,13
228,754	35,52
229,303	40,68
229,852	43,46
230,401	36,2
230,949	56,81
231,498	46,64
232,047	44,11
232,595	46,1
233,143	46,97
233,691	37,2
234,239	48,13
234,787	42,31
235,335	45,92
235,883	41,58
236,43	42,22
236,978	43,27
237,525	46,64
238,072	42,07
238,619	37,33
239,166	36,36
239,713	44,61
240,26	45,69
240,806	44,68
241,353	43,82
241,899	42,39
242,445	48,25
242,991	40,77
243,537	48,84
244,083	40,73
244,629	42,23
245,174	50
245,72	39,13
246,265	41,7
246,81	38,69
247,355	39,34
247,9	39,45
248,445	50
248,99	35,29
249,534	40,51
250,079	42,54
250,623	40,34
251,168	35,91
251,712	41,84
252,256	41,53
252,8	46,88
253,343	47,77
253,887	39,46
254,43	40,52
254,974	44,76
255,517	45,97
256,06	39,73
256,603	44,15
257,146	45,12
257,689	45,57
258,232	37,16
258,774	38,01
259,317	44,69
259,859	36,9
260,401	46,97
260,943	41,79
261,485	43,97
262,027	36,9
262,569	40,23
263,11	44,04
263,652	41,54
264,193	38,93
264,734	37,3
265,275	42,97
265,816	43,17
266,357	45,68
266,898	35,15
267,438	36,08
267,979	47,64
268,519	40,79
269,059	47,87
269,6	33,68
270,14	37,62
270,68	34,48
271,219	37,54
271,759	42,54
272,298	29,09
272,838	39,15
273,377	37,04
273,916	40,43
274,455	32,95
274,994	34,89
275,533	39,93
276,072	32,33
276,61	42,32
277,149	34,06
277,687	36,3
278,225	30,48
278,763	42,39
279,301	40
279,839	38,41
280,377	39,05
280,914	35,9
281,452	44,31
281,989	46,42
282,526	34,05
283,064	39,93
283,601	39,02
284,137	40,88
284,674	36,98
285,211	31,65
285,747	35,25
286,284	33,33
286,82	40,78
287,356	38,14
287,892	34,74
288,428	33,56
288,964	38,63
289,5	39,46
290,035	42,09
290,571	33,96
291,106	40,73
291,641	37,93
292,176	39,85
292,711	42,07
293,246	34,3
293,781	37,17
294,315	33,82
294,85	40,51
295,384	45,56
295,918	38,68
296,453	36,4
296,987	41,38
297,52	37,33
298,054	35,66
298,588	42,13
299,121	37,73
299,655	41,05
300,188	36,5
300,721	40,69
301,254	39,86
301,787	35,37
302,32	39,77
302,853	38,33
303,385	42,49
303,918	38,95
304,45	37,84
304,982	37,45
305,514	46,86
306,046	32,98
306,578	39,64
307,11	37,55
307,641	37,45
308,173	32,71
308,704	47,13
309,236	39,7
309,767	37,92
310,298	33,8
310,829	52,47
311,359	37,37
311,89	35,23
312,421	42,03
312,951	44,73
313,481	34,54
314,012	28,94
314,542	38,01
315,072	32,36
315,601	39,86
316,131	33,21
316,661	40,83
317,19	44,13
317,72	42,86
318,249	37,16
318,778	38,02
319,307	41,55
319,836	43,29
320,365	44,95
320,893	37,23
321,422	41,79
321,95	34,07
322,479	44,64
323,007	44,93
323,535	44,53
324,063	45,52
324,591	33,67
325,118	36,01
325,646	45,77
326,173	44,29
326,701	42,91
327,228	41,21
327,755	33,69
328,282	40,75
328,809	35,56
329,336	44,64
329,862	37,31
330,389	36,18
330,915	35,46
331,441	37,29
331,968	39,52
332,494	36,45
333,02	43,07
333,545	34,66
334,071	40,67
334,597	38,18
335,122	30,43
335,648	39,93
336,173	38,94
336,698	30,82
337,223	38,57
337,748	37,19
338,272	36,63
338,797	32,69
339,322	30,9
339,846	33,2
340,37	38,1
340,894	42,47
341,419	41,28
341,942	39,6
342,466	43
342,99	37,54
343,514	30,19
344,037	40,66
344,56	36,68
345,084	34,38
345,607	33,43
346,13	37,23
346,653	42,77
347,175	38,06
347,698	33,63
348,221	39,53
348,743	39,94
349,265	35,42
349,787	42,29
350,309	41,05
350,831	35,52
351,353	45,24
351,875	39,04
352,397	36,36
352,918	38,7
353,439	46,34
353,961	38,03
354,482	47,19
355,003	42,09
355,524	44,13
356,044	43,54
356,565	42,14
357,086	37,91
357,606	39,52
358,126	43,55
358,646	42,29
359,167	45,45
359,687	38,44
360,206	41,93
360,726	37,45
361,246	43,37
361,765	45,39
362,285	41,94
362,804	39,78
363,323	37,16
363,842	42,62
364,361	43,94
364,88	44,3
365,398	43,27
365,917	45,38
366,435	48,28
366,954	41,48
367,472	42,43
367,99	49,08
368,508	45,31
369,026	42,64
369,544	42,36
370,061	44,46
370,579	44,84
371,096	47,08
371,613	44,04
372,131	44,72
372,648	44,58
373,165	46,62
373,681	43,43
374,198	42,13
374,715	44,27
375,231	41,34
375,747	46,12
376,264	44,89
376,78	47,21
377,296	44,94
377,812	40,06
378,327	42,67
378,843	47,56
379,359	41,45
379,874	43,03
380,389	47,32
380,905	45,36
381,42	44,65
381,935	43,07
382,449	42,31
382,964	42,02
383,479	42,78
383,993	42,91
384,508	40,98
385,022	40,49
385,536	41,16
386,05	39,18
386,564	39,77
387,078	38,53
387,592	38,96
388,105	39,53
388,619	41,69
389,132	40,11
389,645	38,73
390,158	39,37
390,671	40,34
391,184	36,2
391,697	35,87
392,21	39,14
392,722	37,74
393,235	36,42
393,747	36,18
394,259	34,46
394,771	34,49
395,283	34,16
395,795	35,64
396,307	31,76
396,818	34,27
397,33	32,57
397,841	34,75
398,353	32,13
398,864	32,23
399,375	31,77
399,886	31,55
400,397	31,7
400,907	32,55
401,418	28,97
401,928	27,64
402,439	30,47
402,949	27
403,459	29,09
403,969	26,53
404,479	28,06
404,989	26,23
405,498	25,91
406,008	23,94
406,517	24,08
407,027	23,57
407,536	23,2
408,045	23,97
408,554	21,18
409,063	20,53
409,572	20,51
410,08	18,98
410,589	19,25
411,097	19,14
411,606	19,21
412,114	17,41
412,622	17,62
413,13	17,97
413,638	16,91
414,145	15,64
414,653	16,32
415,16	16,42
415,668	15
416,175	14,7
416,682	15,17
417,189	15,05
417,696	14,11
418,203	13,84
418,71	13,82
419,216	12,94
419,723	13,47
420,229	13,43
420,735	13,43
421,242	13,71
421,748	13,96
422,254	13,19
422,759	12,56
423,265	13,08
423,771	12,61
424,276	12,6
424,781	12,7
425,287	12,03
425,792	12,41
426,297	12,5
426,802	12,3
427,306	11,62
427,811	12,47
428,316	12,02
428,82	11,79
429,324	11,61
429,829	11,98
430,333	11,9
430,837	11,65
431,34	11,36
431,844	11,68
432,348	11,64
432,851	11,21
433,355	11,39
433,858	11,42
434,361	11,62
434,864	11,53
435,367	11,26
435,87	11,56
436,373	11,21
436,876	10,84
437,378	11,24
437,88	10,78
438,383	11,29
438,885	11,71
439,387	10,89
439,889	10,89
440,391	11,73
440,892	10,83
441,394	11,52
441,896	11,23
442,397	11,69
442,898	10,92
443,399	11,73
443,9	11,03
444,401	11,64
444,902	11,94
445,403	11,77
445,903	11,43
446,404	11,98
446,904	11,64
447,405	11,43
447,905	11,54
448,405	12,21
448,905	11,68
449,404	11,63
449,904	12,24
450,404	12,05
450,903	12,28
451,403	12,53
451,902	12,55
452,401	12,69
452,9	12,57
453,399	12,97
453,898	12,89
454,396	12,45
454,895	12,84
455,393	13,07
455,892	12,79
456,39	13,11
456,888	12,83
457,386	12,52
457,884	13,1
458,382	12,58
458,879	13,09
459,377	13
459,874	13,06
460,372	12,72
460,869	13,29
461,366	13,43
461,863	13,24
462,36	13,22
462,857	13,24
463,353	13,36
463,85	12,91
464,346	13,42
464,843	12,99
465,339	13,12
465,835	13,04
466,331	13,02
466,827	13,39
467,323	13
467,818	13,29
468,314	13,1
468,809	13,39
469,305	13,4
469,8	13,36
470,295	13,62
470,79	13,36
471,285	13,37
471,78	13,25
472,274	12,99
472,769	13,54
473,263	13,05
473,758	13,33
474,252	13,05
474,746	13,23
475,24	13,25
475,734	13,48
476,228	13,72
476,721	13,4
477,215	13,25
477,708	13,35
478,202	13,46
478,695	13,22
479,188	13,55
479,681	13,2
480,174	13,31
480,667	13,73
481,159	13,4
481,652	13,73
482,144	13,47
482,637	13,49
483,129	13,63
483,621	13,38
484,113	13,86
484,605	13,69
485,097	14,25
485,588	13,9
486,08	14,33
486,571	13,99
487,063	14,24
487,554	14,23
488,045	13,95
488,536	14,25
489,027	14,3
489,518	14,4
490,008	14,67
490,499	14,48
490,989	14,51
491,48	14,71
491,97	14,94
492,46	14,98
492,95	15,01
493,44	15,56
493,93	15,26
494,419	15,52
494,909	15,53
495,398	16,06
495,888	15,63
496,377	15,73
496,866	15,98
497,355	16,3
497,844	16,49
498,333	16,54
498,821	16,79
499,31	16,88
499,798	16,73
500,287	17,12
500,775	17,46
501,263	17,6
501,751	17,46
502,239	17,65
502,727	17,96
503,215	18,29
503,702	18,61
504,19	18,55
504,677	18,61
505,164	19,11
505,651	19,16
506,139	19,28
506,625	19,52
507,112	20,07
507,599	20,32
508,086	20,62
508,572	20,59
509,058	21,57
509,545	21,47
510,031	21,6
510,517	21,53
511,003	21,87
511,489	22,33
511,974	22,67
512,46	23,17
512,946	23,18
513,431	23,59
513,916	23,51
514,401	23,9
514,887	24,17
515,371	24,67
515,856	24,84
516,341	25,58
516,826	25,71
517,31	25,49
517,795	25,87
518,279	25,66
518,763	26,85
519,247	26,58
519,731	27,48
520,215	27,6
520,699	27,67
521,182	27,86
521,666	28,62
522,149	28,54
522,633	28,87
523,116	29,14
523,599	29,46
524,082	29,33
524,565	29,9
525,048	30,22
525,53	30,37
526,013	30,69
526,495	30,64
526,978	30,7
527,46	31,24
527,942	31,57
528,424	31,37
528,906	31,59
529,388	31,57
529,87	32,3
530,351	31,98
530,833	32,64
531,314	32,82
531,795	32,78
532,277	32,8
532,758	32,84
533,238	33,3
533,719	33,31
534,2	33,49
534,681	33,07
535,161	33,75
535,642	33,77
536,122	33,22
536,602	33,22
537,082	33,56
537,562	33,46
538,042	33,53
538,522	34,26
539,001	33,95
539,481	33,64
539,96	34,07
540,44	33,98
540,919	34,02
541,398	33,8
541,877	34,25
542,356	34,34
542,835	34,08
543,313	33,98
543,792	34,03
544,27	33,99
544,749	34,17
545,227	33,87
545,705	34,47
546,183	33,79
546,661	34,43
547,139	34,21
547,616	34,73
548,094	34,59
548,571	34,27
549,049	34,77
549,526	34,55
550,003	34,41
550,48	34,55
550,957	34,64
551,434	34,85
551,911	34,73
552,387	34,27
552,864	34,78
553,34	34,46
553,817	34,18
554,293	34,69
554,769	34,17
555,245	34,36
555,721	34,89
556,197	34,73
556,672	34,6
557,148	34,5
557,623	35
558,099	34,36
558,574	34,51
559,049	34,63
559,524	34,72
559,999	34,78
560,474	34,07
560,948	34,36
561,423	34,55
561,897	34,37
562,372	34,56
562,846	34,23
563,32	34,07
563,794	34,3
564,268	34,13
564,742	33,92
565,216	34,01
565,69	33,6
566,163	34,04
566,636	33,89
567,11	33,42
567,583	33,22
568,056	33,61
568,529	33,32
569,002	33,36
569,475	33,16
569,947	33,27
570,42	32,77
570,892	32,55
571,365	32,14
571,837	32,78
572,309	31,9
572,781	31,87
573,253	32,07
573,725	31,51
574,197	31,77
574,668	31,47
575,14	31,45
575,611	31,38
576,082	31,22
576,554	30,95
577,025	30,99
577,496	30,72
577,967	30,92
578,437	30,76
578,908	30,7
579,379	30,58
579,849	30,33
580,319	30,09
580,79	29,92
581,26	30,16
581,73	29,88
582,2	29,59
582,669	29,7
583,139	29,85
583,609	29,52
584,078	29,46
584,548	28,77
585,017	29,21
585,486	28,71
585,955	29,07
586,424	28,89
586,893	28,55
587,362	28,78
587,83	28,57
588,299	28,46
588,767	28,46
589,236	28,48
589,704	28,4
590,172	28,29
590,64	27,68
591,108	28,09
591,576	28,02
592,043	28,02
592,511	27,88
592,978	28,06
593,446	27,85
593,913	27,61
594,38	27,67
594,847	27,55
595,314	27,39
595,781	27,69
596,248	27,53
596,715	27,57
597,181	27,37
597,647	27,31
598,114	27,06
598,58	27,27
599,046	27,42
599,512	27,13
599,978	27,19
600,444	27,05
600,91	27,1
601,375	27,25
601,841	26,99
602,306	27,34
602,771	27,02
603,236	26,98
603,702	26,98
604,167	26,4
604,631	26,8
605,096	26,85
605,561	26,68
606,025	26,84
606,49	26,61
606,954	26,33
607,418	26,23
607,882	26,2
608,347	26,13
608,81	26,08
609,274	26,24
609,738	25,9
610,202	25,91
610,665	26,06
611,128	25,9
611,592	25,83
612,055	25,48
612,518	25,47
612,981	25,72
613,444	25,17
613,907	25,02
614,369	25,1
614,832	24,9
615,294	25,23
615,757	24,72
616,219	24,63
616,681	24,79
617,143	24,77
617,605	24,28
618,067	24,48
618,529	24,28
618,99	24,42
619,452	24,17
619,913	24,09
620,375	24,02
620,836	23,83
621,297	24,05
621,758	23,94
622,219	23,5
622,68	23,62
623,14	23,7
623,601	23,65
624,061	23,5
624,522	23,45
624,982	23,57
625,442	23,54
625,902	23,53
626,362	23,41
626,822	23,45
627,282	23,21
627,742	23,25
628,201	23,21
628,661	23,28
629,12	23,42
629,579	23,07
630,038	23,1
630,497	23,03
630,956	23,3
631,415	23,12
631,874	23,05
632,332	22,85
632,791	22,84
633,249	22,97
633,708	22,77
634,166	22,88
634,624	22,72
635,082	22,73
635,54	22,66
635,998	22,52
636,455	22,41
636,913	22,15
637,37	22,05
637,828	21,93
638,285	22,01
638,742	21,57
639,199	21,79
639,656	21,53
640,113	21,38
640,57	21,17
641,027	21,18
641,483	20,88
641,94	20,71
642,396	20,54
642,852	20,56
643,309	20,31
643,765	20,15
644,221	20,09
644,676	19,87
645,132	19,78
645,588	19,57
646,043	19,54
646,499	19,15
646,954	19,06
647,409	18,8
647,864	18,76
648,319	18,71
648,774	18,55
649,229	18,33
649,684	18,26
650,139	17,99
650,593	18,13
651,047	18,24
651,502	18,06
651,956	17,9
652,41	17,87
652,864	17,99
653,318	17,63
653,772	17,6
654,225	17,64
654,679	17,53
655,133	17,44
655,586	17,46
656,039	17,24
656,492	17,12
656,946	16,95
657,399	16,97
657,851	16,73
658,304	16,84
658,757	16,58
659,209	16,37
659,662	16,18
660,114	16,03
660,567	16
661,019	16,04
661,471	15,8
661,923	15,46
662,375	15,45
662,826	15,38
663,278	15,18
663,73	15,11
664,181	14,86
664,632	14,8
665,084	14,61
665,535	14,38
665,986	14,4
666,437	14,31
666,888	14,18
667,338	13,98
667,789	14,04
668,24	13,97
668,69	13,86
669,14	13,85
669,591	13,74
670,041	13,67
670,491	13,68
670,941	13,78
671,391	13,65
671,84	13,59
672,29	13,47
672,74	13,66
673,189	13,57
673,638	13,58
674,088	13,63
674,537	13,66
674,986	13,76
675,435	13,64
675,883	13,83
676,332	13,77
676,781	13,84
677,229	13,85
677,678	14,04
678,126	14,2
678,574	13,99
679,022	14,24
679,47	14,42
679,918	14,33
680,366	14,39
680,814	14,55
681,261	14,79
681,709	14,83
682,156	15,13
682,604	15,3
683,051	15,41
683,498	15,56
683,945	15,77
684,392	16,29
684,839	16,24
685,286	16,46
685,732	16,88
686,179	17,25
686,625	17,4
687,071	17,91
687,518	18,17
687,964	18,55
688,41	18,86
688,856	19,35
689,301	19,73
689,747	20,29
690,193	20,5
690,638	21,08
691,084	21,51
691,529	22,03
691,974	22,46
692,419	22,87
692,864	23,34
693,309	23,72
693,754	24,23
694,199	25
694,643	25,23
695,088	25,66
695,532	26,21
695,977	26,7
696,421	27,34
696,865	27,69
697,309	28,03
697,753	28,78
698,197	29,15
698,64	29,48
699,084	29,82
699,527	30,17
699,971	30,67
700,414	31,09
700,857	31,62
701,3	31,65
701,743	32,04
702,186	32,17
702,629	32,87
703,072	33,06
703,515	33,56
703,957	33,63
704,399	34,17
704,842	33,91
705,284	34,72
705,726	34,66
706,168	35,1
706,61	35,08
707,052	35,59
707,494	35,59
707,935	35,98
708,377	36,05
708,818	36,5
709,26	36,48
709,701	36,74
710,142	36,81
710,583	36,91
711,024	37,27
711,465	37,33
711,905	37,8
712,346	37,89
712,787	37,92
713,227	38,19
713,667	38,26
714,108	38,54
714,548	38,72
714,988	39,02
715,428	39,09
715,868	39,12
716,307	39,29
716,747	39,38
717,186	39,6
717,626	39,75
718,065	39,54
718,504	39,89
718,944	39,96
719,383	40
719,822	40,38
720,261	40,43
720,699	40,42
721,138	40,57
721,576	40,72
722,015	40,8
722,453	40,8
722,892	40,97
723,33	40,97
723,768	41,13
724,206	41,05
724,644	41,19
725,081	41,13
725,519	41,09
725,957	41,27
726,394	41,55
726,832	41,47
727,269	41,74
727,706	41,66
728,143	41,85
728,58	41,9
729,017	42
729,454	41,84
729,89	41,76
730,327	41,74
730,764	41,89
731,2	41,91
731,636	42,06
732,072	41,84
732,509	42,18
732,945	42,19
733,38	42,47
733,816	42,01
734,252	42,03
734,688	42,13
735,123	41,95
735,559	42,15
735,994	42,2
736,429	42,17
736,864	41,99
737,299	41,85
737,734	42,3
738,169	42,33
738,604	42,39
739,038	42,3
739,473	42,51
739,907	42,41
740,342	42,21
740,776	42,24
741,21	42,26
741,644	42,38
742,078	41,82
742,512	42,43
742,946	42,06
743,379	42,1
743,813	42,11
744,246	42,15
744,68	42,01
745,113	42,21
745,546	42,21
745,979	42,02
746,412	41,94
746,845	41,89
747,278	42,02
747,711	42,02
748,143	41,81
748,576	42,01
749,008	41,91
749,441	42,01
749,873	41,91
750,305	41,78
750,737	41,72
751,169	41,62
751,601	41,72
752,032	41,53
752,464	41,64
752,896	41,71
753,327	41,83
753,758	41,7
754,19	41,45
754,621	41,46
755,052	41,21
755,483	41,34
755,914	41,39
756,344	41,39
756,775	41,16
757,206	41,34
757,636	41,18
758,066	41,34
758,497	41,39
758,927	41,14
759,357	41,35
759,787	41,52
760,217	41,11
760,647	40,9
761,076	41,27
761,506	41,02
761,935	40,98
762,365	41,08
762,794	40,86
763,223	40,93
763,653	41,29
764,082	40,89
764,51	40,96
764,939	40,55
765,368	40,9
765,797	40,9
766,225	40,8
766,654	40,71
767,082	40,95
767,51	40,76
767,938	40,49
768,367	40,61
768,795	40,51
769,222	40,61
769,65	40,55
770,078	40,78
770,505	40,44
770,933	40,71
771,36	40,39
771,788	40,48
772,215	40,66
772,642	40,66
773,069	40,61
773,496	40,55
773,923	40,41
774,349	40,56
774,776	40,36
775,203	40,13
775,629	40,5
776,055	40,3
776,482	40,49
776,908	40,27
777,334	40,67
777,76	40,36
778,186	40,19
778,611	40,4
779,037	40,29
779,463	40,18
779,888	40,14
780,314	40,17
780,739	40,25
781,164	39,95
781,589	40,19
782,014	40,09
782,439	40,41
782,864	40,13
783,289	40,17
783,713	39,99
784,138	40,24
784,562	40,27
784,987	40,07
785,411	39,81
785,835	40,12
786,259	39,93
786,683	40,15
787,107	40,01
787,531	39,53
787,954	40,09
788,378	40,01
788,802	40,04
789,225	39,88
789,648	40,19
790,071	40
790,495	40,17
790,918	39,77
791,34	39,85
791,763	39,84
792,186	39,96
792,609	39,88
793,031	39,94
793,454	40,02
793,876	39,86
794,298	39,91
794,721	39,78
795,143	40,11
795,565	39,91
795,986	39,56
796,408	39,91
796,83	39,94
797,252	39,88
797,673	39,74
798,094	39,66
798,516	39,76
798,937	39,5
799,358	39,74
799,779	40,05
800,2	39,68
800,621	39,6
801,042	39,94
801,462	39,6
801,883	39,76
802,303	39,92
802,724	39,64
803,144	39,73
803,564	39,48
803,984	39,87
804,404	39,63
804,824	39,66
805,244	39,65
805,664	39,52
806,084	39,39
806,503	39,64
806,923	39,57
807,342	39,74
807,761	39,38
808,18	39,67
808,599	39,45
809,018	39,61
809,437	39,46
809,856	39,61
810,275	39,71
810,693	39,92
811,112	39,76
811,53	39,74
811,949	39,59
812,367	39,64
812,785	39,45
813,203	39,4
813,621	39,62
814,039	39,54
814,457	39,67
814,874	39,44
815,292	39,71
815,709	39,49
816,127	39,57
816,544	39,69
816,961	39,35
817,378	39,89
817,795	39,4
818,212	39,65
818,629	39,53
819,046	39,95
819,462	39,58
819,879	39,7
820,295	39,44
820,712	39,5
821,128	39,61
821,544	39,7
821,96	39,56
822,376	39,6
822,792	39,29
823,208	39,6
823,624	39,48
824,039	39,36
824,455	39,68
824,87	39,42
825,286	39,31
825,701	39,5
826,116	39,27
826,531	39,43
826,946	39,3
827,361	39,71
827,776	39,38
828,19	39,37
828,605	39,42
829,02	39,38
829,434	39,02
829,848	39,2
830,263	39,56
830,677	39,43
831,091	39,72
831,505	39,28
831,919	39,51
832,332	39,43
832,746	39,49
833,16	39,25
833,573	39,3
833,987	39,1
834,4	39,32
834,813	39,58
835,226	39,21
835,639	39,32
836,052	39,37
836,465	39,25
836,878	39,2
837,29	39,46
837,703	39,07
838,116	39,16
838,528	39,14
838,94	39,27
839,352	39,36
839,765	39,11
840,177	39,19
840,589	39,25
841	39,31
841,412	39,34
841,824	38,91
842,235	39,25
842,647	38,91
843,058	39,48
843,47	39,14
843,881	38,96
844,292	38,69
844,703	39,31
845,114	39,06
845,525	39,2
845,935	39,12
846,346	38,86
846,757	39
847,167	39,39
847,577	39,03
847,988	38,97
848,398	39,34
848,808	39,15
849,218	39,21
849,628	39,03
850,038	38,98
850,448	38,91
850,857	39,21
851,267	39,1
851,676	39,46
852,086	39,04
852,495	39,13
852,904	39,12
853,313	39,19
853,722	38,93
854,131	38,93
854,54	39,04
854,949	39,18
855,357	38,84
855,766	39,21
856,174	38,73
856,583	38,84
856,991	39,16
857,399	38,86
857,807	39,05
858,215	39,08
858,623	39,08
859,031	39,33
859,439	39,15
859,846	39,08
860,254	38,94
860,661	39,13
861,069	38,89
861,476	39,09
861,883	39,32
862,29	39,04
862,697	39,08
863,104	38,87
863,511	38,86
863,918	38,86
864,325	38,68
864,731	38,72
865,138	39,13
865,544	39,23
865,95	38,86
866,357	39,08
866,763	38,8
867,169	38,92
867,575	39,01
867,98	38,84
868,386	38,95
868,792	39,23
869,197	39,11
869,603	38,89
870,008	39,04
870,414	38,89
870,819	39,23
871,224	39,01
871,629	38,89
872,034	38,73
872,439	38,81
872,844	38,73
873,248	38,52
873,653	38,65
874,057	39,18
874,462	38,56
874,866	38,61
875,27	38,82
875,674	38,87
876,078	38,97
876,482	38,77
876,886	38,86
877,29	39,09
877,694	39,13
878,097	39,25
878,501	38,96
878,904	38,82
879,308	38,67
879,711	38,77
880,114	38,92
880,517	38,62
880,92	38,97
881,323	38,96
881,726	39,11
882,128	39,21
882,531	38,83
882,934	38,92
883,336	38,99
883,738	38,63
884,141	38,94
884,543	38,97
884,945	38,54
885,347	38,7
885,749	38,86
886,151	38,85
886,552	38,84
886,954	39,07
887,355	39,22
887,757	38,97
888,158	38,69
888,56	38,84
888,961	39,05
889,362	39,03
889,763	38,78
890,164	39,32
890,565	38,54
890,965	38,97
891,366	38,33
891,767	39,03
892,167	39,25
892,567	38,43
892,968	39,01
893,368	38,92
893,768	39,12
894,168	38,76
894,568	39,18
894,968	38,53
895,368	38,84
895,767	38,89
896,167	39,02
896,566	39,01
896,966	38,88
897,365	38,91
897,764	39,02
898,164	38,97
898,563	38,67
898,962	38,69
899,361	38,83
899,759	38,87
900,158	39,03
900,557	38,92
900,955	38,88
901,354	38,94
901,752	38,93
902,15	38,97
902,548	39,02
902,947	38,72
903,345	38,38
903,742	38,95
904,14	39,06
904,538	38,79
904,936	39,08
905,333	38,69
905,731	39,25
906,128	38,83
906,525	39,35
906,923	39,09
907,32	38,97
907,717	38,74
908,114	39,12
908,511	38,97
908,907	38,63
909,304	39,15
909,701	38,64
910,097	39,15
910,494	38,68
910,89	38,7
911,286	39
911,682	38,69
912,078	38,89
912,474	39,17
912,87	38,72
913,266	38,82
913,662	38,53
914,058	38,64
914,453	39,12
914,849	38,83
915,244	38,86
915,639	38,79
916,034	38,44
916,43	39,11
916,825	38,57
917,22	38,84
917,614	38,72
918,009	39
918,404	38,94
918,798	38,81
919,193	38,77
919,587	38,7
919,982	38,5
920,376	38,66
920,77	38,88
921,164	39,07
921,558	38,92
921,952	38,68
922,346	38,74
922,74	38,79
923,133	39,1
923,527	38,42
923,92	38,94
924,314	38,88
924,707	38,86
925,1	38,76
925,493	38,62
925,886	38,72
926,279	39,07
926,672	38,66
927,065	38,79
927,457	38,42
927,85	38,89
928,243	38,55
928,635	38,85
929,027	38,57
929,42	39,08
929,812	38,68
930,204	38,81
930,596	38,38
930,988	38,41
931,379	38,34
931,771	38,41
932,163	38,61
932,554	38,33
932,946	38,55
933,337	38,31
933,729	38,8
934,12	38,46
934,511	38,24
934,902	38,8
935,293	38,61
935,684	38,45
936,075	38,2
936,465	38,41
936,856	38,09
937,246	38,1
937,637	38,31
938,027	38,29
938,417	38,46
938,808	38,54
939,198	38,86
939,588	38,62
939,978	38,13
940,368	38,22
940,757	38,07
941,147	38,15
941,537	38,16
941,926	38,27
942,315	38,25
942,705	37,94
943,094	38,36
943,483	38,04
943,872	37,82
944,261	37,74
944,65	38,41
945,039	37,94
945,428	38,05
945,816	38,36
946,205	38,61
946,593	37,93
946,982	38,76
947,37	37,64
947,758	37,18
948,146	37,99
948,534	38,81
948,922	38,25
949,31	38,06
949,698	38,19
950,086	37,34
950,473	38,18
950,861	37,71
951,248	37,83
951,636	37,75
952,023	37,15
952,41	37,63
952,797	37,48
953,184	37,84
953,571	37,25
953,958	37,82
954,345	37,17
954,731	37,6
955,118	37,76
955,505	37,48
955,891	37,6
956,277	37,38
956,664	37,7
957,05	37,14
957,436	37,8
957,822	37,16
958,208	37,45
958,594	36,67
958,979	37,24
959,365	37,36
959,751	37,58
960,136	37,4
960,522	37,31
960,907	37,27
961,292	36,93
961,677	37,37
962,062	36,75
962,447	37,01
962,832	37,5
963,217	37,58
963,602	37,37
963,986	37,25
964,371	37,14
964,756	36,86
965,14	37
965,524	37,07
965,908	37,28
966,293	37,9
966,677	37,31
967,061	36,97
967,445	36,91
967,828	37,03
968,212	37,16
968,596	37,15
968,979	37
969,363	37,92
969,746	37,35
970,129	36,96
970,513	37,16
970,896	37,51
971,279	37,51
971,662	37,14
972,045	37,45
972,428	36,93
972,81	37,13
973,193	37,09
973,575	37,08
973,958	37,31
974,34	37,47
974,723	37,2
975,105	36,96
975,487	36,99
975,869	37,07
976,251	37,41
976,633	37,78
977,015	37,58
977,396	37,2
977,778	37,27
978,16	37,23
978,541	36,99
978,922	37,71
979,304	37,35
979,685	37,43
980,066	37,48
980,447	37,32
980,828	37,08
981,209	37,22
981,59	36,95
981,97	37,23
982,351	37,36
982,732	37,53
983,112	37,69
983,493	37,23
983,873	37,34
984,253	37,47
984,633	37,08
985,013	37,47
985,393	38,06
985,773	37,4
986,153	37,61
986,533	37,49
986,912	37,12
987,292	37,04
987,671	37,53
988,051	37,07
988,43	37,41
988,809	37,59
989,188	37,33
989,567	37,81
989,946	37,66
990,325	37,62
990,704	37,81
991,083	37,1
991,461	37,74
991,84	37,66
992,218	37,6
992,597	37,16
992,975	37,4
993,353	37,33
993,732	37,59
994,11	37,74
994,488	37,18
994,866	37,84
995,243	37,66
995,621	37,3
995,999	37,13
996,376	37,47
996,754	37,61
997,131	37,76
997,509	36,96
997,886	37,44
998,263	37,63
998,64	37,88
999,017	37,26
999,394	37,67
999,771	37,07
1000,148	37,44
1000,524	37,29
1000,901	37,68
1001,277	37,74
1001,654	37,67
1002,03	37,36
1002,406	37,57
1002,783	38,02
1003,159	38,37
1003,535	37,4
1003,911	37,47
1004,286	37,24
1004,662	37,5
1005,038	37,25
1005,414	37,57
1005,789	37,44
1006,164	38,4
1006,54	37,77
1006,915	37,32
1007,29	37,87
1007,665	37,45
1008,04	37,53
1008,415	37,84
1008,79	38,07
1009,165	38,02
1009,54	37,35
1009,914	37,71
1010,289	37,58
1010,663	37,62
1011,038	37,21
1011,412	37,75
1011,786	37,41
1012,16	38,05
1012,535	37,72
1012,909	37,66
1013,282	38,21
1013,656	37,2
1014,03	37,64
1014,404	37,37
1014,777	38,12
1015,151	37,66
1015,524	37,93
1015,897	38,46
1016,271	37,62
1016,644	37,33
1017,017	38,02
1017,39	37,08
1017,763	37,67
1018,136	37,89
1018,508	38,21
1018,881	37,54
1019,254	38
1019,626	37,9
1019,999	37,97
1020,371	38,12
1020,743	37,58
1021,116	38,24
1021,488	37,45
1021,86	38,11
1022,232	37,88
1022,604	37,69
1022,975	38,02
1023,347	38,26
1023,719	37,28
1024,09	37,89
1024,462	37,96
1024,833	37,5
1025,204	37,69
1025,576	37,88
1025,947	37,65
1026,318	37,59
1026,689	37,8
1027,06	38,06
1027,431	37,94
1027,801	37,95
1028,172	38,27
1028,543	37,81
1028,913	37,61
1029,284	37,33
1029,654	37,53
1030,024	38,05
1030,394	37,76
1030,764	38,28
1031,135	38,66
1031,504	37,93
1031,874	38,47
1032,244	37,98
1032,614	38,04
1032,983	37,9
1033,353	37,84
1033,722	37,5
1034,092	38,58
1034,461	37,94
1034,83	38,51
1035,2	38,26
1035,569	38,18
1035,938	37,9
1036,307	38,21
1036,675	38,16
1037,044	38
1037,413	38,44
1037,781	37,67
1038,15	37,87
1038,518	38,23
1038,887	38,27
1039,255	37,34
1039,623	38,46
1039,991	37,99
1040,359	38,46
1040,727	38,12
1041,095	38,57
1041,463	38,44
1041,831	38,58
1042,198	38,04
1042,566	37,79
1042,933	38,31
1043,301	38,12
1043,668	38,56
1044,035	38,45
1044,402	38,26
1044,77	38,3
1045,137	37,92
1045,503	37,88
1045,87	38,72
1046,237	37,97
1046,604	38,35
1046,97	38,28
1047,337	37,98
1047,703	38,62
1048,07	38,93
1048,436	38,35
1048,802	37,84
1049,168	38,69
1049,534	38,34
1049,9	38,15
1050,266	39,37
1050,632	38,24
1050,998	38,33
1051,364	38,57
1051,729	38,18
1052,095	38,14
1052,46	38,11
1052,825	37,77
1053,191	38,89
1053,556	38,49
1053,921	38,01
1054,286	38,03
1054,651	38,92
1055,016	38,62
1055,381	38,13
1055,745	37,68
1056,11	38,98
1056,475	38,49
1056,839	38,65
1057,203	38,82
1057,568	38,41
1057,932	37,57
1058,296	37,13
1058,66	38,15
1059,024	39,03
1059,388	39,2
1059,752	38,67
1060,116	39,14
1060,48	38,29
1060,843	39,05
1061,207	38,85
1061,57	39,32
1061,934	38,69
1062,297	39,01
1062,66	39,27
1063,023	38,05
1063,386	38,95
1063,749	38,47
1064,112	38
1064,475	38,35
1064,838	38,7
1065,201	38,98
1065,563	38,96
1065,926	37,83
1066,288	39,56
1066,651	37,28
1067,013	37,39
1067,375	38,35
1067,737	38,58
1068,099	38,63
1068,461	37,68
1068,823	38,71
1069,185	38,18
1069,547	38,74
1069,909	39,12
1070,27	40,17
1070,632	37,89
1070,993	39,02
1071,355	38,46
1071,716	39,68
1072,077	38,16
1072,438	40,06
1072,799	38,44
1073,16	38,65
1073,521	38,28
1073,882	38,17
1074,243	38,99
1074,603	38,88
1074,964	38,68
1075,325	39,01
1075,685	39,96
1076,045	38,86
1076,406	39,12
1076,766	39,5
1077,126	38,75
1077,486	39,22
1077,846	37,6
1078,206	37,46
1078,566	38,03
1078,925	38,53
1079,285	38,42
1079,645	38,4
1080,004	37,89
1080,364	37,93
1080,723	38,27
1081,082	38,82
1081,442	38,45
1081,801	38,87
1082,16	39,6
1082,519	39,56
1082,878	39,63
1083,237	38,49
1083,595	38,74
1083,954	39,8
1084,313	38,98
1084,671	39,14
1085,03	38,67
1085,388	37,18
1085,746	37,78
1086,104	39,32
1086,463	39,34
1086,821	38,58
1087,179	38,29
1087,537	39,45
1087,894	38,62
1088,252	37,64
1088,61	38,09
1088,967	38,97
1089,325	38,81
1089,682	39,43
1090,04	38,1
1090,397	38,44
1090,754	38,31
1091,111	38,44
1091,469	38,08
1091,826	38
1092,182	38,78
1092,539	38,95
1092,896	37,69
1093,253	39,77
1093,609	38,72
1093,966	37,93
1094,322	39,25
1094,679	39,1
1095,035	38,01
1095,391	38
1095,748	39,07
1096,104	38,04
1096,46	39,54
1096,816	38,34
1097,171	38,54
1097,527	38,34
1097,883	37,83
1098,239	40,4
1098,594	39,79
1098,95	38,84
1099,305	38,5
1099,66	37,95
1100,016	40,13
1100,371	38,23
1100,726	37,8
1101,081	38,84
1101,436	37,86
1101,791	38,66
1102,146	37,57
1102,5	38,81
1102,855	39,73
1103,21	39
1103,564	40,36
1103,918	38,21
1104,273	39,28
1104,627	39,24
1104,981	38,52
1105,335	37,49
1105,69	39,39
1106,043	39,27
1106,397	38,37
1106,751	38,45
1107,105	41
1107,459	39,22
1107,812	38,89
1108,166	38,67
1108,519	36,55
1108,873	40,38
1109,226	37,45
1109,579	39,42
1109,932	37,81
1110,285	36,88
1110,638	37,4
1110,991	40,75
1111,344	39,83
1111,697	40,46
1112,05	39,04
1112,402	37,4
1112,755	39,84
1113,107	37,85
1113,46	38,74
1113,812	39,61
1114,164	39,86
1114,517	40,21
1114,869	47,01
1115,221	52,42
1115,573	48,11
1115,924	42,34
