Data from D_3__Relative__2__00072.txt Node

Date: Mon Jan 29 18:15:47 CET 2024
User: diatiterra
Spectrometer: HDX00911
Trigger mode: 0
Integration Time (sec): 6,000000E-3
Scans to average: 2
Nonlinearity correction enabled: false
Boxcar width: 0
Storing dark spectrum: false
XAxis mode: Wavelengths
Number of Pixels in Spectrum: 2068
>>>>>Begin Spectral Data<<<<<
194,468	66,67
195,025	44,25
195,581	68,09
196,138	39,23
196,694	57,47
197,251	45,33
197,807	55,6
198,363	46,91
198,919	45,91
199,474	46,07
200,03	44,85
200,586	43,54
201,141	42,7
201,696	40,48
202,251	41,7
202,806	50
203,361	46,67
203,916	50
204,471	41,2
205,025	40,71
205,58	47,31
206,134	45,56
206,688	40,58
207,242	44,9
207,796	50,17
208,35	42,96
208,904	41,02
209,457	47,65
210,011	42,66
210,564	41,67
211,117	51,41
211,67	46,48
212,223	39,04
212,776	50,19
213,329	47,77
213,881	42,5
214,434	40,34
214,986	43,1
215,538	42,86
216,09	42,62
216,642	45,56
217,194	39,07
217,746	49,16
218,297	41,61
218,849	47,35
219,4	45,8
219,951	50,91
220,502	46,69
221,053	40,75
221,604	48,99
222,155	48,56
222,705	46,15
223,256	42,45
223,806	45,58
224,356	48,19
224,906	50
225,456	42,76
226,006	39,93
226,556	47,81
227,106	52,1
227,655	43,9
228,204	44,08
228,754	48,28
229,303	42,37
229,852	38,24
230,401	46,95
230,949	55,25
231,498	43,28
232,047	41,08
232,595	45,74
233,143	49,62
233,691	46,8
234,239	43,66
234,787	43,36
235,335	50
235,883	44,09
236,43	47,04
236,978	45,45
237,525	48,51
238,072	45,39
238,619	40,41
239,166	50,51
239,713	54,28
240,26	48,31
240,806	45,74
241,353	44,52
241,899	47,57
242,445	57,69
242,991	47,39
243,537	45,87
244,083	49,82
244,629	46,62
245,174	49,25
245,72	51,17
246,265	41,7
246,81	59,85
247,355	42,28
247,9	44,64
248,445	52,76
248,99	38,06
249,534	43,99
250,079	49,63
250,623	44,41
251,168	47,32
251,712	52,13
252,256	48,5
252,8	50,35
253,343	43,31
253,887	46,6
254,43	53,16
254,974	49,65
255,517	52,01
256,06	42,12
256,603	52,83
257,146	44,78
257,689	48,73
258,232	45,59
258,774	46,13
259,317	48,72
259,859	54,24
260,401	57,58
260,943	47,39
261,485	52,48
262,027	46,55
262,569	51,13
263,11	50,9
263,652	43,75
264,193	42,86
264,734	47,22
265,275	49,8
265,816	56,83
266,357	48,2
266,898	39,93
267,438	44,71
267,979	46,55
268,519	46,21
269,059	51,06
269,6	44,56
270,14	52,48
270,68	47,89
271,219	52,63
271,759	53,36
272,298	39,64
272,838	52,71
273,377	46,3
273,916	46,93
274,455	52,87
274,994	43,88
275,533	45,73
276,072	43,23
276,61	49,15
277,149	39,86
277,687	44,13
278,225	39,38
278,763	49,28
279,301	50,57
279,839	48,19
280,377	47,81
280,914	39,56
281,452	55,69
281,989	52,56
282,526	45,88
283,064	53,82
283,601	59,85
284,137	49,27
284,674	55,85
285,211	48,92
285,747	46,1
286,284	43,86
286,82	53,55
287,356	42,27
287,892	51,58
288,428	43,39
288,964	45,13
289,5	44,9
290,035	48,56
290,571	45,15
291,106	39,64
291,641	42,15
292,176	49,25
292,711	50
293,246	44,04
293,781	39,78
294,315	44,85
294,85	49,64
295,384	52,59
295,918	46,34
296,453	46,64
296,987	51,03
297,52	45,55
298,054	45,59
298,588	48,82
299,121	42,12
299,655	47,02
300,188	53,23
300,721	48,62
301,254	51,6
301,787	42,28
302,32	53,79
302,853	34,15
303,385	55,68
303,918	38,6
304,45	45,17
304,982	46,22
305,514	48,34
306,046	48,77
306,578	48,57
307,11	53,53
307,641	49,09
308,173	46,1
308,704	44,83
309,236	46,44
309,767	53,33
310,298	41,81
310,829	50,57
311,359	46,98
311,89	46,98
312,421	48,19
312,951	46,18
313,481	53,82
314,012	40,66
314,542	40,75
315,072	50,18
315,601	44,84
316,131	40,51
316,661	48,75
317,19	39,86
317,72	48,72
318,249	41,89
318,778	49,05
319,307	43,58
319,836	50
320,365	48,86
320,893	45,74
321,422	44,03
321,95	44,44
322,479	50,17
323,007	41,3
323,535	55,85
324,063	48,51
324,591	38
325,118	36,01
325,646	48,85
326,173	52,86
326,701	48
327,228	55,59
327,755	44,44
328,282	46,79
328,809	47,78
329,336	47,75
329,862	43,08
330,389	40,61
330,915	46,81
331,441	36,95
331,968	41,92
332,494	39,13
333,02	48,54
333,545	46,21
334,071	36,33
334,597	48,65
335,122	39,13
335,648	45,79
336,173	39,27
336,698	48,97
337,223	45,05
337,748	45,61
338,272	45,54
338,797	40,78
339,322	35,22
339,846	40,62
340,37	42,86
340,894	39,73
341,419	45,97
341,942	37,92
342,466	43,34
342,99	40
343,514	38,64
344,037	44,92
344,56	37,3
345,084	41,96
345,607	36,17
346,13	43,08
346,653	37,74
347,175	45,81
347,698	36,61
348,221	33,43
348,743	37,61
349,265	39,58
349,787	38,86
350,309	40,77
350,831	43,28
351,353	38,1
351,875	43,82
352,397	42,7
352,918	38,42
353,439	50,14
353,961	40,85
354,482	46,35
355,003	41,55
355,524	43,62
356,044	36,68
356,565	41,9
357,086	41,48
357,606	36,39
358,126	38,2
358,646	40,05
359,167	39,8
359,687	40,09
360,206	40,96
360,726	35,15
361,246	41,69
361,765	37,06
362,285	36,26
362,804	37,11
363,323	36,47
363,842	41,67
364,361	35,93
364,88	38,19
365,398	36,64
365,917	36,96
366,435	35,19
366,954	33,67
367,472	41,58
367,99	33,06
368,508	37,11
369,026	33,33
369,544	35,09
370,061	36,2
370,579	30,96
371,096	33,58
371,613	39,27
372,131	36,44
372,648	38,81
373,165	36,92
373,681	35,2
374,198	32,62
374,715	33,16
375,231	34,34
375,747	34,55
376,264	35,46
376,78	40,19
377,296	36,39
377,812	32,64
378,327	36
378,843	35,3
379,359	31,88
379,874	33,88
380,389	33,98
380,905	34,48
381,42	32,11
381,935	32,8
382,449	32,78
382,964	33,37
383,479	37,29
383,993	33,17
384,508	32,32
385,022	32,09
385,536	30,54
386,05	31,13
386,564	29,38
387,078	28,59
387,592	29,58
388,105	29,4
388,619	31,86
389,132	28,23
389,645	28,86
390,158	29,66
390,671	29,56
391,184	27,08
391,697	27,12
392,21	27,99
392,722	28,81
393,235	26,6
393,747	26,01
394,259	28,42
394,771	25,58
395,283	24,44
395,795	25,54
396,307	24,17
396,818	27,16
397,33	24,5
397,841	24,13
398,353	25,81
398,864	25,14
399,375	23,16
399,886	22,55
400,397	24,07
400,907	22,68
401,418	21,26
401,928	20,63
402,439	23,6
402,949	21,21
403,459	21,85
403,969	20,09
404,479	19,12
404,989	19,41
405,498	20,08
406,008	17,69
406,517	16,92
407,027	19,03
407,536	17,26
408,045	15,95
408,554	17,07
409,063	16,51
409,572	15,82
410,08	16,25
410,589	15,4
411,097	13,4
411,606	15,07
412,114	14,01
412,622	13,31
413,13	12,76
413,638	12,71
414,145	12,14
414,653	12,46
415,16	12,22
415,668	10,7
416,175	11,51
416,682	11,31
417,189	10,62
417,696	11,18
418,203	10,85
418,71	11,18
419,216	10,54
419,723	10,54
420,229	10,32
420,735	9,83
421,242	9,99
421,748	10,58
422,254	8,95
422,759	9,38
423,265	9,58
423,771	9,67
424,276	9,9
424,781	9,29
425,287	9,27
425,792	8,95
426,297	10,23
426,802	9,27
427,306	9,1
427,811	9,29
428,316	9,61
428,82	9,06
429,324	9,29
429,829	9,4
430,333	8,99
430,837	8,96
431,34	8,71
431,844	8,83
432,348	8,48
432,851	8,75
433,355	8,64
433,858	8,94
434,361	8,55
434,864	8,88
435,367	8,91
435,87	8,55
436,373	8,71
436,876	8,04
437,378	8,41
437,88	8,58
438,383	8,35
438,885	8,17
439,387	8,34
439,889	8,48
440,391	8,96
440,892	8,47
441,394	8,12
441,896	8,38
442,397	8,45
442,898	8,49
443,399	8,73
443,9	8,41
444,401	8,44
444,902	8,49
445,403	8,26
445,903	8,46
446,404	8,42
446,904	8,14
447,405	8,46
447,905	8,36
448,405	8,61
448,905	8,8
449,404	8,62
449,904	8,66
450,404	8,29
450,903	8,48
451,403	8,89
451,902	8,6
452,401	8,8
452,9	8,69
453,399	8,62
453,898	8,54
454,396	8,35
454,895	8,86
455,393	8,28
455,892	8,94
456,39	8,8
456,888	9,07
457,386	8,87
457,884	9,06
458,382	8,96
458,879	9,21
459,377	8,86
459,874	9,19
460,372	9,21
460,869	8,85
461,366	9,23
461,863	9,39
462,36	9,02
462,857	8,74
463,353	8,96
463,85	9,16
464,346	8,77
464,843	8,9
465,339	8,89
465,835	9,1
466,331	8,73
466,827	8,77
467,323	8,79
467,818	8,86
468,314	8,84
468,809	8,53
469,305	9,06
469,8	9,01
470,295	9,09
470,79	8,97
471,285	8,69
471,78	9,14
472,274	8,87
472,769	9,1
473,263	8,98
473,758	9,56
474,252	9,18
474,746	9,25
475,24	8,96
475,734	9,2
476,228	9,21
476,721	8,89
477,215	9,05
477,708	9,36
478,202	9,12
478,695	9,3
479,188	9,17
479,681	9,13
480,174	9,17
480,667	9,36
481,159	9,38
481,652	9,36
482,144	9,24
482,637	9,26
483,129	9,3
483,621	9,1
484,113	9,18
484,605	9,29
485,097	9,27
485,588	9,09
486,08	9,53
486,571	9,6
487,063	9,13
487,554	9,13
488,045	9,41
488,536	9,56
489,027	9,62
489,518	9,54
490,008	9,95
490,499	9,52
490,989	9,39
491,48	9,76
491,97	9,55
492,46	9,7
492,95	9,69
493,44	9,72
493,93	9,81
494,419	9,44
494,909	9,71
495,398	9,89
495,888	10,04
496,377	9,85
496,866	9,76
497,355	10,03
497,844	10,06
498,333	10,07
498,821	10,23
499,31	10,1
499,798	10,29
500,287	10,28
500,775	10,76
501,263	10,55
501,751	10,54
502,239	10,79
502,727	11,05
503,215	11,28
503,702	11,06
504,19	11,18
504,677	11,06
505,164	11,2
505,651	11,33
506,139	11,73
506,625	11,86
507,112	11,84
507,599	12,23
508,086	12,22
508,572	12,18
509,058	12,72
509,545	12,39
510,031	13,09
510,517	12,81
511,003	13,06
511,489	13,56
511,974	13,45
512,46	13,83
512,946	14,06
513,431	13,86
513,916	14,36
514,401	14,62
514,887	14,78
515,371	15,21
515,856	15,56
516,341	15,33
516,826	15,94
517,31	15,99
517,795	16,41
518,279	16,33
518,763	17,16
519,247	17,36
519,731	17,29
520,215	17,98
520,699	18,07
521,182	18,13
521,666	18,59
522,149	18,71
522,633	19,03
523,116	19,62
523,599	19,8
524,082	19,47
524,565	20,46
525,048	20,36
525,53	20,5
526,013	20,98
526,495	21,17
526,978	21,36
527,46	22,01
527,942	21,95
528,424	22,21
528,906	22,38
529,388	22,49
529,87	22,38
530,351	22,72
530,833	23,6
531,314	23,49
531,795	23,27
532,277	23,41
532,758	23,68
533,238	23,54
533,719	24,16
534,2	24,06
534,681	24,25
535,161	24,33
535,642	24,5
536,122	24,46
536,602	24,81
537,082	24,58
537,562	24,84
538,042	24,76
538,522	24,74
539,001	24,84
539,481	24,94
539,96	25,01
540,44	24,88
540,919	25,2
541,398	25,09
541,877	25,23
542,356	25,57
542,835	25,28
543,313	25,4
543,792	25,41
544,27	25,67
544,749	25,81
545,227	25,28
545,705	25,74
546,183	25,76
546,661	25,78
547,139	25,36
547,616	25,75
548,094	26,04
548,571	26,02
549,049	25,87
549,526	25,94
550,003	26,14
550,48	25,84
550,957	26,06
551,434	25,68
551,911	26,29
552,387	26,13
552,864	26,16
553,34	26,12
553,817	26,08
554,293	26,35
554,769	26,1
555,245	26,03
555,721	26,39
556,197	26,36
556,672	25,88
557,148	26,09
557,623	25,95
558,099	25,63
558,574	26,34
559,049	26,15
559,524	25,74
559,999	25,75
560,474	25,41
560,948	25,42
561,423	25,84
561,897	25,59
562,372	25,46
562,846	25,5
563,32	25,27
563,794	25,14
564,268	25,26
564,742	24,92
565,216	24,76
565,69	24,65
566,163	24,68
566,636	24,58
567,11	24,51
567,583	23,97
568,056	24,13
568,529	24,04
569,002	23,97
569,475	23,66
569,947	23,48
570,42	23,14
570,892	23,26
571,365	23,15
571,837	22,81
572,309	22,69
572,781	22,18
573,253	22,36
573,725	22,34
574,197	22,3
574,668	21,76
575,14	22,01
575,611	21,51
576,082	21,54
576,554	21,3
577,025	21,37
577,496	21,06
577,967	20,96
578,437	21,01
578,908	20,75
579,379	20,52
579,849	20,69
580,319	20,41
580,79	20,25
581,26	20,43
581,73	20,3
582,2	20,15
582,669	20,11
583,139	19,69
583,609	19,67
584,078	19,63
584,548	19,7
585,017	19,17
585,486	19,33
585,955	19,15
586,424	19,29
586,893	19,25
587,362	19,04
587,83	19,06
588,299	18,84
588,767	18,87
589,236	18,7
589,704	18,7
590,172	18,66
590,64	18,46
591,108	18,48
591,576	18,32
592,043	18,34
592,511	18,37
592,978	18,32
593,446	18,13
593,913	18,35
594,38	18,17
594,847	18,17
595,314	18,01
595,781	18,1
596,248	17,74
596,715	18,02
597,181	17,81
597,647	18,17
598,114	17,88
598,58	17,67
599,046	17,76
599,512	17,97
599,978	17,76
600,444	17,79
600,91	17,87
601,375	17,87
601,841	17,68
602,306	17,63
602,771	17,43
603,236	17,64
603,702	17,48
604,167	17,56
604,631	17,26
605,096	17,31
605,561	17,25
606,025	17,36
606,49	17
606,954	17,06
607,418	17,13
607,882	16,97
608,347	16,88
608,81	16,64
609,274	16,65
609,738	16,73
610,202	16,64
610,665	16,55
611,128	16,43
611,592	16,47
612,055	16,18
612,518	16,05
612,981	15,93
613,444	16,05
613,907	15,96
614,369	15,78
614,832	15,87
615,294	15,56
615,757	15,36
616,219	15,3
616,681	15,28
617,143	15,2
617,605	15,35
618,067	15,21
618,529	14,89
618,99	15,23
619,452	15,08
619,913	15,02
620,375	15,02
620,836	14,91
621,297	14,78
621,758	14,79
622,219	14,71
622,68	14,78
623,14	14,62
623,601	14,63
624,061	14,77
624,522	14,64
624,982	14,6
625,442	14,49
625,902	14,51
626,362	14,57
626,822	14,44
627,282	14,23
627,742	14,42
628,201	14,38
628,661	14,27
629,12	14,21
629,579	14,24
630,038	14,29
630,497	14,22
630,956	14,28
631,415	14,38
631,874	14,06
632,332	14,11
632,791	14,14
633,249	14,17
633,708	14,14
634,166	13,88
634,624	13,95
635,082	13,94
635,54	13,93
635,998	13,67
636,455	13,73
636,913	13,59
637,37	13,59
637,828	13,43
638,285	13,3
638,742	13,1
639,199	13,23
639,656	13,11
640,113	13,01
640,57	12,84
641,027	13,03
641,483	12,91
641,94	12,71
642,396	12,58
642,852	12,49
643,309	12,41
643,765	12,28
644,221	12,2
644,676	12,14
645,132	12,06
645,588	12
646,043	11,94
646,499	11,86
646,954	11,61
647,409	11,61
647,864	11,5
648,319	11,48
648,774	11,32
649,229	11,26
649,684	11,27
650,139	11,13
650,593	11,21
651,047	11,06
651,502	11,11
651,956	10,98
652,41	10,94
652,864	10,9
653,318	11,02
653,772	10,91
654,225	10,88
654,679	10,76
655,133	10,78
655,586	10,86
656,039	10,54
656,492	10,62
656,946	10,54
657,399	10,41
657,851	10,49
658,304	10,49
658,757	10,43
659,209	10,42
659,662	10,27
660,114	10,11
660,567	10,05
661,019	9,99
661,471	9,91
661,923	9,94
662,375	9,83
662,826	9,83
663,278	9,74
663,73	9,73
664,181	9,72
664,632	9,69
665,084	9,66
665,535	9,6
665,986	9,58
666,437	9,56
666,888	9,55
667,338	9,69
667,789	9,53
668,24	9,7
668,69	9,56
669,14	9,7
669,591	9,59
670,041	9,62
670,491	9,56
670,941	9,58
671,391	9,68
671,84	9,69
672,29	9,79
672,74	9,82
673,189	9,87
673,638	9,88
674,088	10,03
674,537	9,95
674,986	10,02
675,435	10,26
675,883	10,29
676,332	10,4
676,781	10,41
677,229	10,49
677,678	10,58
678,126	10,68
678,574	10,71
679,022	10,82
679,47	10,82
679,918	10,89
680,366	11,04
680,814	11,21
681,261	11,22
681,709	11,29
682,156	11,35
682,604	11,57
683,051	11,54
683,498	11,67
683,945	11,76
684,392	11,95
684,839	12
685,286	12,11
685,732	12,24
686,179	12,35
686,625	12,09
687,071	12,43
687,518	12,58
687,964	12,82
688,41	12,84
688,856	13
689,301	13,27
689,747	13,48
690,193	13,64
690,638	13,93
691,084	14,06
691,529	14,51
691,974	14,94
692,419	15,2
692,864	15,46
693,309	15,92
693,754	16,31
694,199	16,82
694,643	17,06
695,088	17,49
695,532	17,81
695,977	18,46
696,421	18,79
696,865	19,21
697,309	19,93
697,753	20,36
698,197	20,92
698,64	21,33
699,084	21,71
699,527	22,29
699,971	22,92
700,414	23,35
700,857	23,89
701,3	24,42
701,743	24,76
702,186	25,24
702,629	25,79
703,072	26,11
703,515	26,81
703,957	27,36
704,399	27,58
704,842	28,11
705,284	28,56
705,726	29,06
706,168	29,45
706,61	29,64
707,052	30,37
707,494	30,8
707,935	31,14
708,377	31,69
708,818	32,15
709,26	32,46
709,701	32,85
710,142	33,24
710,583	33,71
711,024	33,99
711,465	34,29
711,905	34,89
712,346	34,94
712,787	35,37
713,227	35,74
713,667	36,11
714,108	36,22
714,548	37,04
714,988	37,31
715,428	37,77
715,868	38,09
716,307	38,34
716,747	38,92
717,186	39,14
717,626	39,44
718,065	39,53
718,504	39,8
718,944	40,25
719,383	40,64
719,822	40,62
720,261	41,18
720,699	41,4
721,138	41,89
721,576	41,91
722,015	42,15
722,453	42,27
722,892	42,73
723,33	42,72
723,768	43,05
724,206	43,38
724,644	43,44
725,081	43,94
725,519	44,15
725,957	44,05
726,394	44,49
726,832	44,74
727,269	44,84
727,706	45,27
728,143	45,34
728,58	45,44
729,017	45,45
729,454	45,35
729,89	45,37
730,327	45,94
730,764	45,64
731,2	46,48
731,636	46,2
732,072	46,37
732,509	46,58
732,945	46,74
733,38	46,85
733,816	46,74
734,252	47,03
734,688	47,09
735,123	46,99
735,559	47,26
735,994	47,33
736,429	47,04
736,864	47,33
737,299	47,56
737,734	47,68
738,169	47,63
738,604	47,77
739,038	47,79
739,473	47,89
739,907	48,01
740,342	47,55
740,776	47,53
741,21	47,96
741,644	47,96
742,078	47,81
742,512	48,14
742,946	47,68
743,379	47,84
743,813	48,07
744,246	48,09
744,68	47,99
745,113	47,79
745,546	48,11
745,979	47,97
746,412	47,87
746,845	47,74
747,278	47,76
747,711	48,08
748,143	47,65
748,576	47,8
749,008	48,13
749,441	47,93
749,873	47,77
750,305	47,89
750,737	47,68
751,169	47,75
751,601	47,95
752,032	47,59
752,464	47,76
752,896	47,72
753,327	47,66
753,758	47,75
754,19	47,59
754,621	47,45
755,052	47,29
755,483	47,51
755,914	47,18
756,344	47,57
756,775	47,5
757,206	47,58
757,636	47,1
758,066	47,49
758,497	47,12
758,927	47,43
759,357	47,08
759,787	47,52
760,217	47
760,647	46,98
761,076	47,3
761,506	47
761,935	46,98
762,365	46,91
762,794	46,75
763,223	46,87
763,653	47,29
764,082	46,66
764,51	46,97
764,939	46,71
765,368	46,92
765,797	46,67
766,225	46,92
766,654	46,79
767,082	47,04
767,51	46,53
767,938	46,54
768,367	46,42
768,795	46,22
769,222	46,58
769,65	46,38
770,078	46,45
770,505	46,48
770,933	46,28
771,36	46,09
771,788	46,14
772,215	46,38
772,642	46,63
773,069	46,52
773,496	46,3
773,923	46,5
774,349	46,35
774,776	46,04
775,203	45,94
775,629	46,43
776,055	46,19
776,482	46,28
776,908	46,07
777,334	46,25
777,76	46,08
778,186	45,97
778,611	46,06
779,037	46,3
779,463	45,92
779,888	45,87
780,314	46,33
780,739	45,74
781,164	45,82
781,589	46,19
782,014	46,16
782,439	45,99
782,864	45,99
783,289	45,91
783,713	45,84
784,138	45,91
784,562	46,08
784,987	46,07
785,411	45,36
785,835	45,82
786,259	45,53
786,683	45,77
787,107	46,02
787,531	45,66
787,954	46,06
788,378	45,67
788,802	45,69
789,225	45,63
789,648	45,58
790,071	45,72
790,495	45,91
790,918	45,62
791,34	45,93
791,763	45,81
792,186	45,77
792,609	45,51
793,031	46,03
793,454	45,68
793,876	45,64
794,298	45,57
794,721	45,41
795,143	45,61
795,565	45,09
795,986	45,48
796,408	45,89
796,83	45,56
797,252	45,8
797,673	45,48
798,094	45,63
798,516	45,49
798,937	45,43
799,358	45,32
799,779	45,62
800,2	45,54
800,621	45,26
801,042	45,8
801,462	45,48
801,883	45,61
802,303	45,36
802,724	45,11
803,144	45,7
803,564	45,33
803,984	45,61
804,404	45,26
804,824	45,64
805,244	45,54
805,664	45,52
806,084	45,3
806,503	45,49
806,923	45,48
807,342	45,45
807,761	45,03
808,18	45,4
808,599	45,45
809,018	45,58
809,437	45,36
809,856	45,21
810,275	45,71
810,693	45,41
811,112	45,48
811,53	45,44
811,949	45,25
812,367	45,29
812,785	45,3
813,203	45,32
813,621	45,45
814,039	45,29
814,457	45,4
814,874	45,44
815,292	45,59
815,709	45,32
816,127	45,23
816,544	45,57
816,961	45,47
817,378	45,57
817,795	45,31
818,212	45,38
818,629	45,25
819,046	45,26
819,462	45,35
819,879	45,36
820,295	45,45
820,712	45,54
821,128	45,49
821,544	45,33
821,96	45,23
822,376	45,35
822,792	45,16
823,208	45,23
823,624	45,28
824,039	45,18
824,455	45,67
824,87	45,45
825,286	45,42
825,701	45,21
826,116	45,41
826,531	45,43
826,946	45,38
827,361	45,39
827,776	45,44
828,19	45,43
828,605	45,2
829,02	45,46
829,434	44,96
829,848	45,18
830,263	45,01
830,677	45,33
831,091	45,15
831,505	45,07
831,919	45,19
832,332	45,17
832,746	45,26
833,16	45,15
833,573	45,14
833,987	45,24
834,4	44,72
834,813	45,27
835,226	45,16
835,639	45
836,052	45,13
836,465	45,15
836,878	44,98
837,29	45,24
837,703	45,08
838,116	45,19
838,528	44,97
838,94	45,02
839,352	45,26
839,765	44,88
840,177	45,16
840,589	44,99
841	45,28
841,412	45,04
841,824	44,98
842,235	45,45
842,647	44,74
843,058	44,88
843,47	45,06
843,881	44,92
844,292	44,78
844,703	45,12
845,114	45,14
845,525	45,06
845,935	45,23
846,346	44,91
846,757	44,83
847,167	45,07
847,577	45,13
847,988	44,92
848,398	45,26
848,808	45,17
849,218	44,96
849,628	45,07
850,038	45,15
850,448	45,06
850,857	44,96
851,267	44,93
851,676	45,06
852,086	45,05
852,495	45,01
852,904	44,83
853,313	45,22
853,722	44,91
854,131	44,74
854,54	44,92
854,949	45,23
855,357	44,98
855,766	45,11
856,174	44,77
856,583	44,74
856,991	44,72
857,399	44,7
857,807	44,85
858,215	45,12
858,623	44,65
859,031	44,85
859,439	44,7
859,846	44,9
860,254	44,84
860,661	44,8
861,069	44,68
861,476	45,04
861,883	44,72
862,29	44,75
862,697	44,82
863,104	44,63
863,511	44,5
863,918	44,49
864,325	44,46
864,731	45
865,138	45,02
865,544	45
865,95	44,86
866,357	44,85
866,763	45,09
867,169	44,49
867,575	45,07
867,98	44,55
868,386	44,92
868,792	44,97
869,197	44,96
869,603	44,83
870,008	44,64
870,414	44,53
870,819	44,94
871,224	44,64
871,629	44,91
872,034	44,46
872,439	45,06
872,844	44,7
873,248	44,89
873,653	45,05
874,057	44,71
874,462	44,71
874,866	44,66
875,27	44,44
875,674	44,9
876,078	44,91
876,482	44,98
876,886	44,85
877,29	44,78
877,694	44,96
878,097	44,93
878,501	44,97
878,904	44,97
879,308	44,54
879,711	44,8
880,114	44,59
880,517	44,52
880,92	44,67
881,323	44,79
881,726	44,95
882,128	44,76
882,531	44,67
882,934	45,01
883,336	44,48
883,738	44,61
884,141	44,64
884,543	44,88
884,945	44,59
885,347	44,59
885,749	44,84
886,151	44,92
886,552	44,84
886,954	44,64
887,355	44,81
887,757	44,73
888,158	44,78
888,56	44,77
888,961	44,76
889,362	44,92
889,763	44,77
890,164	44,83
890,565	44,53
890,965	44,65
891,366	44,59
891,767	44,79
892,167	44,98
892,567	44,71
892,968	44,82
893,368	44,31
893,768	44,61
894,168	44,61
894,568	44,91
894,968	44,56
895,368	44,74
895,767	44,86
896,167	44,84
896,566	44,7
896,966	44,69
897,365	44,87
897,764	44,41
898,164	45,05
898,563	44,44
898,962	44,56
899,361	44,7
899,759	44,66
900,158	44,62
900,557	44,57
900,955	44,75
901,354	44,98
901,752	44,57
902,15	44,99
902,548	44,87
902,947	44,49
903,345	44,73
903,742	44,93
904,14	44,33
904,538	44,83
904,936	44,92
905,333	44,59
905,731	44,74
906,128	44,5
906,525	44,56
906,923	44,81
907,32	44,68
907,717	44,75
908,114	44,56
908,511	44,57
908,907	44,28
909,304	44,61
909,701	44,49
910,097	44,79
910,494	44,68
910,89	44,7
911,286	44,94
911,682	44,37
912,078	44,51
912,474	44,55
912,87	44,37
913,266	44,82
913,662	44,03
914,058	44,72
914,453	44,65
914,849	44,55
915,244	44,5
915,639	44,57
916,034	44,34
916,43	44,45
916,825	44,62
917,22	44,86
917,614	44,41
918,009	44,69
918,404	44,82
918,798	45,07
919,193	44,39
919,587	44,38
919,982	44,4
920,376	44,51
920,77	44,71
921,164	44,73
921,558	44,76
921,952	44,6
922,346	44,24
922,74	44,62
923,133	44,69
923,527	44,49
923,92	44,53
924,314	44,64
924,707	44,52
925,1	44,4
925,493	44,57
925,886	44,23
926,279	44,71
926,672	44,49
927,065	44,44
927,457	44,08
927,85	44,41
928,243	44,03
928,635	44,23
929,027	44,31
929,42	44,31
929,812	44,19
930,204	44,36
930,596	44,3
930,988	44,21
931,379	44,13
931,771	44,19
932,163	44,52
932,554	44,11
932,946	44,49
933,337	44,19
933,729	44,83
934,12	43,81
934,511	44,44
934,902	44,16
935,293	44,46
935,684	44,33
936,075	43,82
936,465	44,23
936,856	44,22
937,246	43,82
937,637	43,91
938,027	43,7
938,417	44,02
938,808	44,19
939,198	44,17
939,588	44,06
939,978	44,51
940,368	43,87
940,757	43,98
941,147	43,49
941,537	43,86
941,926	44,51
942,315	44,07
942,705	43,74
943,094	44,48
943,483	43,68
943,872	44,05
944,261	43,85
944,65	44,07
945,039	44,08
945,428	44,15
945,816	43,76
946,205	44,01
946,593	43,37
946,982	43,74
947,37	43,57
947,758	43,9
948,146	43,63
948,534	43,43
948,922	43,73
949,31	44,05
949,698	44,27
950,086	43,17
950,473	43,71
950,861	43,47
951,248	43,4
951,636	43,48
952,023	42,98
952,41	43,48
952,797	42,81
953,184	43,35
953,571	43,44
953,958	42,94
954,345	42,6
954,731	42,97
955,118	42,75
955,505	43,14
955,891	42,74
956,277	42,85
956,664	43,3
957,05	42,77
957,436	43,5
957,822	42,77
958,208	43,2
958,594	42,6
958,979	42,85
959,365	43,24
959,751	42,95
960,136	42,94
960,522	42,69
960,907	42,62
961,292	42,62
961,677	42,75
962,062	42,82
962,447	42,58
962,832	42,97
963,217	42,69
963,602	43,08
963,986	43,15
964,371	42,48
964,756	42,7
965,14	42,59
965,524	42,67
965,908	43,11
966,293	42,87
966,677	43,23
967,061	42,74
967,445	42,62
967,828	42,56
968,212	42,99
968,596	42,75
968,979	42,84
969,363	43,11
969,746	42,65
970,129	42,85
970,513	42,74
970,896	42,98
971,279	43,07
971,662	42,52
972,045	42,99
972,428	42,8
972,81	42,32
973,193	42,62
973,575	42,85
973,958	42,91
974,34	43,01
974,723	42,95
975,105	42,88
975,487	42,92
975,869	42,9
976,251	42,44
976,633	42,86
977,015	43,5
977,396	42,65
977,778	43,07
978,16	42,68
978,541	43,06
978,922	42,82
979,304	42,99
979,685	42,93
980,066	43,26
980,447	42,97
980,828	42,59
981,209	42,83
981,59	42,97
981,97	42,55
982,351	42,97
982,732	43
983,112	42,89
983,493	42,92
983,873	42,76
984,253	43,47
984,633	42,89
985,013	42,84
985,393	42,8
985,773	42,53
986,153	42,85
986,533	43,2
986,912	42,57
987,292	42,87
987,671	43,28
988,051	42,29
988,43	42,48
988,809	43,23
989,188	43,16
989,567	43,13
989,946	42,89
990,325	43,32
990,704	43,34
991,083	43,07
991,461	43,47
991,84	42,94
992,218	43,13
992,597	42,62
992,975	43,53
993,353	43,26
993,732	43,25
994,11	43,15
994,488	43,16
994,866	43,18
995,243	43,08
995,621	43,25
995,999	42,93
996,376	43,22
996,754	43,23
997,131	43,58
997,509	42,4
997,886	42,57
998,263	43,21
998,64	43,1
999,017	42,92
999,394	43,29
999,771	43,03
1000,148	43,56
1000,524	43,16
1000,901	43,56
1001,277	42,99
1001,654	43,43
1002,03	43,01
1002,406	43,01
1002,783	43,15
1003,159	43,61
1003,535	43,44
1003,911	43,25
1004,286	42,94
1004,662	43,61
1005,038	42,48
1005,414	43,36
1005,789	42,88
1006,164	42,8
1006,54	42,91
1006,915	43,18
1007,29	43,52
1007,665	43,05
1008,04	43,24
1008,415	43,63
1008,79	43,69
1009,165	43,45
1009,54	43,32
1009,914	43,47
1010,289	43,39
1010,663	43,48
1011,038	43,11
1011,412	43,01
1011,786	43,42
1012,16	43,41
1012,535	43,13
1012,909	43,49
1013,282	43,27
1013,656	43,09
1014,03	44,08
1014,404	43,68
1014,777	43,04
1015,151	43,16
1015,524	43,2
1015,897	44,3
1016,271	43,85
1016,644	43,18
1017,017	43,32
1017,39	42,72
1017,763	43,48
1018,136	43,88
1018,508	43,88
1018,881	43,52
1019,254	43,43
1019,626	43,89
1019,999	43,26
1020,371	44,1
1020,743	43,46
1021,116	43,85
1021,488	43,32
1021,86	43,64
1022,232	43,81
1022,604	42,96
1022,975	44,06
1023,347	43,7
1023,719	43,94
1024,09	43,03
1024,462	43,5
1024,833	43,45
1025,204	43,43
1025,576	44,2
1025,947	43,35
1026,318	43,21
1026,689	43,9
1027,06	43,4
1027,431	44,07
1027,801	44,15
1028,172	43,75
1028,543	43,64
1028,913	43,5
1029,284	43,08
1029,654	43,9
1030,024	43,14
1030,394	43,15
1030,764	44,28
1031,135	43,4
1031,504	43,55
1031,874	43,87
1032,244	43,93
1032,614	43,99
1032,983	43,74
1033,353	43,86
1033,722	43,24
1034,092	44,13
1034,461	43,22
1034,83	43,65
1035,2	43,51
1035,569	43,79
1035,938	44,05
1036,307	43,66
1036,675	42,95
1037,044	44,17
1037,413	42,8
1037,781	43,91
1038,15	42,71
1038,518	43,77
1038,887	43,87
1039,255	43,66
1039,623	42,98
1039,991	43,73
1040,359	42,97
1040,727	43,8
1041,095	44,15
1041,463	44,41
1041,831	43,57
1042,198	43,28
1042,566	43,5
1042,933	43,63
1043,301	43,43
1043,668	43,13
1044,035	43,83
1044,402	43,95
1044,77	44,64
1045,137	43,96
1045,503	43,23
1045,87	44,96
1046,237	43,15
1046,604	43,4
1046,97	43,97
1047,337	43,82
1047,703	43,55
1048,07	44,12
1048,436	43,78
1048,802	44,03
1049,168	43,95
1049,534	44,04
1049,9	44,27
1050,266	44,56
1050,632	44,12
1050,998	44,02
1051,364	43,61
1051,729	43,64
1052,095	43,39
1052,46	44,15
1052,825	44,19
1053,191	44,1
1053,556	44,58
1053,921	43,85
1054,286	44,25
1054,651	44,77
1055,016	43,83
1055,381	43,18
1055,745	44,52
1056,11	44,21
1056,475	43,65
1056,839	44,22
1057,203	43,71
1057,568	43,99
1057,932	42,63
1058,296	43,73
1058,66	43,51
1059,024	44,5
1059,388	44,24
1059,752	43,95
1060,116	43,6
1060,48	44,33
1060,843	44,25
1061,207	44,21
1061,57	44,24
1061,934	44,69
1062,297	44,84
1062,66	44,97
1063,023	43,2
1063,386	42,8
1063,749	43,3
1064,112	44,15
1064,475	43,41
1064,838	43,65
1065,201	43,56
1065,563	43,52
1065,926	43,4
1066,288	44,63
1066,651	42,77
1067,013	43,51
1067,375	42,9
1067,737	43,16
1068,099	44,61
1068,461	43,05
1068,823	43,01
1069,185	44,41
1069,547	43,31
1069,909	43,27
1070,27	44,38
1070,632	44,09
1070,993	43,5
1071,355	43,73
1071,716	43,88
1072,077	44,29
1072,438	43,9
1072,799	44,76
1073,16	43,99
1073,521	44,19
1073,882	44,22
1074,243	43,91
1074,603	42,82
1074,964	43,33
1075,325	44,95
1075,685	45,3
1076,045	43,98
1076,406	44,87
1076,766	45,03
1077,126	44,97
1077,486	44,08
1077,846	44,14
1078,206	44,01
1078,566	44,54
1078,925	44,16
1079,285	44,78
1079,645	44,55
1080,004	43,19
1080,364	43,92
1080,723	42,92
1081,082	44,27
1081,442	44,72
1081,801	44,83
1082,16	45,34
1082,519	43,16
1082,878	45,53
1083,237	42,76
1083,595	44,74
1083,954	45,48
1084,313	43,89
1084,671	44,95
1085,03	44,35
1085,388	44,4
1085,746	44,96
1086,104	43,95
1086,463	45,65
1086,821	43,18
1087,179	43,98
1087,537	44,66
1087,894	44,23
1088,252	43,31
1088,61	44,3
1088,967	44,42
1089,325	43,83
1089,682	41,95
1090,04	45,22
1090,397	43,33
1090,754	44,78
1091,111	43,94
1091,469	43,91
1091,826	44,75
1092,182	42,43
1092,539	43,66
1092,896	45,8
1093,253	42,83
1093,609	45,56
1093,966	42,31
1094,322	45,02
1094,679	43,96
1095,035	43,39
1095,391	43,92
1095,748	45,13
1096,104	43,23
1096,46	43,05
1096,816	43,97
1097,171	42,83
1097,527	45,22
1097,883	42,6
1098,239	44,49
1098,594	43,22
1098,95	44,99
1099,305	43,72
1099,66	44,57
1100,016	47,4
1100,371	43,37
1100,726	44,3
1101,081	43,13
1101,436	45,48
1101,791	44,91
1102,146	42,58
1102,5	43,51
1102,855	43,18
1103,21	44,44
1103,564	44,16
1103,918	45,05
1104,273	44,87
1104,627	44,4
1104,981	42,9
1105,335	45,21
1105,69	43,53
1106,043	45,3
1106,397	43,19
1106,751	44,71
1107,105	45,6
1107,459	44,21
1107,812	42,64
1108,166	45,66
1108,519	44,54
1108,873	43,43
1109,226	42,8
1109,579	45,26
1109,932	43,1
1110,285	42,52
1110,638	45,17
1110,991	44,97
1111,344	45,18
1111,697	45,52
1112,05	45,07
1112,402	44,12
1112,755	45,14
1113,107	43,34
1113,46	44,63
1113,812	44,98
1114,164	44,91
1114,517	48,32
1114,869	53,85
1115,221	65,32
1115,573	57,55
1115,924	52,55
