Data from D_5__Relative__4__00085.txt Node

Date: Mon Jan 29 18:17:38 CET 2024
User: diatiterra
Spectrometer: HDX00911
Trigger mode: 0
Integration Time (sec): 6,000000E-3
Scans to average: 2
Nonlinearity correction enabled: false
Boxcar width: 0
Storing dark spectrum: false
XAxis mode: Wavelengths
Number of Pixels in Spectrum: 2068
>>>>>Begin Spectral Data<<<<<
194,468	62,75
195,025	37,17
195,581	59,57
196,138	40,77
196,694	46,55
197,251	36,44
197,807	45,2
198,363	36,73
198,919	35,94
199,474	39,64
200,03	35,29
200,586	33,33
201,141	37,83
201,696	34,95
202,251	35,06
202,806	34,21
203,361	37,89
203,916	42,81
204,471	39,08
205,025	37,5
205,58	39,78
206,134	42,22
206,688	34,06
207,242	41,16
207,796	34,92
208,35	31,41
208,904	35,59
209,457	40,43
210,011	40,56
210,564	35,76
211,117	30,28
211,67	42,96
212,223	31,85
212,776	42,7
213,329	32,99
213,881	28,57
214,434	38,28
214,986	33,67
215,538	32,97
216,09	32,79
216,642	37,41
217,194	36,42
217,746	35,69
218,297	40,94
218,849	38,94
219,4	41,96
219,951	42,91
220,502	34,15
221,053	33,23
221,604	43,62
222,155	41,15
222,705	39,46
223,256	44,6
223,806	41,84
224,356	40,58
224,906	34,07
225,456	28,62
226,006	30,2
226,556	37,23
227,106	41,96
227,655	38,68
228,204	35,53
228,754	36,9
229,303	35,59
229,852	38,24
230,401	35,84
230,949	51,75
231,498	45,15
232,047	36,7
232,595	42,91
233,143	48,11
233,691	38,8
234,239	32,09
234,787	37,06
235,335	32,65
235,883	36,56
236,43	40,74
236,978	44
237,525	38,81
238,072	25,46
238,619	33,56
239,166	38,05
239,713	38,66
240,26	38,2
240,806	37,59
241,353	47
241,899	39,16
242,445	37,41
242,991	38,68
243,537	42,57
244,083	40,73
244,629	41,55
245,174	41,04
245,72	34,45
246,265	36,75
246,81	40,15
247,355	30,15
247,9	39,79
248,445	45,17
248,99	35,99
249,534	43,04
250,079	37,31
250,623	28,14
251,168	42,28
251,712	34,04
252,256	38,21
252,8	42,71
253,343	38,85
253,887	38,44
254,43	45,35
254,974	41,26
255,517	38,93
256,06	28,08
256,603	38,11
257,146	35,35
257,689	31,01
258,232	42,15
258,774	40,59
259,317	35,53
259,859	35,42
260,401	38,26
260,943	42,91
261,485	34,75
262,027	33,1
262,569	49,25
263,11	38,99
263,652	40,44
264,193	33,93
264,734	36,11
265,275	36,55
265,816	43,17
266,357	40,65
266,898	36,18
267,438	29,02
267,979	37,82
268,519	36,1
269,059	40,78
269,6	33,68
270,14	39,6
270,68	38,31
271,219	31,23
271,759	33,96
272,298	31,64
272,838	37,21
273,377	33,33
273,916	36,82
274,455	31,42
274,994	30,22
275,533	34,13
276,072	36,84
276,61	38,23
277,149	26,81
277,687	40,57
278,225	33,56
278,763	37,68
279,301	44,15
279,839	26,45
280,377	36,13
280,914	33,33
281,452	32,93
281,989	40,61
282,526	36,2
283,064	32,29
283,601	42,05
284,137	38,32
284,674	41,13
285,211	24,46
285,747	35,93
286,284	27,02
286,82	37,94
287,356	37,11
287,892	32,28
288,428	38,64
288,964	38,63
289,5	40,48
290,035	37,05
290,571	31,72
291,106	29,82
291,641	32,18
292,176	42,11
292,711	40
293,246	32,13
293,781	33,46
294,315	37,5
294,85	40,51
295,384	43,33
295,918	38,68
296,453	37,46
296,987	37,59
297,52	32,88
298,054	36,4
298,588	33,86
299,121	34,07
299,655	39,3
300,188	39,92
300,721	31,72
301,254	40,93
301,787	32,93
302,32	37,5
302,853	38,68
303,385	37,36
303,918	38,25
304,45	31,66
304,982	46,22
305,514	35,42
306,046	29,12
306,578	38,57
307,11	37,92
307,641	34,91
308,173	31,97
308,704	44,06
309,236	38,95
309,767	32,92
310,298	35,54
310,829	43,73
311,359	40,21
311,89	39,15
312,421	37,32
312,951	35,27
313,481	38,15
314,012	37
314,542	38,01
315,072	33,45
315,601	40,21
316,131	33,21
316,661	37,08
317,19	31,67
317,72	41,03
318,249	42,91
318,778	30,42
319,307	27,7
319,836	42,62
320,365	39,74
320,893	39,36
321,422	27,99
321,95	35,56
322,479	38,06
323,007	35,14
323,535	50,94
324,063	36,19
324,591	32
325,118	32,87
325,646	40,77
326,173	45,36
326,701	28,36
327,228	36,1
327,755	36,92
328,282	31,7
328,809	34,44
329,336	32,18
329,862	35,77
330,389	32,42
330,915	35,46
331,441	30,85
331,968	39,52
332,494	26,76
333,02	33,21
333,545	32,85
334,071	40
334,597	28,38
335,122	35,45
335,648	33,7
336,173	35,64
336,698	31,85
337,223	38,91
337,748	29,82
338,272	28,71
338,797	34,95
339,322	30,9
339,846	27,73
340,37	32,6
340,894	37,67
341,419	37,25
341,942	35,23
342,466	34,81
342,99	27,69
343,514	26,95
344,037	35,41
344,56	31,97
345,084	34,38
345,607	33,74
346,13	33,85
346,653	31,13
347,175	36,13
347,698	32,44
348,221	33,72
348,743	34,69
349,265	30,95
349,787	30,29
350,309	35,54
350,831	35,22
351,353	33,86
351,875	34,55
352,397	25,07
352,918	33,62
353,439	34,96
353,961	32,96
354,482	32,58
355,003	27,08
355,524	34,18
356,044	32,98
356,565	30,42
357,086	30,28
357,606	28,43
358,126	30,17
358,646	31,09
359,167	30,47
359,687	31,84
360,206	30,6
360,726	28,03
361,246	33,01
361,765	24,34
362,285	27,49
362,804	30,67
363,323	30,5
363,842	36,9
364,361	30,52
364,88	32,91
365,398	31,13
365,917	27,93
366,435	31,12
366,954	29,66
367,472	29,85
367,99	28,13
368,508	30,08
369,026	23,84
369,544	26,18
370,061	28,3
370,579	28,14
371,096	29,74
371,613	31,38
372,131	29,4
372,648	33,57
373,165	30,16
373,681	28,37
374,198	26,89
374,715	29,86
375,231	25,76
375,747	30,91
376,264	30,19
376,78	31,9
377,296	26,58
377,812	28,04
378,327	25,93
378,843	28,06
379,359	26,23
379,874	26,37
380,389	27,37
380,905	25,86
381,42	26,63
381,935	28
382,449	27,57
382,964	28,26
383,479	26,05
383,993	26,2
384,508	25,18
385,022	25,2
385,536	26,06
386,05	22,19
386,564	24,66
387,078	25,76
387,592	26,15
388,105	25,17
388,619	22,22
389,132	24,9
389,645	26,44
390,158	22,31
390,671	23,12
391,184	22,14
391,697	21,35
392,21	22,05
392,722	20,37
393,235	23,57
393,747	23,1
394,259	22,38
394,771	21,12
395,283	20,46
395,795	21,35
396,307	22,46
396,818	21,86
397,33	19,17
397,841	18,97
398,353	19,26
398,864	20,13
399,375	17,49
399,886	18,39
400,397	18,46
400,907	17,88
401,418	17,22
401,928	15,98
402,439	17,67
402,949	17,15
403,459	15,65
403,969	16,7
404,479	15,06
404,989	16,11
405,498	15,61
406,008	13,67
406,517	15,06
407,027	13,52
407,536	14,25
408,045	12,75
408,554	12,55
409,063	11,18
409,572	12,31
410,08	12,37
410,589	11,76
411,097	11,06
411,606	10,22
412,114	11,19
412,622	10,62
413,13	9,85
413,638	9,29
414,145	9,04
414,653	8,72
415,16	9,23
415,668	8,46
416,175	8,96
416,682	8,86
417,189	8,13
417,696	8,18
418,203	8,59
418,71	7,96
419,216	8,01
419,723	7,8
420,229	7,61
420,735	7,16
421,242	7,64
421,748	8,06
422,254	7,29
422,759	7,26
423,265	6,54
423,771	7
424,276	7,53
424,781	7,32
425,287	7,14
425,792	6,92
426,297	7,19
426,802	6,5
427,306	6,78
427,811	6,32
428,316	6,61
428,82	6,55
429,324	6,88
429,829	6,98
430,333	6,67
430,837	6,34
431,34	6,55
431,844	6,55
432,348	6,69
432,851	6,15
433,355	6,37
433,858	5,97
434,361	6,25
434,864	6,55
435,367	6,23
435,87	6,46
436,373	6,6
436,876	5,9
437,378	6,12
437,88	6,04
438,383	6,33
438,885	6,3
439,387	5,89
439,889	6,15
440,391	6,1
440,892	5,94
441,394	5,99
441,896	6,12
442,397	6,29
442,898	6,02
443,399	6,27
443,9	6,41
444,401	6,53
444,902	6,26
445,403	5,96
445,903	6,44
446,404	6,46
446,904	6,07
447,405	6,25
447,905	6,54
448,405	6,23
448,905	6,65
449,404	6,58
449,904	6,49
450,404	6,4
450,903	6,39
451,403	6,53
451,902	6,71
452,401	6,39
452,9	6,45
453,399	6,76
453,898	6,71
454,396	6,66
454,895	6,66
455,393	6,59
455,892	6,52
456,39	6,53
456,888	6,51
457,386	6,48
457,884	6,8
458,382	6,92
458,879	6,66
459,377	6,41
459,874	6,86
460,372	6,57
460,869	6,82
461,366	6,75
461,863	6,69
462,36	6,79
462,857	6,76
463,353	6,56
463,85	6,65
464,346	6,61
464,843	6,77
465,339	6,85
465,835	6,44
466,331	6,51
466,827	6,73
467,323	6,58
467,818	6,66
468,314	6,59
468,809	6,8
469,305	6,69
469,8	6,44
470,295	6,86
470,79	6,77
471,285	6,7
471,78	6,73
472,274	6,78
472,769	6,57
473,263	6,61
473,758	6,82
474,252	6,64
474,746	7
475,24	6,49
475,734	6,57
476,228	6,69
476,721	6,76
477,215	6,5
477,708	6,95
478,202	6,62
478,695	6,74
479,188	6,97
479,681	6,93
480,174	6,65
480,667	7,03
481,159	6,94
481,652	6,82
482,144	6,76
482,637	6,88
483,129	7,01
483,621	6,79
484,113	7
484,605	6,82
485,097	7,04
485,588	7,11
486,08	7,23
486,571	7,28
487,063	7
487,554	6,86
488,045	7,22
488,536	6,8
489,027	7,01
489,518	7,2
490,008	7,2
490,499	7,26
490,989	7
491,48	7,2
491,97	7,24
492,46	7,28
492,95	7,37
493,44	7,47
493,93	7,4
494,419	7,49
494,909	7,51
495,398	7,58
495,888	7,42
496,377	7,54
496,866	7,92
497,355	7,92
497,844	7,99
498,333	8,03
498,821	8,03
499,31	8,41
499,798	8,21
500,287	8,27
500,775	8,55
501,263	8,64
501,751	8,62
502,239	8,76
502,727	8,82
503,215	8,97
503,702	9,11
504,19	9,07
504,677	9,35
505,164	9,3
505,651	9,72
506,139	9,79
506,625	9,82
507,112	10,38
507,599	10,3
508,086	10,14
508,572	10,51
509,058	10,84
509,545	10,87
510,031	11,05
510,517	11,24
511,003	11,41
511,489	11,88
511,974	11,76
512,46	12,05
512,946	12,37
513,431	12,32
513,916	12,81
514,401	13
514,887	13,16
515,371	13,33
515,856	13,81
516,341	13,86
516,826	14,44
517,31	14,55
517,795	14,73
518,279	14,83
518,763	15,18
519,247	15,58
519,731	15,88
520,215	16,4
520,699	16,27
521,182	16,59
521,666	17,11
522,149	17,29
522,633	17,44
523,116	17,64
523,599	17,81
524,082	18,45
524,565	18,59
525,048	18,85
525,53	18,88
526,013	19,28
526,495	19,24
526,978	19,79
527,46	20,26
527,942	20,08
528,424	20,4
528,906	20,28
529,388	20,43
529,87	20,63
530,351	20,72
530,833	21,03
531,314	21,36
531,795	21,69
532,277	21,59
532,758	21,77
533,238	21,83
533,719	22,07
534,2	22,13
534,681	22,19
535,161	22,67
535,642	22,36
536,122	22,39
536,602	22,58
537,082	22,79
537,562	22,71
538,042	22,44
538,522	22,83
539,001	22,81
539,481	22,65
539,96	22,62
540,44	22,77
540,919	23,17
541,398	23,02
541,877	23,07
542,356	23,3
542,835	23,13
543,313	23,22
543,792	22,9
544,27	22,66
544,749	23,63
545,227	23,11
545,705	23,48
546,183	23,08
546,661	23,51
547,139	23,51
547,616	23,65
548,094	23,72
548,571	23,51
549,049	24,02
549,526	23,42
550,003	23,55
550,48	23,58
550,957	23,74
551,434	23,73
551,911	23,71
552,387	23,59
552,864	24,04
553,34	23,71
553,817	23,95
554,293	23,78
554,769	23,6
555,245	23,83
555,721	23,68
556,197	23,67
556,672	23,57
557,148	23,73
557,623	23,7
558,099	23,61
558,574	23,72
559,049	23,8
559,524	23,5
559,999	23,16
560,474	23,15
560,948	23,59
561,423	23,79
561,897	23,34
562,372	23,58
562,846	23,16
563,32	23,17
563,794	23,19
564,268	22,67
564,742	22,9
565,216	22,43
565,69	22,1
566,163	22,55
566,636	22,52
567,11	21,97
567,583	22,14
568,056	21,89
568,529	21,75
569,002	21,41
569,475	21,6
569,947	21,29
570,42	21,41
570,892	20,95
571,365	20,95
571,837	21,08
572,309	20,57
572,781	20,38
573,253	20,29
573,725	20,16
574,197	19,92
574,668	19,96
575,14	19,69
575,611	19,28
576,082	19,36
576,554	19,15
577,025	19,22
577,496	19,08
577,967	18,81
578,437	18,97
578,908	18,75
579,379	18,51
579,849	18,82
580,319	18,23
580,79	18,19
581,26	18,47
581,73	18,11
582,2	18,09
582,669	17,94
583,139	17,64
583,609	17,7
584,078	17,54
584,548	17,67
585,017	17,42
585,486	16,9
585,955	17,35
586,424	16,95
586,893	16,93
587,362	17,11
587,83	17,12
588,299	16,9
588,767	16,96
589,236	16,71
589,704	16,59
590,172	16,31
590,64	16,56
591,108	16,23
591,576	16,58
592,043	16,3
592,511	16,28
592,978	16,25
593,446	16,29
593,913	16,07
594,38	16,1
594,847	16,17
595,314	16,05
595,781	15,96
596,248	15,97
596,715	15,83
597,181	15,99
597,647	15,81
598,114	15,66
598,58	15,93
599,046	15,92
599,512	15,73
599,978	15,63
600,444	15,85
600,91	15,6
601,375	15,66
601,841	15,76
602,306	15,77
602,771	15,36
603,236	15,49
603,702	15,51
604,167	15,41
604,631	15,3
605,096	15,46
605,561	15,32
606,025	15,12
606,49	15,05
606,954	15,18
607,418	15
607,882	14,92
608,347	14,72
608,81	14,62
609,274	14,72
609,738	14,74
610,202	14,64
610,665	14,53
611,128	14,31
611,592	14,32
612,055	14,14
612,518	14,19
612,981	14,11
613,444	13,96
613,907	13,9
614,369	13,89
614,832	13,79
615,294	13,63
615,757	13,68
616,219	13,52
616,681	13,51
617,143	13,53
617,605	13,19
618,067	13,27
618,529	13,25
618,99	13,11
619,452	13,09
619,913	13,03
620,375	12,77
620,836	13,12
621,297	12,95
621,758	12,81
622,219	12,79
622,68	12,76
623,14	12,76
623,601	12,49
624,061	12,56
624,522	12,67
624,982	12,49
625,442	12,5
625,902	12,59
626,362	12,44
626,822	12,41
627,282	12,47
627,742	12,28
628,201	12,37
628,661	12,25
629,12	12,28
629,579	12,3
630,038	12,32
630,497	12,2
630,956	12,12
631,415	12,32
631,874	12,25
632,332	12,13
632,791	12,14
633,249	12,04
633,708	12,12
634,166	12,07
634,624	12,02
635,082	11,81
635,54	11,84
635,998	11,64
636,455	11,86
636,913	11,54
637,37	11,59
637,828	11,45
638,285	11,33
638,742	11,23
639,199	11,17
639,656	11,16
640,113	10,98
640,57	10,87
641,027	10,8
641,483	10,61
641,94	10,42
642,396	10,58
642,852	10,4
643,309	10,42
643,765	9,99
644,221	10,12
644,676	10,05
645,132	9,91
645,588	9,97
646,043	9,66
646,499	9,46
646,954	9,55
647,409	9,34
647,864	9,23
648,319	9,23
648,774	8,98
649,229	9,01
649,684	9,18
650,139	8,92
650,593	8,96
651,047	8,92
651,502	8,8
651,956	8,87
652,41	8,82
652,864	8,81
653,318	8,77
653,772	8,62
654,225	8,61
654,679	8,67
655,133	8,61
655,586	8,55
656,039	8,41
656,492	8,39
656,946	8,29
657,399	8,19
657,851	8,07
658,304	8,1
658,757	8,08
659,209	7,88
659,662	7,91
660,114	7,78
660,567	7,89
661,019	7,84
661,471	7,66
661,923	7,53
662,375	7,42
662,826	7,35
663,278	7,38
663,73	7,32
664,181	7,4
664,632	7,25
665,084	7,13
665,535	7,15
665,986	7,11
666,437	7,11
666,888	7,13
667,338	7,02
667,789	7,09
668,24	7,13
668,69	7,07
669,14	7,12
669,591	7,04
670,041	7,08
670,491	7,03
670,941	7,07
671,391	7,03
671,84	7,03
672,29	7,13
672,74	7,23
673,189	7,22
673,638	7,28
674,088	7,35
674,537	7,49
674,986	7,41
675,435	7,54
675,883	7,67
676,332	7,52
676,781	7,67
677,229	7,77
677,678	7,77
678,126	8,05
678,574	7,94
679,022	8,16
679,47	8,27
679,918	8,29
680,366	8,42
680,814	8,29
681,261	8,56
681,709	8,68
682,156	8,72
682,604	8,9
683,051	9
683,498	8,88
683,945	9,15
684,392	9,36
684,839	9,4
685,286	9,54
685,732	9,78
686,179	9,75
686,625	9,79
687,071	10,08
687,518	10,22
687,964	10,4
688,41	10,55
688,856	10,72
689,301	11
689,747	11,33
690,193	11,78
690,638	11,88
691,084	12,15
691,529	12,52
691,974	12,87
692,419	13,22
692,864	13,62
693,309	13,94
693,754	14,43
694,199	14,83
694,643	15,23
695,088	15,67
695,532	16,18
695,977	16,76
696,421	17,14
696,865	17,69
697,309	17,85
697,753	18,43
698,197	18,93
698,64	19,46
699,084	19,77
699,527	20,31
699,971	20,81
700,414	21,21
700,857	21,68
701,3	22,18
701,743	22,49
702,186	22,87
702,629	23,25
703,072	23,75
703,515	24,31
703,957	24,47
704,399	24,85
704,842	25,2
705,284	25,55
705,726	26,08
706,168	26,38
706,61	26,9
707,052	27,16
707,494	27,29
707,935	27,74
708,377	28,06
708,818	28,41
709,26	28,74
709,701	28,93
710,142	29,4
710,583	29,41
711,024	29,65
711,465	30,11
711,905	30,42
712,346	30,63
712,787	30,62
713,227	31,32
713,667	31,45
714,108	31,67
714,548	32,03
714,988	32,27
715,428	32,28
715,868	32,68
716,307	33,19
716,747	33,36
717,186	33,45
717,626	33,73
718,065	33,94
718,504	33,85
718,944	34,28
719,383	34,61
719,822	34,77
720,261	35,05
720,699	35,02
721,138	35,35
721,576	35,74
722,015	35,59
722,453	35,64
722,892	35,92
723,33	36
723,768	36,34
724,206	36,45
724,644	36,55
725,081	36,66
725,519	36,67
725,957	36,79
726,394	37,24
726,832	37,32
727,269	37,46
727,706	37,39
728,143	37,46
728,58	37,44
729,017	37,61
729,454	37,51
729,89	37,48
730,327	37,99
730,764	37,99
731,2	38,05
731,636	37,93
732,072	38,09
732,509	38,42
732,945	38,32
733,38	38,73
733,816	38,3
734,252	38,48
734,688	38,41
735,123	38,7
735,559	38,45
735,994	38,68
736,429	38,82
736,864	38,71
737,299	38,69
737,734	39,04
738,169	38,9
738,604	38,83
739,038	38,9
739,473	39,03
739,907	39,33
740,342	39,03
740,776	38,9
741,21	38,81
741,644	38,79
742,078	38,94
742,512	39,17
742,946	38,86
743,379	39,01
743,813	38,64
744,246	38,77
744,68	39,02
745,113	38,91
745,546	38,98
745,979	38,73
746,412	38,98
746,845	38,8
747,278	38,6
747,711	38,76
748,143	38,55
748,576	38,78
749,008	38,74
749,441	38,82
749,873	38,67
750,305	38,67
750,737	38,59
751,169	38,55
751,601	38,84
752,032	38,51
752,464	38,36
752,896	38,39
753,327	38,6
753,758	38,41
754,19	38,52
754,621	38,47
755,052	38,34
755,483	38,55
755,914	38,37
756,344	38,31
756,775	38,25
757,206	38,25
757,636	38,12
758,066	38,3
758,497	38,33
758,927	38,13
759,357	38,24
759,787	37,97
760,217	37,75
760,647	38,09
761,076	37,95
761,506	38,17
761,935	37,77
762,365	37,92
762,794	37,77
763,223	38,04
763,653	37,87
764,082	37,92
764,51	37,69
764,939	37,73
765,368	37,7
765,797	37,58
766,225	37,66
766,654	37,69
767,082	37,73
767,51	37,59
767,938	37,5
768,367	37,52
768,795	37,37
769,222	37,56
769,65	37,54
770,078	37,66
770,505	37,43
770,933	37,36
771,36	37,27
771,788	37,48
772,215	37,32
772,642	37,52
773,069	37,49
773,496	37,31
773,923	37,26
774,349	37,38
774,776	37,04
775,203	37,07
775,629	36,99
776,055	37,08
776,482	37,34
776,908	37,21
777,334	37,22
777,76	36,95
778,186	37,23
778,611	37,09
779,037	37,21
779,463	37,04
779,888	36,98
780,314	37,03
780,739	37,06
781,164	36,83
781,589	37,24
782,014	36,66
782,439	37,03
782,864	36,87
783,289	36,96
783,713	36,7
784,138	36,89
784,562	36,86
784,987	36,94
785,411	36,73
785,835	36,92
786,259	36,87
786,683	36,94
787,107	37,13
787,531	36,79
787,954	36,96
788,378	36,74
788,802	36,73
789,225	36,61
789,648	36,87
790,071	36,9
790,495	37,03
790,918	36,53
791,34	36,84
791,763	36,89
792,186	36,67
792,609	36,73
793,031	36,82
793,454	36,65
793,876	36,82
794,298	36,75
794,721	36,61
795,143	36,66
795,565	36,62
795,986	36,55
796,408	36,7
796,83	36,67
797,252	36,53
797,673	36,68
798,094	36,72
798,516	36,54
798,937	36,31
799,358	36,42
799,779	36,5
800,2	36,67
800,621	36,32
801,042	36,75
801,462	36,73
801,883	36,63
802,303	36,46
802,724	36,29
803,144	36,62
803,564	36,68
803,984	36,4
804,404	36,4
804,824	36,51
805,244	36,73
805,664	36,45
806,084	36,44
806,503	36,59
806,923	36,54
807,342	36,49
807,761	36,28
808,18	36,36
808,599	36,2
809,018	36,36
809,437	36,39
809,856	36,47
810,275	36,44
810,693	36,47
811,112	36,37
811,53	36,5
811,949	36,55
812,367	36,28
812,785	36,28
813,203	36,52
813,621	36,39
814,039	36,4
814,457	36,34
814,874	36,29
815,292	36,4
815,709	36,44
816,127	36,26
816,544	36,41
816,961	36,28
817,378	36,21
817,795	36,28
818,212	36,48
818,629	36,25
819,046	36,52
819,462	36,22
819,879	36,28
820,295	36,2
820,712	36,18
821,128	36,57
821,544	36,21
821,96	36,21
822,376	36,31
822,792	36,25
823,208	36,28
823,624	36,06
824,039	36,28
824,455	36,53
824,87	36,53
825,286	36,25
825,701	36,41
826,116	36,35
826,531	36,21
826,946	36,01
827,361	36,1
827,776	36,36
828,19	35,89
828,605	36,19
829,02	36,24
829,434	36,32
829,848	36,23
830,263	36,09
830,677	36,21
831,091	36,5
831,505	36,31
831,919	36,33
832,332	36,32
832,746	36,08
833,16	36,09
833,573	36,12
833,987	36,27
834,4	36,12
834,813	36,39
835,226	36,07
835,639	35,99
836,052	36,31
836,465	36,1
836,878	36,1
837,29	36,05
837,703	36,3
838,116	36,07
838,528	35,9
838,94	36,1
839,352	35,84
839,765	36,08
840,177	35,94
840,589	36,02
841	36,05
841,412	35,77
841,824	35,99
842,235	36,4
842,647	36,19
843,058	36,13
843,47	36,12
843,881	35,91
844,292	36,07
844,703	36,13
845,114	36,05
845,525	35,98
845,935	36,03
846,346	35,84
846,757	35,93
847,167	35,93
847,577	36,19
847,988	36,05
848,398	36,29
848,808	36,02
849,218	36,18
849,628	36
850,038	35,85
850,448	36,04
850,857	36,05
851,267	36,14
851,676	36,24
852,086	35,83
852,495	35,99
852,904	35,73
853,313	36,2
853,722	36,1
854,131	35,76
854,54	35,87
854,949	36,21
855,357	35,83
855,766	35,94
856,174	35,79
856,583	35,8
856,991	35,73
857,399	35,83
857,807	36,04
858,215	36,07
858,623	35,91
859,031	36,11
859,439	35,85
859,846	36,07
860,254	36,04
860,661	35,91
861,069	36,11
861,476	35,78
861,883	35,8
862,29	35,81
862,697	36,16
863,104	35,8
863,511	35,94
863,918	35,83
864,325	35,53
864,731	35,68
865,138	35,88
865,544	36,03
865,95	35,98
866,357	35,81
866,763	35,86
867,169	35,77
867,575	36
867,98	35,63
868,386	36,04
868,792	35,94
869,197	35,84
869,603	35,8
870,008	35,93
870,414	35,55
870,819	36,11
871,224	35,78
871,629	35,58
872,034	35,73
872,439	35,72
872,844	35,87
873,248	35,56
873,653	35,71
874,057	36,21
874,462	35,72
874,866	35,87
875,27	35,87
875,674	36,14
876,078	35,97
876,482	35,8
876,886	35,94
877,29	35,86
877,694	35,86
878,097	35,98
878,501	35,99
878,904	35,86
879,308	35,82
879,711	35,87
880,114	35,98
880,517	35,62
880,92	35,81
881,323	35,99
881,726	35,78
882,128	35,95
882,531	35,88
882,934	35,88
883,336	35,39
883,738	35,78
884,141	35,84
884,543	35,65
884,945	35,75
885,347	35,86
885,749	35,86
886,151	35,98
886,552	36,11
886,954	35,88
887,355	35,92
887,757	35,92
888,158	35,67
888,56	35,85
888,961	35,71
889,362	35,53
889,763	35,62
890,164	35,87
890,565	35,67
890,965	35,57
891,366	35,33
891,767	35,82
892,167	35,94
892,567	35,88
892,968	36,13
893,368	35,67
893,768	35,71
894,168	35,86
894,568	36,28
894,968	35,75
895,368	35,69
895,767	35,85
896,167	35,88
896,566	35,98
896,966	35,68
897,365	35,92
897,764	35,7
898,164	35,76
898,563	35,74
898,962	35,45
899,361	35,73
899,759	35,6
900,158	35,79
900,557	35,82
900,955	35,78
901,354	35,88
901,752	35,65
902,15	35,84
902,548	36,01
902,947	35,8
903,345	35,89
903,742	35,87
904,14	35,75
904,538	35,97
904,936	35,81
905,333	35,76
905,731	35,77
906,128	35,65
906,525	36,11
906,923	35,91
907,32	35,96
907,717	35,6
908,114	35,83
908,511	35,62
908,907	35,99
909,304	35,87
909,701	35,75
910,097	35,93
910,494	35,97
910,89	36,02
911,286	35,87
911,682	35,69
912,078	35,62
912,474	35,83
912,87	35,89
913,266	35,73
913,662	35,56
914,058	35,54
914,453	36,09
914,849	35,7
915,244	35,48
915,639	35,8
916,034	35,57
916,43	36,09
916,825	35,53
917,22	35,54
917,614	35,77
918,009	35,7
918,404	35,82
918,798	35,73
919,193	35,8
919,587	35,67
919,982	35,45
920,376	35,64
920,77	35,73
921,164	35,61
921,558	35,57
921,952	35,78
922,346	35,57
922,74	36,06
923,133	35,85
923,527	35,62
923,92	35,65
924,314	35,8
924,707	35,82
925,1	35,87
925,493	35,68
925,886	35,75
926,279	35,57
926,672	35,76
927,065	35,62
927,457	35,8
927,85	35,68
928,243	35,38
928,635	35,75
929,027	35,31
929,42	35,51
929,812	35,54
930,204	35,73
930,596	35,29
930,988	35,51
931,379	35,52
931,771	35,5
932,163	35,95
932,554	35,19
932,946	35,63
933,337	35,61
933,729	35,62
934,12	35,42
934,511	35,69
934,902	35,46
935,293	35,25
935,684	35,53
936,075	35,53
936,465	35,53
936,856	35,39
937,246	35,95
937,637	35,06
938,027	35,17
938,417	35,61
938,808	35,56
939,198	35,32
939,588	35,42
939,978	35,62
940,368	35,32
940,757	35,7
941,147	35,48
941,537	35,22
941,926	34,96
942,315	35,18
942,705	35,8
943,094	35,07
943,483	35,31
943,872	35,75
944,261	34,7
944,65	35,67
945,039	35,26
945,428	36,02
945,816	34,97
946,205	35,32
946,593	35,6
946,982	35,41
947,37	35,51
947,758	35,57
948,146	35,12
948,534	35,68
948,922	35,41
949,31	35,32
949,698	34,87
950,086	34,94
950,473	35,26
950,861	34,96
951,248	35,55
951,636	34,76
952,023	35,45
952,41	34,91
952,797	35,2
953,184	35,3
953,571	34,8
953,958	34,45
954,345	34,47
954,731	34,98
955,118	35,23
955,505	34,76
955,891	34,77
956,277	34,55
956,664	34,96
957,05	34,72
957,436	35,02
957,822	35,09
958,208	34,94
958,594	34,27
958,979	34,61
959,365	35,04
959,751	34,62
960,136	34,69
960,522	34,44
960,907	34,76
961,292	34,73
961,677	34,67
962,062	34,69
962,447	34,72
962,832	34,71
963,217	34,63
963,602	34,36
963,986	34,96
964,371	34,3
964,756	34,53
965,14	35,01
965,524	34,4
965,908	34,36
966,293	34,54
966,677	34,79
967,061	34,69
967,445	34,67
967,828	34,39
968,212	34,89
968,596	34,4
968,979	34,31
969,363	35,01
969,746	34,99
970,129	34,59
970,513	34,46
970,896	34,88
971,279	35,1
971,662	34,73
972,045	34,84
972,428	34,81
972,81	34,37
973,193	34,77
973,575	34,44
973,958	34,58
974,34	34,8
974,723	34,8
975,105	34,52
975,487	34,97
975,869	34,45
976,251	34,78
976,633	35,24
977,015	34,75
977,396	34,78
977,778	35,01
978,16	34,37
978,541	34,81
978,922	34,59
979,304	34,5
979,685	34,99
980,066	34,71
980,447	34,93
980,828	34,59
981,209	35,08
981,59	34,68
981,97	34,85
982,351	35,32
982,732	34,7
983,112	35,27
983,493	34,83
983,873	34,64
984,253	34,88
984,633	34,78
985,013	34,85
985,393	34,77
985,773	34,56
986,153	34,95
986,533	34,26
986,912	34,89
987,292	34,58
987,671	35,04
988,051	34,53
988,43	34,69
988,809	34,85
989,188	35
989,567	35,24
989,946	34,98
990,325	34,63
990,704	35,1
991,083	34,86
991,461	34,61
991,84	35,1
992,218	35,18
992,597	34,94
992,975	34,9
993,353	35,1
993,732	35,04
994,11	34,9
994,488	34,95
994,866	34,83
995,243	34,81
995,621	34,77
995,999	34,58
996,376	34,93
996,754	35,39
997,131	35,81
997,509	34,99
997,886	34,92
998,263	35,38
998,64	34,6
999,017	35,2
999,394	34,78
999,771	34,42
1000,148	34,53
1000,524	35,2
1000,901	34,75
1001,277	35,02
1001,654	34,93
1002,03	34,77
1002,406	34,9
1002,783	34,8
1003,159	35,38
1003,535	34,92
1003,911	34,6
1004,286	34,59
1004,662	34,71
1005,038	35,33
1005,414	35,05
1005,789	35,13
1006,164	35,26
1006,54	35,1
1006,915	35,01
1007,29	35,39
1007,665	35,19
1008,04	35,11
1008,415	35,31
1008,79	35,47
1009,165	35,37
1009,54	34,75
1009,914	35,03
1010,289	35,19
1010,663	34,88
1011,038	35,24
1011,412	35,19
1011,786	34,84
1012,16	35,26
1012,535	34,85
1012,909	35,01
1013,282	34,93
1013,656	34,93
1014,03	35,32
1014,404	35,23
1014,777	35,47
1015,151	35,27
1015,524	35,09
1015,897	35,57
1016,271	35,19
1016,644	35,39
1017,017	35,57
1017,39	35,23
1017,763	35,08
1018,136	34,91
1018,508	35,35
1018,881	35,35
1019,254	35,91
1019,626	35,28
1019,999	35,43
1020,371	34,95
1020,743	35,46
1021,116	35,37
1021,488	35,26
1021,86	34,9
1022,232	35,39
1022,604	34,98
1022,975	35,16
1023,347	35,66
1023,719	35,39
1024,09	35,08
1024,462	34,87
1024,833	35,49
1025,204	35,63
1025,576	35,93
1025,947	35,77
1026,318	35,74
1026,689	35,44
1027,06	34,74
1027,431	35,29
1027,801	35,03
1028,172	36,3
1028,543	34,83
1028,913	35,29
1029,284	35,38
1029,654	35,02
1030,024	35,11
1030,394	35,52
1030,764	35,52
1031,135	35,15
1031,504	35,3
1031,874	34,99
1032,244	35,35
1032,614	35,57
1032,983	35,2
1033,353	35,74
1033,722	34,34
1034,092	35,04
1034,461	35,69
1034,83	35,1
1035,2	34,89
1035,569	35,08
1035,938	35,72
1036,307	35,59
1036,675	36,03
1037,044	35,16
1037,413	34,77
1037,781	35,08
1038,15	35,03
1038,518	35,66
1038,887	35,9
1039,255	35,15
1039,623	34,98
1039,991	35,73
1040,359	35,45
1040,727	35,35
1041,095	35,49
1041,463	36,14
1041,831	35,66
1042,198	35
1042,566	35,41
1042,933	35,77
1043,301	35,71
1043,668	35,13
1044,035	35,45
1044,402	35,08
1044,77	35,66
1045,137	35,19
1045,503	35,18
1045,87	36,18
1046,237	34,68
1046,604	34,96
1046,97	35,48
1047,337	35,27
1047,703	35,27
1048,07	35,99
1048,436	35,38
1048,802	35,87
1049,168	35,33
1049,534	35,3
1049,9	34,73
1050,266	36,47
1050,632	36,33
1050,998	36,75
1051,364	36,28
1051,729	35,39
1052,095	35,84
1052,46	36,04
1052,825	35,54
1053,191	35,63
1053,556	35,49
1053,921	35,49
1054,286	35,84
1054,651	36,27
1055,016	36,07
1055,381	35,64
1055,745	35,33
1056,11	36,33
1056,475	36,03
1056,839	35,21
1057,203	35,72
1057,568	35,3
1057,932	35,67
1058,296	35,79
1058,66	34,91
1059,024	35,99
1059,388	35,9
1059,752	36,27
1060,116	35,75
1060,48	36,7
1060,843	35,64
1061,207	35,57
1061,57	35,56
1061,934	36,08
1062,297	35,77
1062,66	36,57
1063,023	35,34
1063,386	35,04
1063,749	36,44
1064,112	34,65
1064,475	35,6
1064,838	36,37
1065,201	36,71
1065,563	35,64
1065,926	35,3
1066,288	36,14
1066,651	34,76
1067,013	35,5
1067,375	34,95
1067,737	34,97
1068,099	35,23
1068,461	35,91
1068,823	35,32
1069,185	37,06
1069,547	35,42
1069,909	35,1
1070,27	35,33
1070,632	35,47
1070,993	34,51
1071,355	35,39
1071,716	35,01
1072,077	35,3
1072,438	36,11
1072,799	36,63
1073,16	36,64
1073,521	35,65
1073,882	35,25
1074,243	35,6
1074,603	35,79
1074,964	34,82
1075,325	35,8
1075,685	35,72
1076,045	35,15
1076,406	35,37
1076,766	35,38
1077,126	35,6
1077,486	35,3
1077,846	35,5
1078,206	35,24
1078,566	35,88
1078,925	35,91
1079,285	36,16
1079,645	36,75
1080,004	35,44
1080,364	34,94
1080,723	35,78
1081,082	36,47
1081,442	36,22
1081,801	35,37
1082,16	36,84
1082,519	35,91
1082,878	36,28
1083,237	34,63
1083,595	36,96
1083,954	34,69
1084,313	36,21
1084,671	36,98
1085,03	35,5
1085,388	34,79
1085,746	36,5
1086,104	36,19
1086,463	35,85
1086,821	35,74
1087,179	36,8
1087,537	37,75
1087,894	35,41
1088,252	34,43
1088,61	36,18
1088,967	35,2
1089,325	36,05
1089,682	35,82
1090,04	34,98
1090,397	34,24
1090,754	36,84
1091,111	36,91
1091,469	35,85
1091,826	36,35
1092,182	35,62
1092,539	37,84
1092,896	34,41
1093,253	35,61
1093,609	36,89
1093,966	33,58
1094,322	35,83
1094,679	34,83
1095,035	36,67
1095,391	33,8
1095,748	37,11
1096,104	36,56
1096,46	36,92
1096,816	35,68
1097,171	37,04
1097,527	37,82
1097,883	35,42
1098,239	36,06
1098,594	36,07
1098,95	35,78
1099,305	35,9
1099,66	34,89
1100,016	35,01
1100,371	36,59
1100,726	35,81
1101,081	34,64
1101,436	35,63
1101,791	36,26
1102,146	34,06
1102,5	34,62
1102,855	36,17
1103,21	36,4
1103,564	36,05
1103,918	36,51
1104,273	35,14
1104,627	36,59
1104,981	35,25
1105,335	36,74
1105,69	36,04
1106,043	37,83
1106,397	34,78
1106,751	34,56
1107,105	35,95
1107,459	37,3
1107,812	34,92
1108,166	37,11
1108,519	34,72
1108,873	34,71
1109,226	35,41
1109,579	34,15
1109,932	36,88
1110,285	34,35
1110,638	35,7
1110,991	38,03
1111,344	35,48
1111,697	36,36
1112,05	38,01
1112,402	35,11
1112,755	37,59
1113,107	36,95
1113,46	35,43
1113,812	36,62
1114,164	36,61
1114,517	38,48
1114,869	50,43
1115,221	48,39
1115,573	44,34
1115,924	40,88
