Data from E_2__Relative__2__00093.txt Node

Date: Mon Jan 29 18:18:37 CET 2024
User: diatiterra
Spectrometer: HDX00911
Trigger mode: 0
Integration Time (sec): 6,000000E-3
Scans to average: 2
Nonlinearity correction enabled: false
Boxcar width: 0
Storing dark spectrum: false
XAxis mode: Wavelengths
Number of Pixels in Spectrum: 2068
>>>>>Begin Spectral Data<<<<<
194,468	48,04
195,025	40,71
195,581	31,91
196,138	38,46
196,694	31,03
197,251	28,89
197,807	28,8
198,363	32
198,919	31,32
199,474	32,5
200,03	25,37
200,586	22,79
201,141	28,46
201,696	21,8
202,251	28,04
202,806	24,81
203,361	29,82
203,916	32,88
204,471	27,11
205,025	22,86
205,58	27,96
206,134	30,74
206,688	29,35
207,242	25,51
207,796	27,8
208,35	23,83
208,904	17,63
209,457	23,47
210,011	30,07
210,564	29,51
211,117	25,35
211,67	29,23
212,223	23,63
212,776	30,34
213,329	17,87
213,881	21,79
214,434	28,62
214,986	24,24
215,538	23,81
216,09	22,95
216,642	31,48
217,194	26,49
217,746	28,28
218,297	18,79
218,849	21,18
219,4	29,37
219,951	29,09
220,502	24,74
221,053	27,59
221,604	33,56
222,155	25,1
222,705	28,43
223,256	27,7
223,806	31,97
224,356	37,68
224,906	25,93
225,456	26,9
226,006	20,47
226,556	29,93
227,106	27,27
227,655	24,39
228,204	27,96
228,754	26,55
229,303	25,08
229,852	28,43
230,401	21,15
230,949	34,63
231,498	27,61
232,047	22,56
232,595	31,21
233,143	26,52
233,691	27,2
234,239	18,66
234,787	26,92
235,335	26,19
235,883	27,96
236,43	23,7
236,978	31,27
237,525	31,72
238,072	27,68
238,619	21,92
239,166	29,29
239,713	31,23
240,26	34,83
240,806	29,79
241,353	22,61
241,899	26,54
242,445	33,57
242,991	27,87
243,537	26,4
244,083	29,45
244,629	31,76
245,174	32,84
245,72	31,1
246,265	34,28
246,81	31,02
247,355	27,21
247,9	26,3
248,445	37,59
248,99	28,37
249,534	30,38
250,079	33,21
250,623	28,81
251,168	27,18
251,712	36,17
252,256	30,56
252,8	39,24
253,343	32,48
253,887	34,01
254,43	33,83
254,974	31,47
255,517	32,21
256,06	25,68
256,603	27,55
257,146	28,28
257,689	30,7
258,232	26,82
258,774	32,47
259,317	29,3
259,859	31,37
260,401	32,95
260,943	27,61
261,485	36,52
262,027	30,34
262,569	30,45
263,11	27,44
263,652	29,41
264,193	25
264,734	30,56
265,275	34,14
265,816	34,17
266,357	29,14
266,898	27,3
267,438	23,14
267,979	33,45
268,519	29,6
269,059	36,88
269,6	33,68
270,14	30,36
270,68	24,9
271,219	31,23
271,759	33,21
272,298	25,09
272,838	30,62
273,377	26,3
273,916	34,3
274,455	33,33
274,994	28,06
275,533	28,33
276,072	23,68
276,61	33,79
277,149	20,65
277,687	31,67
278,225	30,14
278,763	31,16
279,301	32,45
279,839	35,87
280,377	25,91
280,914	29,67
281,452	36,99
281,989	35,84
282,526	28,67
283,064	29,51
283,601	33,33
284,137	29,93
284,674	33,96
285,211	28,78
285,747	28,81
286,284	28,42
286,82	35,11
287,356	35,4
287,892	28,42
288,428	21,69
288,964	33,57
289,5	31,97
290,035	25,54
290,571	29,85
291,106	25,82
291,641	26,44
292,176	30,45
292,711	32,41
293,246	22,38
293,781	33,09
294,315	24,63
294,85	28,83
295,384	32,22
295,918	29,27
296,453	27,56
296,987	30
297,52	28,42
298,054	28,31
298,588	27,95
299,121	28,57
299,655	27,72
300,188	28,52
300,721	29,31
301,254	39,15
301,787	20,33
302,32	28,03
302,853	28,92
303,385	29,3
303,918	31,23
304,45	27,8
304,982	28,69
305,514	27,31
306,046	22,46
306,578	27,86
307,11	23,79
307,641	22,55
308,173	15,99
308,704	33,33
309,236	30,71
309,767	30,83
310,298	27,53
310,829	30,04
311,359	28,47
311,89	30,25
312,421	30,43
312,951	31,64
313,481	34,54
314,012	28,57
314,542	27,74
315,072	25,82
315,601	25,62
316,131	24,82
316,661	30,42
317,19	23,84
317,72	29,3
318,249	27,36
318,778	30,04
319,307	29,05
319,836	27,52
320,365	28,34
320,893	28,01
321,422	32,84
321,95	23,33
322,479	30,45
323,007	26,45
323,535	26,04
324,063	35,82
324,591	21,67
325,118	24,13
325,646	24,62
326,173	32,14
326,701	23,27
327,228	33,23
327,755	26,52
328,282	24,53
328,809	23,33
329,336	22,15
329,862	26,92
330,389	25,6
330,915	21,63
331,441	28,47
331,968	25,77
332,494	22,41
333,02	24,45
333,545	22,38
334,071	28,33
334,597	22,97
335,122	27,76
335,648	30,4
336,173	31,68
336,698	20,21
337,223	33,79
337,748	21,05
338,272	21,45
338,797	24,6
339,322	25,25
339,846	19,53
340,37	23,08
340,894	30,14
341,419	25,17
341,942	23,15
342,466	23,21
342,99	26,77
343,514	18,51
344,037	21,64
344,56	22,26
345,084	20,5
345,607	19,15
346,13	15,08
346,653	19,18
347,175	26,13
347,698	21,73
348,221	18,9
348,743	20,99
349,265	20,24
349,787	17,71
350,309	23,69
350,831	20
351,353	20,63
351,875	16,01
352,397	17,36
352,918	18,36
353,439	25,75
353,961	14,93
354,482	21,91
355,003	18,77
355,524	17,35
356,044	19,79
356,565	16,46
357,086	16,03
357,606	18,8
358,126	17,27
358,646	11,44
359,167	19,41
359,687	18,87
360,206	17,35
360,726	16,32
361,246	20
361,765	12,94
362,285	14,45
362,804	16,67
363,323	16,28
363,842	18,1
364,361	13,85
364,88	17,93
365,398	12,8
365,917	18,07
366,435	12,23
366,954	17,03
367,472	17,91
367,99	13,96
368,508	16,02
369,026	8,53
369,544	14,73
370,061	14,06
370,579	13,51
371,096	12,23
371,613	14,31
372,131	16,02
372,648	15,88
373,165	16,29
373,681	13,13
374,198	12,79
374,715	16,15
375,231	10,17
375,747	15,54
376,264	12,62
376,78	14,19
377,296	13,77
377,812	11,57
378,327	9,48
378,843	15,81
379,359	13,33
379,874	12,98
380,389	15,13
380,905	12,86
381,42	11,36
381,935	11,73
382,449	13,85
382,964	16,69
383,479	13,54
383,993	11,66
384,508	11,83
385,022	12,02
385,536	9,51
386,05	13,25
386,564	12,49
387,078	9,95
387,592	13,44
388,105	11,41
388,619	11,21
389,132	11,69
389,645	12,48
390,158	12,69
390,671	12,15
391,184	10,24
391,697	9,8
392,21	10,9
392,722	10,96
393,235	9,25
393,747	11,72
394,259	11,92
394,771	9,74
395,283	7,48
395,795	9,94
396,307	9,45
396,818	9,15
397,33	8,22
397,841	9,18
398,353	7,07
398,864	8,67
399,375	7,63
399,886	8,13
400,397	7,12
400,907	9,59
401,418	6,91
401,928	7,64
402,439	7,5
402,949	8,3
403,459	6,42
403,969	6,55
404,479	5,9
404,989	6,4
405,498	5,64
406,008	5,51
406,517	5,95
407,027	6,14
407,536	5,26
408,045	4,4
408,554	5,68
409,063	4,56
409,572	4,55
410,08	5,1
410,589	4,03
411,097	4,19
411,606	3,82
412,114	4,17
412,622	3,59
413,13	4,24
413,638	3,11
414,145	3,88
414,653	3,43
415,16	3,01
415,668	3,16
416,175	2,79
416,682	3,2
417,189	2,81
417,696	2,95
418,203	2,86
418,71	2,65
419,216	2,65
419,723	2,68
420,229	2,65
420,735	2,61
421,242	3,02
421,748	2,93
422,254	2,33
422,759	2,6
423,265	2,52
423,771	2,33
424,276	2,55
424,781	2,59
425,287	2,21
425,792	2,4
426,297	2,63
426,802	2,43
427,306	2,4
427,811	2,15
428,316	2,43
428,82	2,18
429,324	2,08
429,829	2,54
430,333	2,15
430,837	2,13
431,34	2,21
431,844	2
432,348	1,88
432,851	1,96
433,355	2,05
433,858	1,85
434,361	2,18
434,864	1,96
435,367	2,13
435,87	2,25
436,373	2,15
436,876	1,7
437,378	1,72
437,88	1,94
438,383	1,96
438,885	2,01
439,387	1,83
439,889	1,65
440,391	1,94
440,892	1,58
441,394	1,99
441,896	1,93
442,397	1,88
442,898	1,86
443,399	2,03
443,9	2,06
444,401	1,94
444,902	2,07
445,403	1,88
445,903	1,93
446,404	2,15
446,904	2,01
447,405	1,95
447,905	2,04
448,405	2,21
448,905	2,13
449,404	2,05
449,904	2,18
450,404	2,06
450,903	2,13
451,403	2,12
451,902	2,15
452,401	2,33
452,9	2,25
453,399	2,32
453,898	2,27
454,396	2,05
454,895	2,15
455,393	2,17
455,892	2,34
456,39	2,25
456,888	2,09
457,386	2,38
457,884	2,24
458,382	2,33
458,879	2,42
459,377	2,14
459,874	2,37
460,372	2,14
460,869	2,36
461,366	2,27
461,863	2,29
462,36	2,4
462,857	2,33
463,353	2,33
463,85	2,29
464,346	2,24
464,843	2,47
465,339	2,33
465,835	2,28
466,331	2,27
466,827	2,39
467,323	2,18
467,818	2,22
468,314	2,35
468,809	2,06
469,305	2,39
469,8	2,35
470,295	2,53
470,79	2,47
471,285	2,33
471,78	2,08
472,274	2,23
472,769	2,09
473,263	2,18
473,758	2,29
474,252	2,17
474,746	2,23
475,24	2,22
475,734	2,33
476,228	2,32
476,721	2,38
477,215	2,25
477,708	2,42
478,202	2,19
478,695	2,17
479,188	2,37
479,681	2,19
480,174	2,34
480,667	2,41
481,159	2,34
481,652	2,37
482,144	2,22
482,637	2,37
483,129	2,63
483,621	2,41
484,113	2,51
484,605	2,44
485,097	2,46
485,588	2,36
486,08	2,32
486,571	2,42
487,063	2,3
487,554	2,52
488,045	2,59
488,536	2,43
489,027	2,76
489,518	2,67
490,008	2,65
490,499	2,45
490,989	2,66
491,48	2,71
491,97	2,85
492,46	2,7
492,95	2,81
493,44	2,9
493,93	2,89
494,419	3
494,909	3,11
495,398	3,15
495,888	3,26
496,377	3,2
496,866	3,19
497,355	3,55
497,844	3,46
498,333	3,57
498,821	3,52
499,31	3,75
499,798	3,67
500,287	3,89
500,775	3,98
501,263	3,94
501,751	4,08
502,239	4,32
502,727	4,37
503,215	4,33
503,702	4,5
504,19	4,92
504,677	4,69
505,164	4,96
505,651	5,11
506,139	5,11
506,625	5,27
507,112	5,41
507,599	5,79
508,086	5,91
508,572	6,11
509,058	5,98
509,545	6,35
510,031	6,67
510,517	6,69
511,003	6,62
511,489	7,1
511,974	7,29
512,46	7,49
512,946	7,61
513,431	7,72
513,916	7,99
514,401	7,94
514,887	8,48
515,371	8,69
515,856	8,59
516,341	9,16
516,826	9,15
517,31	9,42
517,795	9,87
518,279	10,03
518,763	10,25
519,247	10,55
519,731	10,58
520,215	11,01
520,699	10,99
521,182	11,16
521,666	11,68
522,149	11,64
522,633	11,92
523,116	12,32
523,599	12,57
524,082	12,84
524,565	13,04
525,048	12,84
525,53	13,26
526,013	13,21
526,495	13,98
526,978	13,76
527,46	13,84
527,942	14,16
528,424	14,35
528,906	14,6
529,388	14,32
529,87	14,51
530,351	14,69
530,833	15,02
531,314	15,07
531,795	14,97
532,277	15,22
532,758	15,34
533,238	15,34
533,719	15,54
534,2	15,87
534,681	15,48
535,161	15,96
535,642	15,86
536,122	15,81
536,602	16,15
537,082	16,1
537,562	16,15
538,042	15,98
538,522	16,07
539,001	16,28
539,481	16,12
539,96	16,18
540,44	16,1
540,919	16,66
541,398	16,6
541,877	16,58
542,356	16,69
542,835	16,41
543,313	16,57
543,792	16,31
544,27	16,28
544,749	16,85
545,227	16,41
545,705	16,61
546,183	16,49
546,661	16,83
547,139	16,64
547,616	16,69
548,094	16,77
548,571	16,63
549,049	16,99
549,526	16,78
550,003	17,15
550,48	16,7
550,957	17,18
551,434	16,8
551,911	16,87
552,387	17,11
552,864	16,64
553,34	17
553,817	17,02
554,293	16,78
554,769	16,94
555,245	16,87
555,721	16,75
556,197	16,65
556,672	16,8
557,148	16,82
557,623	16,59
558,099	16,83
558,574	16,91
559,049	16,71
559,524	16,75
559,999	16,94
560,474	16,35
560,948	16,6
561,423	16,66
561,897	16,54
562,372	16,53
562,846	16,45
563,32	16,37
563,794	16,55
564,268	16,08
564,742	16,2
565,216	16,21
565,69	16,04
566,163	15,88
566,636	15,52
567,11	15,63
567,583	15,62
568,056	15,5
568,529	15,4
569,002	15,37
569,475	15,23
569,947	15,16
570,42	15,03
570,892	14,96
571,365	14,63
571,837	14,52
572,309	14,47
572,781	14,57
573,253	14,29
573,725	14,03
574,197	14,09
574,668	13,65
575,14	13,81
575,611	13,53
576,082	13,64
576,554	13,47
577,025	13,36
577,496	13,18
577,967	13,25
578,437	13,02
578,908	12,91
579,379	12,87
579,849	12,82
580,319	12,75
580,79	12,57
581,26	12,81
581,73	12,54
582,2	12,43
582,669	12,5
583,139	12,31
583,609	12,18
584,078	12,15
584,548	11,95
585,017	12
585,486	11,79
585,955	11,71
586,424	11,7
586,893	11,84
587,362	11,7
587,83	11,47
588,299	11,49
588,767	11,66
589,236	11,28
589,704	11,28
590,172	11,14
590,64	11,34
591,108	11,27
591,576	11,21
592,043	10,97
592,511	11,07
592,978	11,1
593,446	11,1
593,913	10,87
594,38	11,12
594,847	10,94
595,314	11,08
595,781	10,82
596,248	10,85
596,715	10,78
597,181	10,77
597,647	10,74
598,114	10,67
598,58	10,82
599,046	10,73
599,512	10,49
599,978	10,81
600,444	10,82
600,91	10,57
601,375	10,69
601,841	10,53
602,306	10,62
602,771	10,5
603,236	10,38
603,702	10,44
604,167	10,37
604,631	10,36
605,096	10,35
605,561	10,31
606,025	10,1
606,49	10,05
606,954	9,97
607,418	10,14
607,882	10
608,347	9,86
608,81	9,78
609,274	9,83
609,738	9,64
610,202	9,68
610,665	9,46
611,128	9,37
611,592	9,55
612,055	9,25
612,518	9,24
612,981	9,12
613,444	9,04
613,907	9,09
614,369	8,93
614,832	8,9
615,294	8,77
615,757	8,85
616,219	8,75
616,681	8,55
617,143	8,54
617,605	8,43
618,067	8,5
618,529	8,28
618,99	8,27
619,452	8,31
619,913	8,4
620,375	8,2
620,836	8,18
621,297	8,13
621,758	7,91
622,219	8,04
622,68	8,15
623,14	7,86
623,601	8,02
624,061	7,91
624,522	7,87
624,982	7,92
625,442	7,72
625,902	7,75
626,362	7,82
626,822	7,74
627,282	7,66
627,742	7,75
628,201	7,75
628,661	7,8
629,12	7,81
629,579	7,68
630,038	7,81
630,497	7,73
630,956	7,65
631,415	7,69
631,874	7,69
632,332	7,55
632,791	7,44
633,249	7,6
633,708	7,59
634,166	7,46
634,624	7,43
635,082	7,44
635,54	7,33
635,998	7,33
636,455	7,4
636,913	7,21
637,37	7,05
637,828	7,01
638,285	6,99
638,742	6,91
639,199	6,78
639,656	6,72
640,113	6,62
640,57	6,53
641,027	6,5
641,483	6,39
641,94	6,25
642,396	6,18
642,852	6,26
643,309	6,01
643,765	5,95
644,221	5,87
644,676	5,73
645,132	5,73
645,588	5,67
646,043	5,59
646,499	5,35
646,954	5,39
647,409	5,14
647,864	5,21
648,319	5,05
648,774	5,01
649,229	4,94
649,684	4,96
650,139	4,84
650,593	4,77
651,047	4,77
651,502	4,7
651,956	4,69
652,41	4,62
652,864	4,64
653,318	4,62
653,772	4,49
654,225	4,49
654,679	4,53
655,133	4,42
655,586	4,39
656,039	4,35
656,492	4,29
656,946	4,31
657,399	4,15
657,851	4,07
658,304	4,01
658,757	3,95
659,209	3,91
659,662	3,85
660,114	3,81
660,567	3,66
661,019	3,69
661,471	3,61
661,923	3,45
662,375	3,37
662,826	3,39
663,278	3,26
663,73	3,21
664,181	3,18
664,632	3,13
665,084	3,05
665,535	3,05
665,986	3,02
666,437	3,02
666,888	3,01
667,338	2,94
667,789	2,9
668,24	2,98
668,69	2,92
669,14	2,94
669,591	2,86
670,041	2,89
670,491	2,9
670,941	2,9
671,391	2,99
671,84	2,98
672,29	2,97
672,74	3,06
673,189	3,09
673,638	3,12
674,088	3,1
674,537	3,26
674,986	3,3
675,435	3,29
675,883	3,33
676,332	3,33
676,781	3,53
677,229	3,55
677,678	3,63
678,126	3,69
678,574	3,79
679,022	3,89
679,47	3,88
679,918	4,08
680,366	4,17
680,814	4,09
681,261	4,38
681,709	4,4
682,156	4,49
682,604	4,7
683,051	4,73
683,498	4,81
683,945	4,9
684,392	5,01
684,839	5,2
685,286	5,26
685,732	5,49
686,179	5,53
686,625	5,69
687,071	5,94
687,518	6,03
687,964	6,16
688,41	6,39
688,856	6,64
689,301	6,81
689,747	7,01
690,193	7,32
690,638	7,59
691,084	7,98
691,529	8,21
691,974	8,66
692,419	8,9
692,864	9,26
693,309	9,65
693,754	9,89
694,199	10,37
694,643	10,82
695,088	11,06
695,532	11,47
695,977	11,88
696,421	12,22
696,865	12,79
697,309	13,16
697,753	13,43
698,197	14,01
698,64	14,28
699,084	14,5
699,527	14,92
699,971	15,35
700,414	15,63
700,857	16,19
701,3	16,32
701,743	16,65
702,186	17,08
702,629	17,37
703,072	17,82
703,515	18,04
703,957	18,34
704,399	18,61
704,842	18,84
705,284	19,09
705,726	19,3
706,168	19,59
706,61	19,99
707,052	20,37
707,494	20,37
707,935	20,5
708,377	20,79
708,818	21,14
709,26	21,3
709,701	21,42
710,142	21,7
710,583	22,02
711,024	22,22
711,465	22,36
711,905	22,61
712,346	22,73
712,787	23,01
713,227	23,16
713,667	23,41
714,108	23,51
714,548	23,7
714,988	23,91
715,428	24,04
715,868	23,99
716,307	24,48
716,747	24,83
717,186	24,68
717,626	24,92
718,065	24,66
718,504	24,97
718,944	25,3
719,383	25,32
719,822	25,56
720,261	25,47
720,699	25,8
721,138	25,83
721,576	25,77
722,015	26,19
722,453	26,23
722,892	26,41
723,33	26,27
723,768	26,54
724,206	26,83
724,644	26,66
725,081	26,96
725,519	26,59
725,957	26,73
726,394	27,08
726,832	27
727,269	27,16
727,706	27,27
728,143	27,58
728,58	27,48
729,017	27,36
729,454	27,28
729,89	27,36
730,327	27,8
730,764	27,73
731,2	27,78
731,636	27,79
732,072	27,53
732,509	27,78
732,945	27,82
733,38	28,15
733,816	27,75
734,252	27,79
734,688	28
735,123	28,03
735,559	28,15
735,994	28,15
736,429	28,14
736,864	28,13
737,299	28,09
737,734	28,03
738,169	28,26
738,604	28,33
739,038	28,1
739,473	28,3
739,907	28,28
740,342	28,08
740,776	28,08
741,21	28,27
741,644	28,25
742,078	28,06
742,512	28,14
742,946	28,25
743,379	28,09
743,813	28,02
744,246	28,42
744,68	28,31
745,113	28,1
745,546	28,06
745,979	28,07
746,412	28,1
746,845	28,02
747,278	27,9
747,711	28,11
748,143	27,81
748,576	28,04
749,008	28,09
749,441	28,02
749,873	27,84
750,305	28,03
750,737	27,8
751,169	27,93
751,601	27,91
752,032	27,82
752,464	27,96
752,896	27,77
753,327	27,93
753,758	28,02
754,19	27,79
754,621	27,73
755,052	27,71
755,483	27,68
755,914	27,66
756,344	27,58
756,775	27,77
757,206	27,55
757,636	27,43
758,066	27,6
758,497	27,64
758,927	27,54
759,357	27,5
759,787	27,51
760,217	27,26
760,647	27,35
761,076	27,43
761,506	27,49
761,935	27,26
762,365	27,27
762,794	27,16
763,223	27,18
763,653	27,34
764,082	27,26
764,51	27,27
764,939	27,17
765,368	27,12
765,797	27,25
766,225	27,08
766,654	27,1
767,082	27,25
767,51	27,02
767,938	26,94
768,367	27,01
768,795	26,86
769,222	26,97
769,65	26,99
770,078	26,93
770,505	26,98
770,933	27,04
771,36	27,21
771,788	26,91
772,215	26,81
772,642	26,91
773,069	26,72
773,496	26,9
773,923	26,86
774,349	26,77
774,776	26,7
775,203	26,57
775,629	26,75
776,055	26,63
776,482	26,67
776,908	26,57
777,334	26,83
777,76	26,67
778,186	26,55
778,611	26,51
779,037	26,66
779,463	26,59
779,888	26,63
780,314	26,7
780,739	26,44
781,164	26,76
781,589	26,69
782,014	26,72
782,439	26,49
782,864	26,62
783,289	26,65
783,713	26,65
784,138	26,49
784,562	26,46
784,987	26,32
785,411	26,28
785,835	26,55
786,259	26,4
786,683	26,48
787,107	26,53
787,531	26,43
787,954	26,49
788,378	26,41
788,802	26,23
789,225	26,57
789,648	26,44
790,071	26,58
790,495	26,43
790,918	26,26
791,34	26,42
791,763	26,45
792,186	26,3
792,609	26,62
793,031	26,24
793,454	26,28
793,876	26,51
794,298	26,3
794,721	26,28
795,143	26,31
795,565	26,24
795,986	26,22
796,408	26,52
796,83	26,1
797,252	26,27
797,673	26,33
798,094	26,26
798,516	26,09
798,937	26,02
799,358	26,31
799,779	26,26
800,2	26,32
800,621	26,15
801,042	26,26
801,462	26,2
801,883	26,17
802,303	26,25
802,724	26,12
803,144	26,26
803,564	26,27
803,984	26,24
804,404	26,12
804,824	26,36
805,244	26,21
805,664	26,39
806,084	26,03
806,503	26,22
806,923	26,31
807,342	26,39
807,761	26,27
808,18	26,15
808,599	26,08
809,018	26,29
809,437	26,04
809,856	26,18
810,275	26,05
810,693	26,14
811,112	26,08
811,53	26,31
811,949	26,21
812,367	26,14
812,785	26,1
813,203	26,03
813,621	26,3
814,039	26,01
814,457	26,18
814,874	26,12
815,292	26,42
815,709	26,14
816,127	25,98
816,544	26,14
816,961	26,15
817,378	26,21
817,795	25,98
818,212	26,32
818,629	26,1
819,046	26,18
819,462	26,15
819,879	26,2
820,295	25,99
820,712	26,22
821,128	26,01
821,544	26,12
821,96	26,28
822,376	26,17
822,792	26,18
823,208	26,06
823,624	26,02
824,039	26,03
824,455	25,92
824,87	26,15
825,286	26,12
825,701	26,21
826,116	26,16
826,531	26,06
826,946	26,05
827,361	26,17
827,776	26,19
828,19	25,86
828,605	25,98
829,02	25,96
829,434	25,78
829,848	26,02
830,263	26,03
830,677	26,1
831,091	26,15
831,505	26,07
831,919	26
832,332	25,96
832,746	26,21
833,16	26,08
833,573	25,85
833,987	25,88
834,4	26,05
834,813	25,98
835,226	26,18
835,639	26,11
836,052	26,04
836,465	26,01
836,878	25,96
837,29	25,9
837,703	26,13
838,116	26,03
838,528	26,03
838,94	25,9
839,352	25,93
839,765	25,99
840,177	25,94
840,589	25,86
841	25,92
841,412	25,93
841,824	25,64
842,235	26,02
842,647	25,87
843,058	26,05
843,47	25,92
843,881	25,87
844,292	25,91
844,703	26,03
845,114	25,91
845,525	25,79
845,935	25,87
846,346	25,8
846,757	25,84
847,167	25,96
847,577	25,81
847,988	25,75
848,398	25,95
848,808	25,97
849,218	25,83
849,628	25,87
850,038	25,78
850,448	25,72
850,857	25,97
851,267	25,81
851,676	26,01
852,086	25,85
852,495	25,98
852,904	25,7
853,313	25,84
853,722	25,71
854,131	25,6
854,54	25,9
854,949	25,77
855,357	26,02
855,766	25,75
856,174	25,82
856,583	25,7
856,991	25,64
857,399	25,79
857,807	25,89
858,215	25,87
858,623	25,69
859,031	25,78
859,439	25,89
859,846	25,86
860,254	25,81
860,661	25,73
861,069	25,88
861,476	25,7
861,883	25,83
862,29	25,63
862,697	25,88
863,104	25,67
863,511	25,86
863,918	25,72
864,325	25,47
864,731	25,72
865,138	25,93
865,544	25,91
865,95	25,88
866,357	25,68
866,763	25,97
867,169	25,58
867,575	25,85
867,98	25,55
868,386	25,69
868,792	25,81
869,197	25,84
869,603	25,49
870,008	25,77
870,414	25,74
870,819	25,95
871,224	25,73
871,629	25,63
872,034	25,66
872,439	25,72
872,844	25,46
873,248	25,58
873,653	25,61
874,057	25,91
874,462	25,69
874,866	25,59
875,27	25,85
875,674	25,93
876,078	25,81
876,482	25,82
876,886	25,96
877,29	25,72
877,694	25,97
878,097	25,77
878,501	25,6
878,904	25,72
879,308	25,73
879,711	25,62
880,114	25,67
880,517	25,65
880,92	25,61
881,323	25,91
881,726	25,73
882,128	25,81
882,531	25,94
882,934	25,53
883,336	25,56
883,738	25,66
884,141	25,67
884,543	25,61
884,945	25,79
885,347	25,72
885,749	25,73
886,151	25,56
886,552	25,76
886,954	25,63
887,355	25,96
887,757	25,77
888,158	25,78
888,56	25,79
888,961	25,71
889,362	25,46
889,763	25,78
890,164	25,75
890,565	25,59
890,965	25,88
891,366	25,56
891,767	25,64
892,167	25,59
892,567	25,51
892,968	25,82
893,368	25,63
893,768	25,71
894,168	25,52
894,568	25,6
894,968	25,38
895,368	25,51
895,767	25,54
896,167	25,42
896,566	25,62
896,966	25,72
897,365	25,58
897,764	25,74
898,164	25,68
898,563	25,61
898,962	25,54
899,361	25,88
899,759	25,74
900,158	25,79
900,557	25,7
900,955	25,6
901,354	25,58
901,752	25,67
902,15	25,91
902,548	25,7
902,947	25,77
903,345	25,85
903,742	25,47
904,14	25,72
904,538	25,97
904,936	25,73
905,333	25,63
905,731	25,96
906,128	25,72
906,525	25,76
906,923	25,72
907,32	25,71
907,717	25,59
908,114	25,52
908,511	25,68
908,907	25,76
909,304	25,92
909,701	25,43
910,097	25,78
910,494	25,53
910,89	25,52
911,286	25,71
911,682	25,48
912,078	25,54
912,474	25,59
912,87	25,58
913,266	25,79
913,662	25,57
914,058	25,35
914,453	25,71
914,849	25,56
915,244	25,63
915,639	25,45
916,034	25,66
916,43	25,59
916,825	25,58
917,22	25,82
917,614	25,78
918,009	25,57
918,404	25,76
918,798	25,49
919,193	25,78
919,587	25,89
919,982	25,62
920,376	25,72
920,77	25,43
921,164	25,68
921,558	25,67
921,952	25,56
922,346	25,73
922,74	25,49
923,133	25,82
923,527	25,73
923,92	25,36
924,314	25,7
924,707	25,75
925,1	25,54
925,493	25,61
925,886	25,45
926,279	25,64
926,672	25,65
927,065	25,6
927,457	25,53
927,85	25,63
928,243	25,74
928,635	25,94
929,027	25,66
929,42	25,89
929,812	25,54
930,204	25,74
930,596	25,53
930,988	25,53
931,379	25,55
931,771	25,45
932,163	25,76
932,554	25,27
932,946	25,35
933,337	25,21
933,729	25,67
934,12	25,53
934,511	25,51
934,902	25,48
935,293	25,47
935,684	25,57
936,075	25,43
936,465	25,78
936,856	25,45
937,246	25,22
937,637	25,36
938,027	25,41
938,417	25,28
938,808	25,63
939,198	25,17
939,588	25,46
939,978	25,54
940,368	25,4
940,757	25,63
941,147	24,98
941,537	25,1
941,926	25,84
942,315	24,99
942,705	25,66
943,094	25,23
943,483	25,46
943,872	25,26
944,261	25,55
944,65	25,72
945,039	25,34
945,428	25,53
945,816	25,16
946,205	25,39
946,593	24,99
946,982	24,81
947,37	25,32
947,758	25,3
948,146	25,37
948,534	25,22
948,922	25,19
949,31	25,63
949,698	25,56
950,086	25,03
950,473	25,31
950,861	24,94
951,248	25,55
951,636	25,03
952,023	24,91
952,41	24,93
952,797	24,9
953,184	24,85
953,571	24,96
953,958	25,17
954,345	24,62
954,731	24,95
955,118	24,95
955,505	25,13
955,891	25,07
956,277	25,07
956,664	25,07
957,05	25,25
957,436	24,98
957,822	24,89
958,208	25,48
958,594	25,09
958,979	24,69
959,365	25,1
959,751	24,8
960,136	24,76
960,522	25,21
960,907	25,16
961,292	25,28
961,677	24,57
962,062	25,01
962,447	25,08
962,832	25,16
963,217	25,09
963,602	25,34
963,986	24,94
964,371	24,88
964,756	24,61
965,14	24,82
965,524	25,05
965,908	24,74
966,293	24,85
966,677	24,9
967,061	25,01
967,445	24,97
967,828	24,95
968,212	25,02
968,596	24,58
968,979	25
969,363	24,99
969,746	24,88
970,129	24,96
970,513	24,82
970,896	25,21
971,279	24,66
971,662	24,6
972,045	25,2
972,428	24,86
972,81	25
973,193	24,78
973,575	24,73
973,958	24,99
974,34	24,93
974,723	25,03
975,105	24,63
975,487	25,17
975,869	24,91
976,251	24,75
976,633	25,21
977,015	25,02
977,396	25,45
977,778	25,12
978,16	25,07
978,541	24,89
978,922	24,96
979,304	25,51
979,685	24,9
980,066	24,87
980,447	25,06
980,828	24,84
981,209	25,04
981,59	24,97
981,97	24,9
982,351	24,82
982,732	25,25
983,112	25,23
983,493	24,89
983,873	24,76
984,253	25,35
984,633	25,15
985,013	25,12
985,393	24,92
985,773	24,92
986,153	24,87
986,533	25
986,912	25,02
987,292	25,26
987,671	25,26
988,051	24,89
988,43	25,12
988,809	24,92
989,188	25,23
989,567	25,04
989,946	25,01
990,325	25,01
990,704	25,3
991,083	25,23
991,461	25,3
991,84	25,11
992,218	24,82
992,597	25,14
992,975	25
993,353	25,16
993,732	25,24
994,11	25,24
994,488	24,96
994,866	24,93
995,243	25,43
995,621	25,36
995,999	25
996,376	24,85
996,754	25,02
997,131	25,32
997,509	25,17
997,886	25,09
998,263	24,93
998,64	25,36
999,017	25,3
999,394	25,12
999,771	24,88
1000,148	25,03
1000,524	25,64
1000,901	25,37
1001,277	25,19
1001,654	25,24
1002,03	25,03
1002,406	25,14
1002,783	25,31
1003,159	25,31
1003,535	25,31
1003,911	25,39
1004,286	25,1
1004,662	25,24
1005,038	25,15
1005,414	25,48
1005,789	24,81
1006,164	25,3
1006,54	25,16
1006,915	25,05
1007,29	24,88
1007,665	25,43
1008,04	25,36
1008,415	25,59
1008,79	25,18
1009,165	25,52
1009,54	25,39
1009,914	25,33
1010,289	25,13
1010,663	25,16
1011,038	25,17
1011,412	25,34
1011,786	25,5
1012,16	25,53
1012,535	25,06
1012,909	25,42
1013,282	25,29
1013,656	24,6
1014,03	25,32
1014,404	24,96
1014,777	25,08
1015,151	25,31
1015,524	25,64
1015,897	25,87
1016,271	25,7
1016,644	25,21
1017,017	25,79
1017,39	25,25
1017,763	25,14
1018,136	25,51
1018,508	25,79
1018,881	24,97
1019,254	25,43
1019,626	25,28
1019,999	25,48
1020,371	25,74
1020,743	25,46
1021,116	25,63
1021,488	25,71
1021,86	25,42
1022,232	25,2
1022,604	25,17
1022,975	25,38
1023,347	25,67
1023,719	25,39
1024,09	24,78
1024,462	24,98
1024,833	25,09
1025,204	25,09
1025,576	25,33
1025,947	25,46
1026,318	25,43
1026,689	25,7
1027,06	25,58
1027,431	25,36
1027,801	25,38
1028,172	25,32
1028,543	25,75
1028,913	25,34
1029,284	25,45
1029,654	25,07
1030,024	25,12
1030,394	25,55
1030,764	25,85
1031,135	25,37
1031,504	26,01
1031,874	25,09
1032,244	25,39
1032,614	24,9
1032,983	25,21
1033,353	25,1
1033,722	25,48
1034,092	25,34
1034,461	25,36
1034,83	25,5
1035,2	25,3
1035,569	25,47
1035,938	25,24
1036,307	25,9
1036,675	25,33
1037,044	25,54
1037,413	25,42
1037,781	24,81
1038,15	25,41
1038,518	25,44
1038,887	26,21
1039,255	24,85
1039,623	25,41
1039,991	25,47
1040,359	25,47
1040,727	25,81
1041,095	25,58
1041,463	25,56
1041,831	25,36
1042,198	25,49
1042,566	24,95
1042,933	25,45
1043,301	25,5
1043,668	25,49
1044,035	25,1
1044,402	25,41
1044,77	26,03
1045,137	25,66
1045,503	25,13
1045,87	25,93
1046,237	25,4
1046,604	25,31
1046,97	26,03
1047,337	26,01
1047,703	25,03
1048,07	25,94
1048,436	25,49
1048,802	25,91
1049,168	25,76
1049,534	25,69
1049,9	25,73
1050,266	25,84
1050,632	25,73
1050,998	26,26
1051,364	25,31
1051,729	25,6
1052,095	25,91
1052,46	25,44
1052,825	25,92
1053,191	25,32
1053,556	25,23
1053,921	24,92
1054,286	25,31
1054,651	26,04
1055,016	26,39
1055,381	25,59
1055,745	26,35
1056,11	26,13
1056,475	26,41
1056,839	25,62
1057,203	25,81
1057,568	25,31
1057,932	25,52
1058,296	25,6
1058,66	25,71
1059,024	25,92
1059,388	25,78
1059,752	25,6
1060,116	25,49
1060,48	25,95
1060,843	25,42
1061,207	25,06
1061,57	25,87
1061,934	25,78
1062,297	25,8
1062,66	26,19
1063,023	25,46
1063,386	24,97
1063,749	26,13
1064,112	25,65
1064,475	26,33
1064,838	26,12
1065,201	26,19
1065,563	25,66
1065,926	25,78
1066,288	26,28
1066,651	26,03
1067,013	24,57
1067,375	26,05
1067,737	25,6
1068,099	26,15
1068,461	25,14
1068,823	26,83
1069,185	25,94
1069,547	25,42
1069,909	25,93
1070,27	26,58
1070,632	25,19
1070,993	25,24
1071,355	25,27
1071,716	26,17
1072,077	26,22
1072,438	27,23
1072,799	25,45
1073,16	26,34
1073,521	26,17
1073,882	24,34
1074,243	26,07
1074,603	26,27
1074,964	26,2
1075,325	25,08
1075,685	25,82
1076,045	25,92
1076,406	26,01
1076,766	25,9
1077,126	25,65
1077,486	26,29
1077,846	25,38
1078,206	26,71
1078,566	26,25
1078,925	26,19
1079,285	26,11
1079,645	26,35
1080,004	25,25
1080,364	25,7
1080,723	25,57
1081,082	27,05
1081,442	25,64
1081,801	26,27
1082,16	26,78
1082,519	26,69
1082,878	25,3
1083,237	25,51
1083,595	26,42
1083,954	25,65
1084,313	25,9
1084,671	26,76
1085,03	26,97
1085,388	26,24
1085,746	26,07
1086,104	25,97
1086,463	26,59
1086,821	26,14
1087,179	26,83
1087,537	26,85
1087,894	24,17
1088,252	24,78
1088,61	27,24
1088,967	26,05
1089,325	26,56
1089,682	24,39
1090,04	26,42
1090,397	25,29
1090,754	26,19
1091,111	26,46
1091,469	25,43
1091,826	26,51
1092,182	25,64
1092,539	25,63
1092,896	27,19
1093,253	26,38
1093,609	27,93
1093,966	25,97
1094,322	26,61
1094,679	26,29
1095,035	25,65
1095,391	26,18
1095,748	25,66
1096,104	25,13
1096,46	27,17
1096,816	27
1097,171	27,13
1097,527	26,43
1097,883	26,15
1098,239	26,93
1098,594	26,27
1098,95	26,83
1099,305	25,98
1099,66	26,99
1100,016	27,66
1100,371	26,7
1100,726	26,48
1101,081	24,83
1101,436	25
1101,791	27,52
1102,146	25,98
1102,5	25,02
1102,855	26,94
1103,21	28,07
1103,564	26,9
1103,918	24,11
1104,273	26,42
1104,627	25,74
1104,981	24,27
1105,335	25,67
1105,69	25,56
1106,043	25,67
1106,397	25,46
1106,751	27,32
1107,105	27,09
1107,459	26,71
1107,812	25,85
1108,166	26,13
1108,519	25,56
1108,873	27,24
1109,226	26,53
1109,579	26,93
1109,932	26,35
1110,285	26,17
1110,638	26,17
1110,991	28,03
1111,344	25,03
1111,697	27
1112,05	26,18
1112,402	27,05
1112,755	28,18
1113,107	24,98
1113,46	26,8
1113,812	24,91
1114,164	26,42
1114,517	26,66
1114,869	26,5
1115,221	24,19
1115,573	30,19
1115,924	40,88
