Data from E_2__Relative__1__00092.txt Node

Date: Mon Jan 29 18:18:33 CET 2024
User: diatiterra
Spectrometer: HDX00911
Trigger mode: 0
Integration Time (sec): 6,000000E-3
Scans to average: 2
Nonlinearity correction enabled: false
Boxcar width: 0
Storing dark spectrum: false
XAxis mode: Wavelengths
Number of Pixels in Spectrum: 2068
>>>>>Begin Spectral Data<<<<<
194,468	89,22
195,025	69,91
195,581	84,04
196,138	66,92
196,694	74,71
197,251	68
197,807	66,8
198,363	53,82
198,919	59,79
199,474	63,93
200,03	55,88
200,586	50,68
201,141	64,79
201,696	54,33
202,251	60,52
202,806	61,28
203,361	58,95
203,916	62,33
204,471	58,1
205,025	54,64
205,58	58,06
206,134	62,22
206,688	59,06
207,242	55,44
207,796	55,93
208,35	57,04
208,904	52,88
209,457	56,68
210,011	55,59
210,564	55,21
211,117	52,82
211,67	58,45
212,223	53,77
212,776	64,04
213,329	52,23
213,881	51,43
214,434	58,28
214,986	53,2
215,538	59,71
216,09	53,77
216,642	57,04
217,194	50
217,746	54,21
218,297	47,99
218,849	47,98
219,4	57,34
219,951	56,73
220,502	54,01
221,053	55,49
221,604	53,36
222,155	53,91
222,705	53,85
223,256	56,47
223,806	62,93
224,356	55,8
224,906	59,26
225,456	48,97
226,006	50,34
226,556	55,84
227,106	61,89
227,655	49,13
228,204	55,59
228,754	51,38
229,303	55,93
229,852	55,23
230,401	43,73
230,949	61,87
231,498	63,81
232,047	53,87
232,595	56,74
233,143	61,74
233,691	63,6
234,239	54,85
234,787	62,94
235,335	53,06
235,883	53,76
236,43	53,33
236,978	61,09
237,525	54,1
238,072	51,29
238,619	46,58
239,166	57,24
239,713	63,57
240,26	61,05
240,806	55,67
241,353	51,59
241,899	52,43
242,445	65,73
242,991	59,58
243,537	53,8
244,083	58,55
244,629	52,7
245,174	52,99
245,72	59,53
246,265	60,42
246,81	55,84
247,355	56,62
247,9	48,44
248,445	66,21
248,99	56,4
249,534	52,22
250,079	64,93
250,623	49,15
251,168	58,39
251,712	60,28
252,256	56,48
252,8	62,5
253,343	61,46
253,887	58,16
254,43	57,62
254,974	65,03
255,517	57,38
256,06	57,88
256,603	59,62
257,146	46,8
257,689	51,58
258,232	60,92
258,774	58,3
259,317	58,24
259,859	57,2
260,401	59,09
260,943	61,19
261,485	55,67
262,027	60
262,569	62,78
263,11	61,73
263,652	51,47
264,193	59,29
264,734	60,32
265,275	54,62
265,816	62,23
266,357	58,99
266,898	49,15
267,438	60,78
267,979	56,36
268,519	58,84
269,059	52,84
269,6	48,42
270,14	52,15
270,68	47,51
271,219	54,04
271,759	57,09
272,298	57,82
272,838	56,98
273,377	61,48
273,916	50,18
274,455	59,39
274,994	65,83
275,533	50,85
276,072	55,26
276,61	67,24
277,149	50,72
277,687	59,43
278,225	56,51
278,763	56,16
279,301	55,47
279,839	53,99
280,377	64,23
280,914	57,14
281,452	60,57
281,989	60,75
282,526	52,69
283,064	52,78
283,601	59,47
284,137	48,91
284,674	53,58
285,211	51,44
285,747	53,56
286,284	47,72
286,82	52,48
287,356	53,26
287,892	54,39
288,428	44,75
288,964	59,21
289,5	54,42
290,035	56,83
290,571	58,21
291,106	51,64
291,641	54,79
292,176	55,64
292,711	54,14
293,246	61,73
293,781	51,67
294,315	51,1
294,85	60,95
295,384	62,22
295,918	55,75
296,453	51,94
296,987	59,66
297,52	48,63
298,054	61,03
298,588	61,02
299,121	53,48
299,655	48,42
300,188	50,19
300,721	52,76
301,254	50,89
301,787	60,98
302,32	60,23
302,853	51,92
303,385	57,88
303,918	50,88
304,45	52,9
304,982	51
305,514	54,61
306,046	52,28
306,578	58,93
307,11	50,56
307,641	46,18
308,173	50,56
308,704	59,39
309,236	50,94
309,767	53,75
310,298	43,55
310,829	56,65
311,359	50,53
311,89	53,38
312,421	51,81
312,951	49,09
313,481	66,27
314,012	54,58
314,542	45,89
315,072	49,09
315,601	54,45
316,131	52,92
316,661	58,33
317,19	46,98
317,72	54,95
318,249	52,36
318,778	53,23
319,307	52,7
319,836	55,7
320,365	50,81
320,893	52,13
321,422	52,61
321,95	48,89
322,479	53,29
323,007	50,72
323,535	58,11
324,063	55,22
324,591	42,33
325,118	55,24
325,646	55
326,173	61,43
326,701	50,55
327,228	56,23
327,755	55,56
328,282	54,72
328,809	49,26
329,336	54,67
329,862	65
330,389	49,15
330,915	48,58
331,441	48,47
331,968	50,52
332,494	52,17
333,02	48,18
333,545	46,93
334,071	46,67
334,597	48,31
335,122	45,15
335,648	60,07
336,173	49,83
336,698	54,11
337,223	49,15
337,748	44,56
338,272	51,49
338,797	50,16
339,322	43,85
339,846	43,36
340,37	45,42
340,894	49,66
341,419	53,69
341,942	50
342,466	52,9
342,99	43,38
343,514	39,61
344,037	51,15
344,56	45,77
345,084	43,53
345,607	46,5
346,13	51,38
346,653	42,45
347,175	50,97
347,698	40,18
348,221	41,28
348,743	43,15
349,265	47,62
349,787	38,57
350,309	48,48
350,831	47,16
351,353	45,5
351,875	45,22
352,397	45,18
352,918	50,56
353,439	52,85
353,961	41,97
354,482	40,73
355,003	49,87
355,524	40,56
356,044	40,11
356,565	41,15
357,086	37,66
357,606	38,31
358,126	42,09
358,646	40,8
359,167	42,51
359,687	44,1
360,206	40,96
360,726	39,75
361,246	41,93
361,765	38,38
362,285	41,23
362,804	40
363,323	36,01
363,842	37,62
364,361	39,39
364,88	37,76
365,398	37,97
365,917	36,55
366,435	40,99
366,954	35,67
367,472	39,02
367,99	43,33
368,508	40,04
369,026	40,31
369,544	38,36
370,061	39,02
370,579	35,46
371,096	36,86
371,613	36,7
372,131	42,43
372,648	39,53
373,165	42,11
373,681	38,35
374,198	36,23
374,715	34,55
375,231	35,93
375,747	37,69
376,264	36,42
376,78	38,76
377,296	35,13
377,812	37,69
378,327	31,7
378,843	40,47
379,359	34,35
379,874	34,97
380,389	34,66
380,905	36,47
381,42	36,03
381,935	34,4
382,449	31,89
382,964	33,74
383,479	35,63
383,993	31,85
384,508	32,9
385,022	33,49
385,536	32,1
386,05	31,02
386,564	31,48
387,078	30,47
387,592	32,92
388,105	29,6
388,619	31,56
389,132	31,94
389,645	30,54
390,158	26,68
390,671	30,1
391,184	27,6
391,697	28,08
392,21	29,15
392,722	28,9
393,235	26,35
393,747	26,6
394,259	28,1
394,771	26,9
395,283	27,55
395,795	25,7
396,307	25,56
396,818	28,06
397,33	26,57
397,841	24,43
398,353	24,91
398,864	25,29
399,375	24,42
399,886	24,14
400,397	23,76
400,907	23,96
401,418	22,35
401,928	21,38
402,439	22,21
402,949	20,32
403,459	20,69
403,969	20,31
404,479	19,72
404,989	21,77
405,498	18,33
406,008	18,34
406,517	18,69
407,027	18,54
407,536	16,5
408,045	16,33
408,554	16,19
409,063	15,74
409,572	14,89
410,08	15,31
410,589	15,26
411,097	13,99
411,606	13,91
412,114	13,37
412,622	13,28
413,13	12,82
413,638	12,29
414,145	11,6
414,653	12,09
415,16	11,91
415,668	11,74
416,175	11,75
416,682	11,08
417,189	10,69
417,696	10,69
418,203	10,4
418,71	10,01
419,216	10,17
419,723	9,74
420,229	9,7
420,735	9,66
421,242	9,84
421,748	9,61
422,254	9,08
422,759	9,7
423,265	9,24
423,771	8,81
424,276	9,16
424,781	9,64
425,287	8,95
425,792	8,72
426,297	9,26
426,802	8,38
427,306	8,75
427,811	9,26
428,316	8,47
428,82	8,39
429,324	8,51
429,829	8,7
430,333	8,57
430,837	8,24
431,34	8,44
431,844	8,43
432,348	8,37
432,851	7,83
433,355	8,31
433,858	7,97
434,361	8,37
434,864	8,18
435,367	8,18
435,87	8,42
436,373	8,08
436,876	7,54
437,378	8,28
437,88	8,27
438,383	8,34
438,885	7,91
439,387	7,82
439,889	7,83
440,391	7,98
440,892	7,6
441,394	7,63
441,896	7,74
442,397	7,78
442,898	7,74
443,399	7,72
443,9	8,02
444,401	8,09
444,902	8,13
445,403	7,7
445,903	7,8
446,404	7,98
446,904	7,94
447,405	8,06
447,905	7,74
448,405	8,12
448,905	8,07
449,404	7,88
449,904	7,98
450,404	7,94
450,903	7,75
451,403	7,81
451,902	8,05
452,401	8,34
452,9	7,76
453,399	8,32
453,898	8,24
454,396	8,16
454,895	8,14
455,393	7,86
455,892	8,06
456,39	8,2
456,888	8,06
457,386	8,2
457,884	8,43
458,382	8,51
458,879	8,46
459,377	8,09
459,874	8,01
460,372	8,14
460,869	8,32
461,366	8,03
461,863	8,46
462,36	8,49
462,857	7,8
463,353	8
463,85	7,83
464,346	8,08
464,843	8,37
465,339	8,09
465,835	7,98
466,331	8,01
466,827	8,09
467,323	7,95
467,818	8,24
468,314	8,12
468,809	7,76
469,305	8,03
469,8	8,01
470,295	8,08
470,79	8,26
471,285	8,02
471,78	7,95
472,274	8,33
472,769	8,17
473,263	8,23
473,758	8,31
474,252	7,97
474,746	8,32
475,24	8,36
475,734	8,19
476,228	8,43
476,721	8
477,215	8,2
477,708	8,18
478,202	8,22
478,695	8,22
479,188	7,95
479,681	8,33
480,174	8,34
480,667	8,46
481,159	7,94
481,652	8,47
482,144	8,07
482,637	8,52
483,129	8,38
483,621	8,56
484,113	8,62
484,605	8,56
485,097	8,31
485,588	8,4
486,08	8,44
486,571	8,57
487,063	8,51
487,554	8,49
488,045	8,43
488,536	8,38
489,027	8,39
489,518	8,54
490,008	8,59
490,499	8,71
490,989	8,66
491,48	8,77
491,97	8,65
492,46	8,48
492,95	9,04
493,44	8,97
493,93	8,9
494,419	8,81
494,909	9,11
495,398	8,94
495,888	9,02
496,377	8,91
496,866	9,19
497,355	9,57
497,844	9,42
498,333	9
498,821	9,11
499,31	9,46
499,798	9,76
500,287	9,48
500,775	9,94
501,263	9,65
501,751	10,06
502,239	9,86
502,727	10,15
503,215	9,99
503,702	10,44
504,19	10,49
504,677	10,51
505,164	10,64
505,651	11
506,139	11,23
506,625	11,07
507,112	11,35
507,599	11,44
508,086	11,53
508,572	11,96
509,058	12,35
509,545	12,18
510,031	12,41
510,517	12,7
511,003	13,05
511,489	13,21
511,974	13,58
512,46	13,75
512,946	13,7
513,431	14,23
513,916	14,32
514,401	14,62
514,887	15,1
515,371	15,2
515,856	15,55
516,341	15,94
516,826	16,43
517,31	16,53
517,795	16,85
518,279	17,16
518,763	17,63
519,247	17,56
519,731	18,07
520,215	18,66
520,699	18,97
521,182	19,22
521,666	19,66
522,149	19,98
522,633	20,44
523,116	20,94
523,599	20,86
524,082	21,28
524,565	21,71
525,048	21,64
525,53	22,25
526,013	23,03
526,495	22,51
526,978	23,54
527,46	23,95
527,942	23,9
528,424	24,18
528,906	24,46
529,388	24,39
529,87	25,2
530,351	25,02
530,833	25,37
531,314	25,58
531,795	26,18
532,277	25,92
532,758	26,19
533,238	26,41
533,719	26,61
534,2	26,46
534,681	26,86
535,161	27,08
535,642	26,84
536,122	26,95
536,602	27,12
537,082	27,27
537,562	27,62
538,042	27,11
538,522	27,71
539,001	27,98
539,481	27,71
539,96	27,93
540,44	27,78
540,919	28,44
541,398	28,47
541,877	28,07
542,356	28,67
542,835	28,47
543,313	28,54
543,792	28,21
544,27	27,95
544,749	28,49
545,227	28,23
545,705	28,48
546,183	28,43
546,661	29,11
547,139	28,51
547,616	28,48
548,094	29,36
548,571	28,89
549,049	29,35
549,526	29,02
550,003	28,95
550,48	29,03
550,957	29,47
551,434	29,11
551,911	29,14
552,387	29,26
552,864	29,22
553,34	28,95
553,817	29,58
554,293	29,36
554,769	29,18
555,245	28,99
555,721	29,31
556,197	29,08
556,672	29,26
557,148	28,85
557,623	29,03
558,099	28,76
558,574	28,6
559,049	29,12
559,524	28,71
559,999	28,89
560,474	28,44
560,948	28,24
561,423	28,77
561,897	28,34
562,372	28,36
562,846	27,97
563,32	28,19
563,794	27,82
564,268	27,68
564,742	27,5
565,216	27,48
565,69	26,93
566,163	27,17
566,636	27,03
567,11	26,73
567,583	26,5
568,056	26,33
568,529	26,41
569,002	26,12
569,475	25,57
569,947	25,51
570,42	25,3
570,892	24,99
571,365	24,69
571,837	24,88
572,309	24,69
572,781	24,29
573,253	24,31
573,725	23,75
574,197	23,93
574,668	23,55
575,14	23,31
575,611	23,24
576,082	22,99
576,554	22,88
577,025	22,73
577,496	22,58
577,967	22,33
578,437	22,17
578,908	22,08
579,379	21,74
579,849	21,92
580,319	21,53
580,79	21,55
581,26	21,45
581,73	21,09
582,2	21,21
582,669	21,19
583,139	20,69
583,609	20,62
584,078	20,59
584,548	20,35
585,017	20,3
585,486	20,06
585,955	19,96
586,424	19,84
586,893	19,92
587,362	19,86
587,83	19,83
588,299	19,56
588,767	19,57
589,236	19,38
589,704	19,49
590,172	19,42
590,64	19,21
591,108	19,01
591,576	19,3
592,043	19,1
592,511	19,02
592,978	19,02
593,446	18,78
593,913	18,85
594,38	18,61
594,847	18,72
595,314	18,58
595,781	18,51
596,248	18,46
596,715	18,51
597,181	18,56
597,647	18,35
598,114	18,31
598,58	18,48
599,046	18,35
599,512	18,33
599,978	18,23
600,444	18,11
600,91	18,09
601,375	18,1
601,841	18,19
602,306	18,13
602,771	17,81
603,236	17,83
603,702	17,78
604,167	17,8
604,631	17,68
605,096	17,74
605,561	17,59
606,025	17,46
606,49	17,31
606,954	17,31
607,418	17,25
607,882	16,96
608,347	16,93
608,81	16,99
609,274	16,69
609,738	16,88
610,202	16,64
610,665	16,57
611,128	16,41
611,592	16,48
612,055	16,12
612,518	16,03
612,981	15,98
613,444	15,95
613,907	15,85
614,369	15,73
614,832	15,53
615,294	15,5
615,757	15,48
616,219	15,21
616,681	15,14
617,143	14,99
617,605	15,05
618,067	14,96
618,529	14,78
618,99	14,89
619,452	14,78
619,913	14,87
620,375	14,53
620,836	14,56
621,297	14,61
621,758	14,45
622,219	14,43
622,68	14,3
623,14	14,46
623,601	14,38
624,061	14,21
624,522	14,07
624,982	13,9
625,442	14,04
625,902	14,14
626,362	14,03
626,822	13,96
627,282	13,94
627,742	13,99
628,201	13,81
628,661	13,89
629,12	13,92
629,579	13,83
630,038	13,83
630,497	13,79
630,956	13,93
631,415	13,76
631,874	13,82
632,332	13,68
632,791	13,74
633,249	13,51
633,708	13,58
634,166	13,45
634,624	13,46
635,082	13,46
635,54	13,44
635,998	13,29
636,455	13,13
636,913	13,17
637,37	12,95
637,828	12,98
638,285	12,77
638,742	12,77
639,199	12,63
639,656	12,47
640,113	12,48
640,57	12,27
641,027	12,33
641,483	11,96
641,94	11,99
642,396	11,86
642,852	11,7
643,309	11,65
643,765	11,33
644,221	11,31
644,676	11,27
645,132	11,14
645,588	11,06
646,043	11
646,499	10,72
646,954	10,69
647,409	10,49
647,864	10,55
648,319	10,4
648,774	10,23
649,229	10,29
649,684	10,2
650,139	10,08
650,593	10,08
651,047	10,04
651,502	10,04
651,956	9,97
652,41	9,94
652,864	9,85
653,318	9,83
653,772	9,75
654,225	9,8
654,679	9,54
655,133	9,49
655,586	9,55
656,039	9,4
656,492	9,38
656,946	9,35
657,399	9,3
657,851	9,27
658,304	9,27
658,757	9,11
659,209	9,08
659,662	8,91
660,114	8,96
660,567	8,8
661,019	8,74
661,471	8,74
661,923	8,52
662,375	8,39
662,826	8,45
663,278	8,41
663,73	8,36
664,181	8,32
664,632	8,25
665,084	8,29
665,535	8,21
665,986	8,19
666,437	8,23
666,888	8,1
667,338	8,1
667,789	8,18
668,24	8,14
668,69	8,15
669,14	8,24
669,591	8,08
670,041	8,07
670,491	8,12
670,941	8,23
671,391	8,3
671,84	8,18
672,29	8,25
672,74	8,23
673,189	8,32
673,638	8,38
674,088	8,41
674,537	8,58
674,986	8,43
675,435	8,56
675,883	8,64
676,332	8,78
676,781	8,74
677,229	8,84
677,678	8,94
678,126	9,05
678,574	9,11
679,022	9,19
679,47	9,32
679,918	9,29
680,366	9,43
680,814	9,45
681,261	9,51
681,709	9,72
682,156	9,63
682,604	9,77
683,051	9,92
683,498	9,95
683,945	10,07
684,392	10,15
684,839	10,38
685,286	10,38
685,732	10,62
686,179	10,77
686,625	10,83
687,071	10,93
687,518	11,15
687,964	11,3
688,41	11,52
688,856	11,69
689,301	11,97
689,747	12,14
690,193	12,61
690,638	12,89
691,084	13,21
691,529	13,63
691,974	14,25
692,419	14,58
692,864	15
693,309	15,5
693,754	16,06
694,199	16,58
694,643	17,15
695,088	17,72
695,532	18,33
695,977	19,04
696,421	19,61
696,865	20,26
697,309	20,91
697,753	21,62
698,197	22,24
698,64	22,9
699,084	23,51
699,527	24,11
699,971	24,91
700,414	25,56
700,857	26,35
701,3	26,81
701,743	27,43
702,186	28,12
702,629	28,9
703,072	29,35
703,515	30,18
703,957	30,73
704,399	31,07
704,842	31,92
705,284	32,49
705,726	33,29
706,168	33,95
706,61	34,23
707,052	34,89
707,494	35,28
707,935	36,03
708,377	36,82
708,818	37,07
709,26	37,62
709,701	37,87
710,142	38,86
710,583	38,93
711,024	39,95
711,465	40,14
711,905	40,81
712,346	40,98
712,787	41,62
713,227	42,31
713,667	42,91
714,108	43,14
714,548	43,75
714,988	44,27
715,428	44,42
715,868	44,98
716,307	45,65
716,747	46,01
717,186	46,39
717,626	46,81
718,065	47,16
718,504	47,58
718,944	48,03
719,383	48,17
719,822	48,59
720,261	49,28
720,699	49,46
721,138	49,72
721,576	50,34
722,015	50,34
722,453	50,73
722,892	51,6
723,33	51,53
723,768	51,92
724,206	52,51
724,644	52,75
725,081	53,1
725,519	52,98
725,957	53,13
726,394	53,43
726,832	53,97
727,269	54,26
727,706	54,54
728,143	54,87
728,58	54,71
729,017	54,99
729,454	55,16
729,89	55,12
730,327	55,83
730,764	55,73
731,2	55,96
731,636	55,91
732,072	55,83
732,509	56,61
732,945	56,99
733,38	57,07
733,816	56,71
734,252	56,85
734,688	57,32
735,123	57,04
735,559	57,67
735,994	57,39
736,429	57,33
736,864	57,53
737,299	57,71
737,734	57,82
738,169	58,17
738,604	58,18
739,038	58,22
739,473	58,3
739,907	58,17
740,342	58,24
740,776	58,33
741,21	58,3
741,644	58,35
742,078	58,46
742,512	58,84
742,946	58,29
743,379	58,61
743,813	58,45
744,246	58,72
744,68	58,63
745,113	58,45
745,546	59,05
745,979	58,62
746,412	58,59
746,845	58,7
747,278	58,28
747,711	58,8
748,143	58,46
748,576	58,79
749,008	58,86
749,441	58,74
749,873	58,34
750,305	58,47
750,737	58,26
751,169	58,49
751,601	58,88
752,032	58,61
752,464	58,56
752,896	58,68
753,327	58,61
753,758	58,78
754,19	58,33
754,621	58,44
755,052	58,24
755,483	58,29
755,914	58,31
756,344	58,37
756,775	58,07
757,206	58,53
757,636	58,27
758,066	58,31
758,497	58,25
758,927	58,16
759,357	58,39
759,787	58,12
760,217	58,08
760,647	57,91
761,076	58,08
761,506	58
761,935	57,94
762,365	57,98
762,794	57,72
763,223	57,85
763,653	57,98
764,082	57,63
764,51	57,65
764,939	57,65
765,368	57,78
765,797	57,6
766,225	57,74
766,654	57,44
767,082	57,9
767,51	57,35
767,938	57,78
768,367	57,02
768,795	56,87
769,222	57,56
769,65	57,36
770,078	57,3
770,505	57,45
770,933	57,37
771,36	57,42
771,788	57,35
772,215	57,11
772,642	57,49
773,069	57,31
773,496	56,98
773,923	57,41
774,349	57,14
774,776	57,15
775,203	56,8
775,629	57,3
776,055	57,19
776,482	57,15
776,908	56,9
777,334	56,83
777,76	57,06
778,186	57,06
778,611	57,11
779,037	56,86
779,463	56,86
779,888	56,63
780,314	56,68
780,739	56,94
781,164	56,65
781,589	57,09
782,014	56,81
782,439	56,59
782,864	56,66
783,289	57,21
783,713	56,37
784,138	56,72
784,562	56,86
784,987	56,85
785,411	56,23
785,835	57,04
786,259	56,64
786,683	56,67
787,107	57,02
787,531	56,38
787,954	56,58
788,378	56,58
788,802	56,44
789,225	56,39
789,648	56,62
790,071	56,62
790,495	56,64
790,918	56,46
791,34	56,46
791,763	56,7
792,186	56,38
792,609	56,55
793,031	56,5
793,454	56,69
793,876	56,15
794,298	56,62
794,721	56,59
795,143	56,7
795,565	56,29
795,986	56,46
796,408	56,73
796,83	56,44
797,252	56,39
797,673	56,59
798,094	56,4
798,516	56,4
798,937	56,21
799,358	56,61
799,779	56,4
800,2	56,24
800,621	56,13
801,042	56,6
801,462	56,52
801,883	56,33
802,303	56,28
802,724	55,92
803,144	56,38
803,564	56,37
803,984	56,2
804,404	56,08
804,824	56,48
805,244	56,43
805,664	56,15
806,084	56,26
806,503	56,29
806,923	56,35
807,342	56,4
807,761	56,36
808,18	56
808,599	56,35
809,018	56,16
809,437	56,39
809,856	56,15
810,275	56,08
810,693	56,5
811,112	56,31
811,53	56,2
811,949	56,08
812,367	55,79
812,785	56,06
813,203	55,95
813,621	56,23
814,039	55,89
814,457	56,05
814,874	56,26
815,292	56,32
815,709	56,13
816,127	55,71
816,544	56,42
816,961	56,04
817,378	56,26
817,795	56,13
818,212	56,12
818,629	55,84
819,046	56,25
819,462	56,26
819,879	56,14
820,295	55,91
820,712	56,28
821,128	56,14
821,544	56,03
821,96	56,17
822,376	55,88
822,792	55,94
823,208	55,95
823,624	55,95
824,039	56,24
824,455	56,37
824,87	56,29
825,286	56,07
825,701	56,17
826,116	56,02
826,531	55,92
826,946	56,2
827,361	56,24
827,776	56,45
828,19	56,04
828,605	55,72
829,02	55,96
829,434	56,19
829,848	56,05
830,263	56,07
830,677	56,05
831,091	56,18
831,505	55,65
831,919	56,29
832,332	56,19
832,746	56,27
833,16	55,62
833,573	55,6
833,987	55,83
834,4	55,78
834,813	56
835,226	55,91
835,639	55,96
836,052	56,44
836,465	56
836,878	55,62
837,29	56,15
837,703	55,95
838,116	56,11
838,528	55,77
838,94	55,69
839,352	55,79
839,765	55,7
840,177	55,78
840,589	55,6
841	55,89
841,412	55,79
841,824	55,68
842,235	55,91
842,647	55,49
843,058	55,76
843,47	55,4
843,881	55,51
844,292	55,48
844,703	55,56
845,114	55,6
845,525	55,9
845,935	55,83
846,346	55,26
846,757	55,62
847,167	56,06
847,577	55,81
847,988	55,72
848,398	55,94
848,808	55,55
849,218	55,86
849,628	55,55
850,038	55,81
850,448	55,75
850,857	55,85
851,267	55,8
851,676	55,67
852,086	55,56
852,495	55,63
852,904	55,63
853,313	55,8
853,722	55,85
854,131	55,61
854,54	55,61
854,949	55,83
855,357	55,71
855,766	55,55
856,174	55,17
856,583	55,57
856,991	55,52
857,399	55,6
857,807	55,39
858,215	55,95
858,623	55,36
859,031	55,75
859,439	55,46
859,846	55,74
860,254	55,58
860,661	55,52
861,069	55,4
861,476	55,43
861,883	55,68
862,29	55,45
862,697	55,24
863,104	55,43
863,511	55,24
863,918	55,18
864,325	55,52
864,731	55,44
865,138	55,5
865,544	55,79
865,95	55,41
866,357	55,74
866,763	55,51
867,169	55,45
867,575	55,43
867,98	54,79
868,386	55,06
868,792	55,61
869,197	55,72
869,603	55,39
870,008	55,21
870,414	55,47
870,819	55,51
871,224	55,51
871,629	55,31
872,034	55,31
872,439	55,43
872,844	55,66
873,248	54,99
873,653	55,27
874,057	55,96
874,462	55,67
874,866	55,28
875,27	55,46
875,674	55,58
876,078	55,72
876,482	55,56
876,886	55,43
877,29	55,65
877,694	55,7
878,097	55,57
878,501	55,62
878,904	55,35
879,308	55,52
879,711	55,53
880,114	55,4
880,517	55,51
880,92	55,62
881,323	55,62
881,726	55,24
882,128	55,88
882,531	55,47
882,934	55,15
883,336	55,34
883,738	55,49
884,141	55,23
884,543	55,23
884,945	55,37
885,347	55,41
885,749	55,6
886,151	55,38
886,552	55,91
886,954	55,42
887,355	55,91
887,757	55,46
888,158	55,28
888,56	55,54
888,961	55,69
889,362	55,48
889,763	55,38
890,164	55,34
890,565	55,2
890,965	55,34
891,366	54,89
891,767	55,23
892,167	55,45
892,567	55,12
892,968	55,75
893,368	55,23
893,768	55,48
894,168	55,35
894,568	55,56
894,968	55,16
895,368	55,22
895,767	55,45
896,167	55,09
896,566	55,26
896,966	55,36
897,365	55,43
897,764	55,76
898,164	55,27
898,563	55,4
898,962	55,4
899,361	55,09
899,759	55,49
900,158	55,48
900,557	55,75
900,955	55,31
901,354	55,82
901,752	55,32
902,15	55,6
902,548	55,76
902,947	55,49
903,345	55,68
903,742	55,51
904,14	55,56
904,538	55,75
904,936	55,53
905,333	55,71
905,731	55,73
906,128	55,36
906,525	55,29
906,923	55,56
907,32	55,74
907,717	55,33
908,114	55,26
908,511	55,35
908,907	55,48
909,304	55,5
909,701	55,03
910,097	55,62
910,494	55,21
910,89	55,36
911,286	55,62
911,682	55,31
912,078	55,37
912,474	55,3
912,87	55,31
913,266	55,53
913,662	55,17
914,058	55,45
914,453	55,2
914,849	55,16
915,244	54,98
915,639	55,28
916,034	54,84
916,43	55,37
916,825	54,97
917,22	55,09
917,614	55,1
918,009	55,44
918,404	55,26
918,798	55,53
919,193	55,26
919,587	55,34
919,982	55,01
920,376	55,31
920,77	55,32
921,164	55,55
921,558	55,74
921,952	55,22
922,346	55,01
922,74	55,44
923,133	55,65
923,527	55,01
923,92	55
924,314	55,71
924,707	55,2
925,1	55,15
925,493	55,17
925,886	55,19
926,279	55,59
926,672	55,1
927,065	55,22
927,457	54,98
927,85	55,2
928,243	55,06
928,635	55,15
929,027	54,9
929,42	55,41
929,812	54,91
930,204	55,23
930,596	55,19
930,988	54,88
931,379	54,96
931,771	55,04
932,163	54,94
932,554	54,69
932,946	54,85
933,337	55,24
933,729	55,63
934,12	54,99
934,511	55,02
934,902	54,7
935,293	55,06
935,684	54,65
936,075	54,73
936,465	54,96
936,856	54,46
937,246	55,05
937,637	55,2
938,027	54,71
938,417	54,41
938,808	55,32
939,198	54,42
939,588	54,43
939,978	54,86
940,368	54,66
940,757	54,68
941,147	55,41
941,537	54,87
941,926	54,93
942,315	54,59
942,705	54,08
943,094	54,54
943,483	54,41
943,872	54,51
944,261	54,63
944,65	54,18
945,039	54,85
945,428	54,23
945,816	54,62
946,205	54,72
946,593	54,23
946,982	54,67
947,37	54,38
947,758	54,42
948,146	54,28
948,534	54,87
948,922	54,85
949,31	55,41
949,698	54,64
950,086	54,3
950,473	54,13
950,861	53,38
951,248	54,13
951,636	54,45
952,023	53,7
952,41	53
952,797	54,31
953,184	54,04
953,571	54,02
953,958	54,13
954,345	53,78
954,731	53,72
955,118	53,67
955,505	53,94
955,891	53,81
956,277	53,65
956,664	53,81
957,05	53,38
957,436	54,16
957,822	53,54
958,208	53,69
958,594	52,76
958,979	53,3
959,365	53,61
959,751	53,44
960,136	53,57
960,522	52,87
960,907	53,26
961,292	53,29
961,677	53,43
962,062	53,36
962,447	53,26
962,832	53,64
963,217	53,51
963,602	53,39
963,986	53,26
964,371	52,7
964,756	53,24
965,14	53,13
965,524	53,19
965,908	53,31
966,293	53,39
966,677	53,29
967,061	53,4
967,445	53,38
967,828	52,98
968,212	53,21
968,596	52,95
968,979	52,89
969,363	53,56
969,746	53,78
970,129	53,17
970,513	52,84
970,896	53,39
971,279	53,76
971,662	53,18
972,045	53,43
972,428	53,18
972,81	53,09
973,193	53,02
973,575	53,47
973,958	53,13
974,34	54,31
974,723	53,11
975,105	53,06
975,487	53,08
975,869	53,46
976,251	53,35
976,633	53,6
977,015	53,84
977,396	53,55
977,778	53,57
978,16	53,3
978,541	53,32
978,922	53,45
979,304	53,39
979,685	53,16
980,066	54,02
980,447	53,25
980,828	53,39
981,209	53,79
981,59	52,89
981,97	53,35
982,351	53,9
982,732	53,65
983,112	53,89
983,493	53,21
983,873	53,45
984,253	53,78
984,633	53,37
985,013	53,46
985,393	53,89
985,773	53,46
986,153	54,13
986,533	53,37
986,912	53,6
987,292	53,52
987,671	54,13
988,051	52,94
988,43	53,66
988,809	53,62
989,188	53,44
989,567	54,11
989,946	54,09
990,325	53,79
990,704	53,67
991,083	53,73
991,461	53,69
991,84	53,56
992,218	53,67
992,597	53,52
992,975	53,89
993,353	53,76
993,732	53,93
994,11	54,39
994,488	53,07
994,866	53,63
995,243	53,67
995,621	53,85
995,999	53,37
996,376	54,49
996,754	54,25
997,131	54,36
997,509	53,93
997,886	53,61
998,263	54,13
998,64	53,99
999,017	53,65
999,394	53,66
999,771	53,51
1000,148	53,88
1000,524	54,01
1000,901	54,14
1001,277	53,62
1001,654	54,04
1002,03	54,16
1002,406	53,72
1002,783	53,91
1003,159	54,67
1003,535	53,29
1003,911	54,53
1004,286	53,17
1004,662	53,97
1005,038	53,48
1005,414	54,63
1005,789	53,67
1006,164	54,03
1006,54	54,32
1006,915	54,11
1007,29	54,06
1007,665	54,21
1008,04	54,47
1008,415	54,35
1008,79	54,3
1009,165	54,14
1009,54	53,58
1009,914	54,31
1010,289	54,32
1010,663	54,27
1011,038	53,86
1011,412	54,46
1011,786	53,56
1012,16	54,28
1012,535	54,27
1012,909	54,37
1013,282	54,35
1013,656	53,98
1014,03	54,73
1014,404	54,34
1014,777	54,45
1015,151	54,27
1015,524	54,63
1015,897	54,76
1016,271	53,91
1016,644	53,56
1017,017	54,4
1017,39	54,13
1017,763	54,05
1018,136	54,23
1018,508	55,26
1018,881	54,86
1019,254	55,09
1019,626	54,24
1019,999	54,62
1020,371	54,17
1020,743	54,72
1021,116	54,45
1021,488	54,79
1021,86	54,2
1022,232	54,79
1022,604	54,43
1022,975	55
1023,347	55,03
1023,719	54,27
1024,09	54,18
1024,462	54,23
1024,833	53,7
1025,204	54,75
1025,576	54,93
1025,947	54,59
1026,318	54,87
1026,689	54,11
1027,06	54,72
1027,431	54,11
1027,801	55,13
1028,172	54,55
1028,543	55,4
1028,913	53,98
1029,284	54,26
1029,654	53,84
1030,024	53,73
1030,394	55,2
1030,764	55,44
1031,135	54,8
1031,504	54,65
1031,874	55,02
1032,244	54,54
1032,614	55,03
1032,983	53,93
1033,353	54,58
1033,722	54,7
1034,092	55,29
1034,461	54,93
1034,83	53,75
1035,2	53,97
1035,569	54,96
1035,938	55,44
1036,307	55,71
1036,675	54,68
1037,044	54,66
1037,413	53,98
1037,781	54,39
1038,15	53,82
1038,518	55,54
1038,887	54,81
1039,255	54,36
1039,623	55,17
1039,991	55,2
1040,359	54,45
1040,727	54,57
1041,095	54,58
1041,463	55,46
1041,831	54,19
1042,198	55,11
1042,566	54,85
1042,933	54,79
1043,301	54,47
1043,668	55,4
1044,035	54,43
1044,402	55,55
1044,77	55,49
1045,137	55,73
1045,503	54,97
1045,87	55,58
1046,237	54,5
1046,604	54,52
1046,97	55,29
1047,337	54,31
1047,703	54,26
1048,07	55,13
1048,436	55,3
1048,802	54,59
1049,168	55,24
1049,534	53,93
1049,9	55,25
1050,266	55,78
1050,632	55,28
1050,998	55,02
1051,364	55,57
1051,729	55,06
1052,095	55,56
1052,46	55,51
1052,825	54,71
1053,191	55,68
1053,556	54,8
1053,921	55,64
1054,286	55,64
1054,651	55,03
1055,016	55,58
1055,381	54,37
1055,745	55,26
1056,11	56,6
1056,475	55,63
1056,839	55,04
1057,203	54,83
1057,568	55,38
1057,932	54,66
1058,296	54
1058,66	55,71
1059,024	54,99
1059,388	54,75
1059,752	55,94
1060,116	55,73
1060,48	56,54
1060,843	55,75
1061,207	55
1061,57	55,31
1061,934	55,91
1062,297	55,78
1062,66	56,36
1063,023	56,1
1063,386	55,03
1063,749	54,7
1064,112	54,42
1064,475	54,87
1064,838	55,03
1065,201	56,03
1065,563	54,29
1065,926	54,38
1066,288	55,09
1066,651	53,99
1067,013	55,45
1067,375	55,26
1067,737	54,7
1068,099	55,81
1068,461	55,08
1068,823	54,78
1069,185	55,87
1069,547	53,04
1069,909	55,04
1070,27	56,99
1070,632	54,39
1070,993	54,06
1071,355	55,12
1071,716	55,81
1072,077	55,39
1072,438	55,55
1072,799	55,43
1073,16	55,97
1073,521	55,48
1073,882	53,6
1074,243	54,79
1074,603	54,72
1074,964	53,52
1075,325	55,38
1075,685	55,71
1076,045	54,07
1076,406	54,41
1076,766	56,16
1077,126	56,29
1077,486	54,68
1077,846	53,34
1078,206	55,42
1078,566	55,91
1078,925	56,46
1079,285	55,87
1079,645	56,61
1080,004	54,66
1080,364	54,57
1080,723	55,37
1081,082	56,68
1081,442	54,79
1081,801	56,44
1082,16	57,59
1082,519	58,33
1082,878	56,35
1083,237	55,26
1083,595	56,35
1083,954	56,99
1084,313	54,74
1084,671	55,74
1085,03	54,28
1085,388	56,2
1085,746	55,33
1086,104	55,01
1086,463	54,97
1086,821	55,71
1087,179	55,47
1087,537	56,12
1087,894	55,1
1088,252	54,84
1088,61	54,97
1088,967	55,8
1089,325	56,33
1089,682	55,44
1090,04	55,47
1090,397	54,65
1090,754	55,49
1091,111	56,3
1091,469	55,01
1091,826	55,08
1092,182	55,09
1092,539	56,44
1092,896	54,95
1093,253	56,46
1093,609	56,93
1093,966	54,67
1094,322	55,68
1094,679	55,2
1095,035	53,73
1095,391	54,65
1095,748	56
1096,104	55,29
1096,46	55,66
1096,816	53,64
1097,171	57,85
1097,527	53,78
1097,883	55,52
1098,239	56,88
1098,594	55,88
1098,95	56,24
1099,305	56,49
1099,66	54,46
1100,016	54,57
1100,371	56,32
1100,726	55,97
1101,081	53,47
1101,436	54,56
1101,791	55,86
1102,146	54,4
1102,5	55,93
1102,855	54,31
1103,21	55,75
1103,564	55,44
1103,918	53,93
1104,273	56,88
1104,627	54,47
1104,981	54,18
1105,335	57,51
1105,69	56,57
1106,043	55,39
1106,397	54,93
1106,751	55,73
1107,105	57,66
1107,459	57,76
1107,812	53,27
1108,166	55,61
1108,519	55,29
1108,873	56,81
1109,226	53,48
1109,579	57,12
1109,932	53,94
1110,285	56,78
1110,638	54,77
1110,991	55,65
1111,344	56,43
1111,697	56,84
1112,05	53,9
1112,402	53,44
1112,755	57,25
1113,107	55
1113,46	54,08
1113,812	54,58
1114,164	59,69
1114,517	57,2
1114,869	56,41
1115,221	70,16
1115,573	62,26
1115,924	60,58
