Data from E_4__Relative__5__00106.txt Node

Date: Mon Jan 29 18:19:56 CET 2024
User: diatiterra
Spectrometer: HDX00911
Trigger mode: 0
Integration Time (sec): 6,000000E-3
Scans to average: 2
Nonlinearity correction enabled: false
Boxcar width: 0
Storing dark spectrum: false
XAxis mode: Wavelengths
Number of Pixels in Spectrum: 2068
>>>>>Begin Spectral Data<<<<<
194,468	59,8
195,025	33,63
195,581	47,87
196,138	39,23
196,694	40,23
197,251	39,11
197,807	34
198,363	30,18
198,919	41,99
199,474	36,43
200,03	34,56
200,586	27,55
201,141	32,96
201,696	28,72
202,251	36,53
202,806	36,09
203,361	31,93
203,916	38,01
204,471	35,21
205,025	38,93
205,58	34,05
206,134	42,22
206,688	31,16
207,242	31,97
207,796	28,47
208,35	28,88
208,904	28,81
209,457	33,57
210,011	33,92
210,564	35,07
211,117	35,56
211,67	34,51
212,223	33,9
212,776	34,08
213,329	26,12
213,881	32,5
214,434	30,34
214,986	30,3
215,538	27,84
216,09	32,79
216,642	40,37
217,194	32,12
217,746	37,37
218,297	32,55
218,849	30,84
219,4	35,66
219,951	39,27
220,502	33,45
221,053	33,54
221,604	33,22
222,155	31,69
222,705	35,12
223,256	37,05
223,806	32,65
224,356	39,49
224,906	37,04
225,456	27,93
226,006	28,86
226,556	36,86
227,106	38,11
227,655	34,84
228,204	33,88
228,754	28,97
229,303	36,61
229,852	33,66
230,401	28,67
230,949	43,58
231,498	33,58
232,047	34,01
232,595	34,75
233,143	32,2
233,691	32,8
234,239	30,6
234,787	30,07
235,335	31,97
235,883	33,33
236,43	38,52
236,978	30,91
237,525	34,33
238,072	27,31
238,619	29,11
239,166	36,36
239,713	33,83
240,26	34,83
240,806	33,69
241,353	37,1
241,899	31,39
242,445	38,46
242,991	38,33
243,537	34,32
244,083	34,55
244,629	36,49
245,174	32,46
245,72	31,44
246,265	31,1
246,81	32,48
247,355	32,72
247,9	25,26
248,445	40,34
248,99	30,8
249,534	34,81
250,079	29,48
250,623	31,86
251,168	35,23
251,712	41,84
252,256	31,23
252,8	32,29
253,343	39,81
253,887	35,37
254,43	34,57
254,974	41,26
255,517	32,21
256,06	33,22
256,603	34,34
257,146	35,02
257,689	37,66
258,232	30,65
258,774	33,21
259,317	35,53
259,859	30,26
260,401	28,03
260,943	30,6
261,485	30,14
262,027	35,86
262,569	33,46
263,11	41,88
263,652	38,97
264,193	33,57
264,734	38,49
265,275	32,13
265,816	49,64
266,357	32,01
266,898	29,35
267,438	29,8
267,979	37,45
268,519	34,3
269,059	37,23
269,6	30,88
270,14	35,31
270,68	37,16
271,219	35,44
271,759	35,45
272,298	25,45
272,838	41,47
273,377	39,63
273,916	38,63
274,455	30,27
274,994	28,06
275,533	32,08
276,072	28,95
276,61	34,13
277,149	30,8
277,687	29,18
278,225	32,19
278,763	34,42
279,301	33,21
279,839	32,97
280,377	30,66
280,914	33,7
281,452	33,74
281,989	32,42
282,526	35,13
283,064	35,76
283,601	38,26
284,137	31,75
284,674	33,96
285,211	28,78
285,747	34,58
286,284	25,61
286,82	27,66
287,356	28,87
287,892	31,93
288,428	28,81
288,964	37,91
289,5	40,14
290,035	37,05
290,571	38,06
291,106	31,64
291,641	32,18
292,176	42,48
292,711	38,62
293,246	32,85
293,781	31,23
294,315	33,09
294,85	38,32
295,384	38,15
295,918	37,28
296,453	36,75
296,987	36,9
297,52	31,16
298,054	31,99
298,588	30,31
299,121	31,5
299,655	35,44
300,188	34,6
300,721	32,76
301,254	38,43
301,787	31,71
302,32	35,61
302,853	27,18
303,385	35,9
303,918	37,54
304,45	37,84
304,982	34,26
305,514	33,21
306,046	32,28
306,578	39,29
307,11	39,41
307,641	33,45
308,173	31,23
308,704	36,02
309,236	29,21
309,767	27,08
310,298	26,48
310,829	41,83
311,359	34,88
311,89	33,81
312,421	31,16
312,951	44,36
313,481	36,14
314,012	39,56
314,542	39,38
315,072	34,18
315,601	36,3
316,131	29,2
316,661	37,92
317,19	28,83
317,72	38,46
318,249	37,84
318,778	32,32
319,307	36,49
319,836	34,23
320,365	39,41
320,893	35,46
321,422	28,36
321,95	37,04
322,479	39,79
323,007	35,87
323,535	32,08
324,063	39,55
324,591	32,33
325,118	28,32
325,646	34,62
326,173	39,29
326,701	34,55
327,228	33,23
327,755	29,75
328,282	29,81
328,809	34,07
329,336	32,18
329,862	33,46
330,389	29,35
330,915	26,24
331,441	34,58
331,968	37,11
332,494	29,1
333,02	31,39
333,545	23,47
334,071	31,67
334,597	27,03
335,122	26,42
335,648	35,9
336,173	29,37
336,698	29,79
337,223	36,52
337,748	24,21
338,272	27,72
338,797	24,92
339,322	28,9
339,846	21,48
340,37	28,21
340,894	34,25
341,419	34,9
341,942	30,54
342,466	25,6
342,99	24,31
343,514	21,1
344,037	28,52
344,56	19,75
345,084	32,49
345,607	28,57
346,13	25,23
346,653	22,01
347,175	27,1
347,698	28,57
348,221	25,29
348,743	22,45
349,265	22,32
349,787	27,71
350,309	26,72
350,831	23,58
351,353	25,13
351,875	23,88
352,397	25,9
352,918	25,42
353,439	24,66
353,961	22,82
354,482	25
355,003	28,15
355,524	25,26
356,044	22,69
356,565	23,69
357,086	25,19
357,606	17,35
358,126	22,87
358,646	24,88
359,167	20,39
359,687	21,46
360,206	19,28
360,726	17,57
361,246	21,2
361,765	19,74
362,285	18,96
362,804	22,67
363,323	18,58
363,842	20,71
364,361	17,75
364,88	22,57
365,398	24,28
365,917	18,28
366,435	22,32
366,954	22,65
367,472	22,17
367,99	18,28
368,508	23,05
369,026	17,44
369,544	16,36
370,061	20,39
370,579	20,45
371,096	19,16
371,613	20
372,131	16,9
372,648	22,02
373,165	21,32
373,681	19,44
374,198	17,05
374,715	19,44
375,231	16,85
375,747	19,5
376,264	15,02
376,78	19,3
377,296	16,46
377,812	16,02
378,327	17,93
378,843	17,43
379,359	15,8
379,874	18,99
380,389	14,99
380,905	17,11
381,42	16,71
381,935	15,2
382,449	16,01
382,964	15,83
383,479	17,37
383,993	14,42
384,508	19,44
385,022	14,94
385,536	14,65
386,05	14,35
386,564	17,52
387,078	13,82
387,592	17,4
388,105	15,83
388,619	15,63
389,132	14,07
389,645	14,99
390,158	14,87
390,671	13,6
391,184	13,8
391,697	12,51
392,21	15,28
392,722	13,47
393,235	12,6
393,747	12,57
394,259	13,04
394,771	12,87
395,283	12,02
395,795	12,89
396,307	12,24
396,818	11,95
397,33	12,07
397,841	13,2
398,353	11,81
398,864	12,03
399,375	9,38
399,886	10,91
400,397	10,02
400,907	11,28
401,418	9,39
401,928	10,29
402,439	11,1
402,949	9,58
403,459	8,9
403,969	8,84
404,479	8,5
404,989	7,4
405,498	8,46
406,008	8,07
406,517	8,04
407,027	7,47
407,536	7,8
408,045	6,65
408,554	7,11
409,063	6,28
409,572	6,87
410,08	6,43
410,589	6,02
411,097	5,38
411,606	5,98
412,114	5,76
412,622	5,15
413,13	5,27
413,638	4,92
414,145	4,49
414,653	4,75
415,16	4,74
415,668	4,69
416,175	4,54
416,682	4,68
417,189	4,56
417,696	4,45
418,203	4,53
418,71	4,02
419,216	3,78
419,723	4,39
420,229	3,8
420,735	4,18
421,242	4,36
421,748	4,43
422,254	3,76
422,759	3,58
423,265	3,13
423,771	3,73
424,276	3,97
424,781	3,73
425,287	3,75
425,792	3,39
426,297	4,13
426,802	3,59
427,306	3,57
427,811	3,59
428,316	3,52
428,82	3,56
429,324	3,51
429,829	3,72
430,333	3,3
430,837	3,2
431,34	3,33
431,844	3,37
432,348	2,99
432,851	3,51
433,355	2,96
433,858	3,05
434,361	3,43
434,864	3,06
435,367	3,12
435,87	3,29
436,373	3,28
436,876	2,89
437,378	2,8
437,88	3,33
438,383	2,87
438,885	3,03
439,387	2,96
439,889	2,98
440,391	3,2
440,892	3,04
441,394	3,25
441,896	3,08
442,397	2,83
442,898	2,76
443,399	3,29
443,9	2,98
444,401	2,98
444,902	2,81
445,403	2,91
445,903	3,05
446,404	3,03
446,904	2,87
447,405	3
447,905	3,16
448,405	3,06
448,905	3,1
449,404	3,1
449,904	3,05
450,404	2,9
450,903	2,99
451,403	2,73
451,902	3,38
452,401	3,3
452,9	3,22
453,399	3,33
453,898	3,22
454,396	3,26
454,895	3,23
455,393	3,16
455,892	3,01
456,39	3,3
456,888	3,32
457,386	2,96
457,884	3,33
458,382	3
458,879	3,28
459,377	2,88
459,874	2,93
460,372	3,07
460,869	3,16
461,366	2,98
461,863	3,08
462,36	3,17
462,857	3,16
463,353	3,15
463,85	3,28
464,346	2,94
464,843	3,24
465,339	2,98
465,835	3,09
466,331	3,12
466,827	3,1
467,323	2,91
467,818	3,06
468,314	3,44
468,809	2,92
469,305	3,06
469,8	3,02
470,295	3,2
470,79	3,18
471,285	3,09
471,78	3,06
472,274	2,94
472,769	3,12
473,263	2,92
473,758	3,22
474,252	3,22
474,746	3,16
475,24	3,18
475,734	3,02
476,228	3,31
476,721	3,05
477,215	3,11
477,708	3,12
478,202	3,22
478,695	2,9
479,188	3,12
479,681	3,13
480,174	2,96
480,667	3,14
481,159	3,11
481,652	3,19
482,144	3,27
482,637	3,13
483,129	3,06
483,621	3,19
484,113	3,31
484,605	3
485,097	3,31
485,588	3,06
486,08	3,2
486,571	3,27
487,063	3
487,554	3,22
488,045	3,36
488,536	3,16
489,027	3,45
489,518	3,28
490,008	3,44
490,499	3,47
490,989	3,3
491,48	3,47
491,97	3,34
492,46	3,34
492,95	3,49
493,44	3,36
493,93	3,43
494,419	3,56
494,909	3,52
495,398	3,46
495,888	3,61
496,377	3,75
496,866	3,77
497,355	3,95
497,844	3,83
498,333	3,84
498,821	4,05
499,31	3,94
499,798	4,02
500,287	4,19
500,775	4
501,263	4,12
501,751	4,22
502,239	4,33
502,727	4,4
503,215	4,55
503,702	4,74
504,19	4,84
504,677	4,68
505,164	5,01
505,651	4,94
506,139	5,16
506,625	5,09
507,112	5,45
507,599	5,63
508,086	5,53
508,572	5,59
509,058	5,8
509,545	5,99
510,031	6,49
510,517	6,37
511,003	6,6
511,489	6,45
511,974	6,86
512,46	6,97
512,946	7,15
513,431	7,17
513,916	7,51
514,401	7,62
514,887	8,02
515,371	8,09
515,856	8,3
516,341	8,68
516,826	8,78
517,31	8,98
517,795	9,17
518,279	9,24
518,763	9,51
519,247	9,65
519,731	10,22
520,215	10,49
520,699	10,64
521,182	10,62
521,666	11,04
522,149	11,18
522,633	11,56
523,116	11,74
523,599	11,68
524,082	12,1
524,565	12,43
525,048	12,58
525,53	12,67
526,013	12,93
526,495	13,09
526,978	13,3
527,46	13,88
527,942	13,67
528,424	14,06
528,906	14,09
529,388	14,25
529,87	14,07
530,351	14,58
530,833	14,85
531,314	14,95
531,795	14,97
532,277	14,83
532,758	15,14
533,238	15,13
533,719	15,4
534,2	15,68
534,681	15,43
535,161	15,67
535,642	15,99
536,122	15,55
536,602	16,11
537,082	16,16
537,562	16,13
538,042	16,22
538,522	15,83
539,001	16,17
539,481	16,02
539,96	16,32
540,44	16,38
540,919	16,31
541,398	16,29
541,877	16,79
542,356	16,66
542,835	16,71
543,313	16,72
543,792	16,77
544,27	16,53
544,749	16,57
545,227	16,58
545,705	16,63
546,183	16,93
546,661	16,84
547,139	16,5
547,616	16,52
548,094	16,92
548,571	16,96
549,049	16,89
549,526	16,86
550,003	17,09
550,48	16,78
550,957	16,92
551,434	16,77
551,911	17,02
552,387	17,03
552,864	17,17
553,34	17,12
553,817	17,2
554,293	17,04
554,769	17,1
555,245	16,82
555,721	16,78
556,197	16,98
556,672	16,85
557,148	16,83
557,623	17,25
558,099	17,28
558,574	16,83
559,049	17,11
559,524	16,95
559,999	16,94
560,474	16,5
560,948	16,69
561,423	16,58
561,897	16,54
562,372	16,74
562,846	16,56
563,32	16,29
563,794	16,2
564,268	16,09
564,742	16,12
565,216	15,7
565,69	15,83
566,163	15,94
566,636	15,63
567,11	15,75
567,583	15,24
568,056	15,44
568,529	15,24
569,002	15,11
569,475	15,21
569,947	14,65
570,42	14,45
570,892	14,49
571,365	14,33
571,837	14,22
572,309	14,27
572,781	14,09
573,253	13,76
573,725	13,75
574,197	13,79
574,668	13,52
575,14	13,38
575,611	13,23
576,082	13,27
576,554	13,2
577,025	13,08
577,496	12,97
577,967	12,92
578,437	12,68
578,908	12,62
579,379	12,52
579,849	12,31
580,319	12,36
580,79	12,13
581,26	12,35
581,73	12,27
582,2	11,9
582,669	11,85
583,139	12,01
583,609	11,77
584,078	11,74
584,548	11,48
585,017	11,58
585,486	11,47
585,955	11,42
586,424	11,21
586,893	11,18
587,362	11,3
587,83	11,01
588,299	11,09
588,767	10,94
589,236	10,88
589,704	11,03
590,172	10,73
590,64	10,87
591,108	10,77
591,576	10,86
592,043	10,64
592,511	10,57
592,978	10,57
593,446	10,41
593,913	10,39
594,38	10,48
594,847	10,4
595,314	10,17
595,781	10,39
596,248	10,2
596,715	10,46
597,181	10,28
597,647	10,25
598,114	10,21
598,58	10,2
599,046	10,37
599,512	10,17
599,978	10,36
600,444	10,03
600,91	10,2
601,375	10,06
601,841	9,98
602,306	9,95
602,771	10
603,236	10,06
603,702	9,81
604,167	9,81
604,631	9,75
605,096	9,91
605,561	9,67
606,025	9,64
606,49	9,64
606,954	9,58
607,418	9,63
607,882	9,52
608,347	9,44
608,81	9,39
609,274	9,37
609,738	9,26
610,202	9,16
610,665	9,02
611,128	9,12
611,592	8,91
612,055	8,81
612,518	8,83
612,981	8,75
613,444	8,64
613,907	8,46
614,369	8,6
614,832	8,54
615,294	8,5
615,757	8,49
616,219	8,27
616,681	8,15
617,143	8,2
617,605	8,1
618,067	8,04
618,529	7,99
618,99	7,94
619,452	7,91
619,913	7,81
620,375	7,87
620,836	7,83
621,297	7,72
621,758	7,67
622,219	7,71
622,68	7,54
623,14	7,49
623,601	7,66
624,061	7,54
624,522	7,49
624,982	7,51
625,442	7,38
625,902	7,56
626,362	7,28
626,822	7,43
627,282	7,49
627,742	7,27
628,201	7,46
628,661	7,25
629,12	7,36
629,579	7,38
630,038	7,3
630,497	7,25
630,956	7,29
631,415	7,21
631,874	7,38
632,332	7,25
632,791	7,25
633,249	7,13
633,708	7,19
634,166	7,15
634,624	7,04
635,082	7,1
635,54	6,96
635,998	6,94
636,455	6,96
636,913	6,83
637,37	6,73
637,828	6,73
638,285	6,59
638,742	6,62
639,199	6,46
639,656	6,3
640,113	6,37
640,57	6,15
641,027	6,22
641,483	6,15
641,94	6,01
642,396	6,11
642,852	5,97
643,309	5,82
643,765	5,75
644,221	5,66
644,676	5,52
645,132	5,47
645,588	5,5
646,043	5,39
646,499	5,25
646,954	5,35
647,409	5,16
647,864	5,1
648,319	4,95
648,774	4,93
649,229	4,86
649,684	4,89
650,139	4,79
650,593	4,77
651,047	4,73
651,502	4,66
651,956	4,53
652,41	4,62
652,864	4,54
653,318	4,59
653,772	4,63
654,225	4,46
654,679	4,48
655,133	4,51
655,586	4,39
656,039	4,37
656,492	4,35
656,946	4,34
657,399	4,24
657,851	4,25
658,304	4,13
658,757	4,11
659,209	4,06
659,662	4,06
660,114	3,99
660,567	3,95
661,019	3,93
661,471	3,84
661,923	3,74
662,375	3,72
662,826	3,78
663,278	3,77
663,73	3,56
664,181	3,57
664,632	3,61
665,084	3,55
665,535	3,57
665,986	3,49
666,437	3,54
666,888	3,5
667,338	3,57
667,789	3,53
668,24	3,56
668,69	3,61
669,14	3,56
669,591	3,48
670,041	3,58
670,491	3,58
670,941	3,53
671,391	3,63
671,84	3,66
672,29	3,74
672,74	3,73
673,189	3,82
673,638	3,79
674,088	3,81
674,537	3,92
674,986	4,01
675,435	4,04
675,883	4,19
676,332	4,17
676,781	4,18
677,229	4,28
677,678	4,32
678,126	4,45
678,574	4,53
679,022	4,69
679,47	4,61
679,918	4,76
680,366	4,79
680,814	4,91
681,261	4,97
681,709	5
682,156	5,14
682,604	5,3
683,051	5,3
683,498	5,44
683,945	5,52
684,392	5,51
684,839	5,73
685,286	5,77
685,732	5,86
686,179	6,02
686,625	6,06
687,071	6,18
687,518	6,26
687,964	6,46
688,41	6,56
688,856	6,79
689,301	6,84
689,747	7,1
690,193	7,24
690,638	7,47
691,084	7,86
691,529	7,96
691,974	8,26
692,419	8,72
692,864	8,97
693,309	9,25
693,754	9,58
694,199	10,02
694,643	10,27
695,088	10,64
695,532	11,09
695,977	11,5
696,421	11,91
696,865	12,24
697,309	12,78
697,753	12,94
698,197	13,53
698,64	14,01
699,084	14,36
699,527	14,66
699,971	15,21
700,414	15,46
700,857	15,99
701,3	16,36
701,743	16,71
702,186	17,06
702,629	17,65
703,072	17,89
703,515	18,3
703,957	18,69
704,399	18,94
704,842	19,17
705,284	19,71
705,726	20,05
706,168	20,42
706,61	20,59
707,052	20,98
707,494	21,25
707,935	21,7
708,377	22,01
708,818	22,34
709,26	22,51
709,701	22,94
710,142	23,16
710,583	23,35
711,024	23,66
711,465	24,08
711,905	24,37
712,346	24,45
712,787	24,96
713,227	25,17
713,667	25,48
714,108	25,66
714,548	26,13
714,988	26,17
715,428	26,47
715,868	26,64
716,307	27,04
716,747	27,3
717,186	27,36
717,626	27,91
718,065	28,06
718,504	28,16
718,944	28,38
719,383	28,6
719,822	28,68
720,261	28,97
720,699	29,39
721,138	29,3
721,576	29,55
722,015	29,63
722,453	29,99
722,892	30,24
723,33	30,36
723,768	30,54
724,206	30,55
724,644	30,85
725,081	30,88
725,519	31,07
725,957	31,11
726,394	31,42
726,832	31,51
727,269	31,71
727,706	31,73
728,143	31,87
728,58	32,08
729,017	32,03
729,454	32,24
729,89	32,09
730,327	32,59
730,764	32,54
731,2	32,6
731,636	32,49
732,072	32,63
732,509	32,69
732,945	33,17
733,38	33,05
733,816	32,75
734,252	33,02
734,688	33,26
735,123	33,05
735,559	33,26
735,994	33,37
736,429	33,34
736,864	33,4
737,299	33,44
737,734	33,6
738,169	33,48
738,604	33,58
739,038	33,61
739,473	33,7
739,907	33,78
740,342	33,7
740,776	33,76
741,21	33,86
741,644	33,76
742,078	33,68
742,512	33,98
742,946	33,71
743,379	33,94
743,813	33,77
744,246	33,79
744,68	33,83
745,113	33,73
745,546	33,92
745,979	33,67
746,412	33,88
746,845	33,85
747,278	33,74
747,711	33,82
748,143	33,77
748,576	33,77
749,008	33,84
749,441	33,77
749,873	33,75
750,305	33,5
750,737	33,59
751,169	33,65
751,601	33,84
752,032	33,58
752,464	33,62
752,896	33,64
753,327	33,6
753,758	33,73
754,19	33,47
754,621	33,47
755,052	33,16
755,483	33,51
755,914	33,6
756,344	33,35
756,775	33,19
757,206	33,49
757,636	33,27
758,066	33,42
758,497	33,36
758,927	33,23
759,357	33,39
759,787	33,39
760,217	33,06
760,647	33,13
761,076	32,97
761,506	33,12
761,935	33,05
762,365	33,13
762,794	33,02
763,223	33,16
763,653	33,11
764,082	32,92
764,51	32,82
764,939	32,75
765,368	32,97
765,797	32,77
766,225	32,78
766,654	32,84
767,082	32,81
767,51	32,82
767,938	32,63
768,367	32,66
768,795	32,41
769,222	32,7
769,65	32,77
770,078	32,78
770,505	32,59
770,933	32,62
771,36	32,48
771,788	32,39
772,215	32,53
772,642	32,68
773,069	32,58
773,496	32,55
773,923	32,69
774,349	32,38
774,776	32,4
775,203	32,39
775,629	32,45
776,055	32,43
776,482	32,43
776,908	32,22
777,334	32,37
777,76	32,47
778,186	32,34
778,611	32,03
779,037	32,29
779,463	32,27
779,888	32,51
780,314	32,39
780,739	32,27
781,164	32,15
781,589	32,41
782,014	32,29
782,439	32,11
782,864	32,12
783,289	32,19
783,713	32,08
784,138	32,04
784,562	32,16
784,987	32,06
785,411	32,02
785,835	31,94
786,259	31,98
786,683	32,04
787,107	32,4
787,531	31,99
787,954	31,95
788,378	31,98
788,802	31,96
789,225	31,83
789,648	32,26
790,071	32,14
790,495	32,18
790,918	31,88
791,34	32,08
791,763	32,18
792,186	32,06
792,609	32,07
793,031	32,01
793,454	32,07
793,876	32,08
794,298	31,92
794,721	32
795,143	31,8
795,565	31,71
795,986	32,12
796,408	32,06
796,83	31,87
797,252	31,8
797,673	31,82
798,094	31,86
798,516	31,97
798,937	31,74
799,358	31,87
799,779	31,83
800,2	31,87
800,621	31,94
801,042	31,84
801,462	31,88
801,883	32,05
802,303	31,78
802,724	31,81
803,144	31,85
803,564	31,65
803,984	31,94
804,404	31,79
804,824	31,91
805,244	31,78
805,664	31,93
806,084	31,85
806,503	31,83
806,923	31,57
807,342	31,88
807,761	31,71
808,18	31,93
808,599	31,76
809,018	31,82
809,437	31,78
809,856	31,63
810,275	31,72
810,693	31,78
811,112	31,71
811,53	31,66
811,949	31,87
812,367	31,7
812,785	31,85
813,203	31,67
813,621	31,93
814,039	31,61
814,457	31,66
814,874	31,78
815,292	31,8
815,709	31,72
816,127	31,6
816,544	31,82
816,961	31,74
817,378	31,58
817,795	31,69
818,212	31,68
818,629	32
819,046	31,81
819,462	31,63
819,879	31,74
820,295	31,53
820,712	31,65
821,128	31,62
821,544	31,49
821,96	31,72
822,376	31,55
822,792	31,57
823,208	31,62
823,624	31,47
824,039	31,55
824,455	31,74
824,87	31,76
825,286	31,65
825,701	31,57
826,116	31,55
826,531	31,59
826,946	31,67
827,361	31,71
827,776	31,84
828,19	31,6
828,605	31,72
829,02	31,64
829,434	31,46
829,848	31,48
830,263	31,73
830,677	31,71
831,091	31,65
831,505	31,52
831,919	31,59
832,332	31,6
832,746	31,72
833,16	31,3
833,573	31,42
833,987	31,52
834,4	31,49
834,813	31,58
835,226	31,37
835,639	31,52
836,052	31,65
836,465	31,7
836,878	31,51
837,29	31,55
837,703	31,38
838,116	31,65
838,528	31,35
838,94	31,51
839,352	31,3
839,765	31,33
840,177	31,38
840,589	31,37
841	31,47
841,412	31,32
841,824	31,3
842,235	31,6
842,647	31,2
843,058	31,47
843,47	31,57
843,881	31,21
844,292	31,37
844,703	31,51
845,114	31,29
845,525	31,41
845,935	31,38
846,346	31,47
846,757	31,45
847,167	31,65
847,577	31,44
847,988	31,48
848,398	31,2
848,808	31,42
849,218	31,58
849,628	31,47
850,038	31,31
850,448	31,5
850,857	31,48
851,267	31,54
851,676	31,64
852,086	31,25
852,495	31,43
852,904	31,45
853,313	31,23
853,722	31,43
854,131	31,21
854,54	31,17
854,949	31,59
855,357	31,39
855,766	31,31
856,174	31,13
856,583	31,14
856,991	31,29
857,399	31,13
857,807	31,4
858,215	31,37
858,623	31,45
859,031	31,09
859,439	31,42
859,846	31,14
860,254	31,31
860,661	31,38
861,069	31,37
861,476	31,22
861,883	31,49
862,29	31,05
862,697	31,1
863,104	31,24
863,511	31,33
863,918	31,27
864,325	31,2
864,731	31,13
865,138	31,33
865,544	31,37
865,95	31,48
866,357	31,33
866,763	31,49
867,169	31,17
867,575	31,43
867,98	31,12
868,386	31,32
868,792	31,35
869,197	31,26
869,603	31,15
870,008	31,11
870,414	31,01
870,819	31,64
871,224	31,05
871,629	31,25
872,034	31,19
872,439	31,39
872,844	31,29
873,248	31,03
873,653	31,27
874,057	31,5
874,462	31,12
874,866	31,19
875,27	31,03
875,674	31,36
876,078	31,21
876,482	31,03
876,886	31,47
877,29	31,54
877,694	31,25
878,097	31,32
878,501	31,06
878,904	31,21
879,308	31,15
879,711	31,19
880,114	31,11
880,517	31,03
880,92	31,06
881,323	31,33
881,726	31,19
882,128	31,27
882,531	31,3
882,934	31,4
883,336	31,1
883,738	31,17
884,141	31,15
884,543	31,34
884,945	31,14
885,347	31,12
885,749	31,39
886,151	31,22
886,552	31,36
886,954	31,22
887,355	31,42
887,757	31,18
888,158	31,34
888,56	31,07
888,961	31,06
889,362	31,26
889,763	31,05
890,164	31,57
890,565	31,21
890,965	31,05
891,366	31,25
891,767	31,02
892,167	31,07
892,567	31,15
892,968	31,22
893,368	31,21
893,768	31,15
894,168	30,85
894,568	31,29
894,968	31,05
895,368	31,07
895,767	31,24
896,167	31,2
896,566	31,01
896,966	31,29
897,365	31,15
897,764	31,15
898,164	31,21
898,563	31,14
898,962	31,25
899,361	30,93
899,759	31,31
900,158	31,21
900,557	31,02
900,955	31,23
901,354	30,96
901,752	31,11
902,15	31,43
902,548	31,11
902,947	31,08
903,345	31,31
903,742	31,17
904,14	31,25
904,538	31,09
904,936	31,01
905,333	31,13
905,731	31,32
906,128	31,18
906,525	31,05
906,923	31,23
907,32	31,52
907,717	30,91
908,114	31,28
908,511	31,49
908,907	31,26
909,304	31,18
909,701	31,07
910,097	31,5
910,494	31,09
910,89	31,08
911,286	31,27
911,682	31,09
912,078	31,08
912,474	31,15
912,87	31,16
913,266	31,01
913,662	30,76
914,058	31,09
914,453	30,88
914,849	30,99
915,244	31,39
915,639	31,03
916,034	30,76
916,43	30,99
916,825	31,05
917,22	31,02
917,614	30,96
918,009	30,99
918,404	30,93
918,798	31,31
919,193	31,01
919,587	31,09
919,982	30,73
920,376	31,05
920,77	31,35
921,164	31,27
921,558	31,39
921,952	31,04
922,346	31,07
922,74	31,37
923,133	31,26
923,527	31,09
923,92	31,08
924,314	31,17
924,707	31,13
925,1	31,18
925,493	31,09
925,886	30,86
926,279	31,27
926,672	30,86
927,065	30,96
927,457	31,13
927,85	30,91
928,243	30,77
928,635	31,03
929,027	30,95
929,42	31,1
929,812	30,95
930,204	31,28
930,596	30,79
930,988	30,9
931,379	30,9
931,771	30,76
932,163	30,63
932,554	30,86
932,946	30,72
933,337	30,67
933,729	31,24
934,12	30,98
934,511	31,12
934,902	30,96
935,293	30,98
935,684	31,07
936,075	30,77
936,465	30,88
936,856	30,69
937,246	30,84
937,637	31,01
938,027	30,72
938,417	30,86
938,808	31,05
939,198	30,25
939,588	31,03
939,978	30,85
940,368	30,87
940,757	31,05
941,147	30,8
941,537	30,87
941,926	30,5
942,315	30,92
942,705	31,04
943,094	31,1
943,483	30,6
943,872	31,14
944,261	30,2
944,65	30,3
945,039	30,93
945,428	30,92
945,816	30,29
946,205	31,04
946,593	30,91
946,982	30,87
947,37	30,83
947,758	30,48
948,146	30,31
948,534	30,45
948,922	30,54
949,31	30,35
949,698	30,54
950,086	29,77
950,473	30,26
950,861	30,5
951,248	30,78
951,636	30,21
952,023	30,48
952,41	30,26
952,797	30,48
953,184	30,08
953,571	30,48
953,958	30,29
954,345	30,28
954,731	30,33
955,118	30,3
955,505	30,19
955,891	30,48
956,277	30,08
956,664	29,86
957,05	30,32
957,436	30,07
957,822	30,52
958,208	30,01
958,594	29,99
958,979	30,03
959,365	30,19
959,751	30
960,136	29,93
960,522	29,93
960,907	30,14
961,292	29,78
961,677	30,31
962,062	30,4
962,447	29,91
962,832	30,15
963,217	30,18
963,602	30,25
963,986	30,14
964,371	29,69
964,756	30,13
965,14	29,64
965,524	29,68
965,908	30,11
966,293	29,78
966,677	30
967,061	29,88
967,445	29,4
967,828	30,07
968,212	29,98
968,596	30,25
968,979	29,8
969,363	30,03
969,746	30,12
970,129	30,2
970,513	29,88
970,896	30,31
971,279	30,26
971,662	29,73
972,045	30,08
972,428	29,87
972,81	29,58
973,193	29,95
973,575	29,9
973,958	30,12
974,34	30,13
974,723	29,89
975,105	30,27
975,487	30,16
975,869	30,08
976,251	29,68
976,633	29,96
977,015	30,06
977,396	30,36
977,778	30,11
978,16	30,15
978,541	29,98
978,922	29,81
979,304	30,41
979,685	30,02
980,066	30,43
980,447	30,22
980,828	29,81
981,209	30,26
981,59	29,94
981,97	30,01
982,351	30,25
982,732	29,99
983,112	30,45
983,493	30,08
983,873	29,71
984,253	30,23
984,633	30,09
985,013	30,57
985,393	29,96
985,773	29,97
986,153	30,21
986,533	29,92
986,912	30,35
987,292	30,15
987,671	30,21
988,051	30,55
988,43	30,1
988,809	30,09
989,188	30,18
989,567	30,38
989,946	30,36
990,325	30,04
990,704	30,23
991,083	30,13
991,461	30,06
991,84	30,01
992,218	30,27
992,597	30,3
992,975	30,23
993,353	30,73
993,732	30,04
994,11	30,62
994,488	30,35
994,866	30,43
995,243	30,5
995,621	30,54
995,999	29,9
996,376	30,49
996,754	30,16
997,131	30,49
997,509	30,08
997,886	30,13
998,263	30,44
998,64	30,15
999,017	30,14
999,394	30,49
999,771	30,33
1000,148	30,54
1000,524	30,4
1000,901	30,29
1001,277	30,42
1001,654	30,16
1002,03	30,37
1002,406	30,3
1002,783	30,25
1003,159	30,47
1003,535	30,04
1003,911	30,26
1004,286	29,66
1004,662	30,06
1005,038	30,12
1005,414	30,36
1005,789	30,03
1006,164	30,12
1006,54	30,09
1006,915	30,13
1007,29	30,78
1007,665	30,28
1008,04	29,88
1008,415	30,2
1008,79	30,77
1009,165	30,96
1009,54	29,98
1009,914	30,32
1010,289	30,77
1010,663	30,29
1011,038	30,35
1011,412	30,52
1011,786	30,31
1012,16	30,12
1012,535	30,54
1012,909	30,86
1013,282	30,04
1013,656	30,51
1014,03	30,66
1014,404	30,67
1014,777	31,17
1015,151	30,5
1015,524	30,49
1015,897	31,4
1016,271	30,57
1016,644	30,4
1017,017	30,52
1017,39	30,31
1017,763	30,78
1018,136	30,66
1018,508	31,08
1018,881	30,4
1019,254	31,32
1019,626	30,48
1019,999	30,4
1020,371	30,7
1020,743	30,29
1021,116	31,03
1021,488	30,09
1021,86	30,68
1022,232	31,13
1022,604	30,31
1022,975	30,68
1023,347	31,49
1023,719	30,54
1024,09	30,15
1024,462	30,46
1024,833	30,41
1025,204	30,65
1025,576	30,66
1025,947	30,17
1026,318	31,14
1026,689	30,38
1027,06	31,03
1027,431	30,29
1027,801	30,6
1028,172	31,15
1028,543	30,55
1028,913	30,51
1029,284	30,43
1029,654	30,22
1030,024	30,21
1030,394	30,82
1030,764	30,91
1031,135	31,26
1031,504	30,82
1031,874	30,89
1032,244	30,51
1032,614	30,58
1032,983	30,61
1033,353	30,6
1033,722	30,69
1034,092	30,9
1034,461	30,6
1034,83	30,61
1035,2	30,5
1035,569	30,41
1035,938	30,51
1036,307	31,04
1036,675	30,63
1037,044	30,71
1037,413	30,22
1037,781	30,7
1038,15	30,98
1038,518	30,4
1038,887	31,2
1039,255	30,33
1039,623	30,22
1039,991	30,54
1040,359	30,86
1040,727	30,28
1041,095	30,96
1041,463	31,32
1041,831	30,99
1042,198	30,01
1042,566	30,28
1042,933	31,32
1043,301	31,41
1043,668	30,73
1044,035	30,56
1044,402	31,22
1044,77	31,29
1045,137	31,3
1045,503	30,89
1045,87	30,54
1046,237	30,47
1046,604	30,05
1046,97	31,27
1047,337	31
1047,703	30,61
1048,07	31,24
1048,436	31
1048,802	30,62
1049,168	30,72
1049,534	30,68
1049,9	30,36
1050,266	31,16
1050,632	31,81
1050,998	31,69
1051,364	30,98
1051,729	30,59
1052,095	31,01
1052,46	31,01
1052,825	30,82
1053,191	31,19
1053,556	30,81
1053,921	31,29
1054,286	30,7
1054,651	31,29
1055,016	31,39
1055,381	30,56
1055,745	30,79
1056,11	32,38
1056,475	30,85
1056,839	31,81
1057,203	31,32
1057,568	30,72
1057,932	30,63
1058,296	31,07
1058,66	31,39
1059,024	31,32
1059,388	31,28
1059,752	31,86
1060,116	31,65
1060,48	31,75
1060,843	31,3
1061,207	30,14
1061,57	30,67
1061,934	31,48
1062,297	31,46
1062,66	31,01
1063,023	31,1
1063,386	30,56
1063,749	29,96
1064,112	30,88
1064,475	30,81
1064,838	31,4
1065,201	30,7
1065,563	31,15
1065,926	31,15
1066,288	31,1
1066,651	30,35
1067,013	31,11
1067,375	31,5
1067,737	31,15
1068,099	31,98
1068,461	31,19
1068,823	31,13
1069,185	31,49
1069,547	30,23
1069,909	30,53
1070,27	31,12
1070,632	30,24
1070,993	30,58
1071,355	30,21
1071,716	31,47
1072,077	31,06
1072,438	31,56
1072,799	31,28
1073,16	30,86
1073,521	30,72
1073,882	30,58
1074,243	31,78
1074,603	31,39
1074,964	29,91
1075,325	31,24
1075,685	31,03
1076,045	30,47
1076,406	30,66
1076,766	31,98
1077,126	31,16
1077,486	31,45
1077,846	31,13
1078,206	31,35
1078,566	31,04
1078,925	30,66
1079,285	30,91
1079,645	31,22
1080,004	30,31
1080,364	30,97
1080,723	30,88
1081,082	31,89
1081,442	30,89
1081,801	31,71
1082,16	31,15
1082,519	31,99
1082,878	31,47
1083,237	30,07
1083,595	32,58
1083,954	32,16
1084,313	31,13
1084,671	31,86
1085,03	30,88
1085,388	31,21
1085,746	30,34
1086,104	31,12
1086,463	31,33
1086,821	31,79
1087,179	32,4
1087,537	33,38
1087,894	30,08
1088,252	31,17
1088,61	31,75
1088,967	31,53
1089,325	30,35
1089,682	31,25
1090,04	30,98
1090,397	31,12
1090,754	31,11
1091,111	31,96
1091,469	30,59
1091,826	30,88
1092,182	31,18
1092,539	31,17
1092,896	31,3
1093,253	30,33
1093,609	32,18
1093,966	30,1
1094,322	31,17
1094,679	30,85
1095,035	30,81
1095,391	32
1095,748	31,64
1096,104	31,68
1096,46	30,91
1096,816	30,63
1097,171	30,81
1097,527	30,59
1097,883	30,77
1098,239	31,56
1098,594	29,58
1098,95	31,96
1099,305	32,07
1099,66	31,88
1100,016	31,29
1100,371	31,57
1100,726	30,77
1101,081	30,4
1101,436	30,89
1101,791	31,37
1102,146	29,14
1102,5	32,17
1102,855	31,82
1103,21	31,39
1103,564	32,69
1103,918	31,87
1104,273	30,21
1104,627	30,26
1104,981	31,32
1105,335	31,84
1105,69	31,53
1106,043	31,59
1106,397	31,14
1106,751	30,94
1107,105	33,26
1107,459	30,22
1107,812	29,94
1108,166	31,27
1108,519	31,43
1108,873	32,2
1109,226	30,07
1109,579	32,77
1109,932	32,51
1110,285	31,05
1110,638	29,7
1110,991	31,97
1111,344	31,66
1111,697	31,3
1112,05	33,75
1112,402	33,26
1112,755	34,53
1113,107	31,83
1113,46	30,67
1113,812	31,87
1114,164	32,46
1114,517	29,77
1114,869	42,74
1115,221	38,71
1115,573	44,34
1115,924	34,31
