Data from F_5__Relative__0__00131.txt Node

Date: Mon Jan 29 18:23:10 CET 2024
User: diatiterra
Spectrometer: HDX00911
Trigger mode: 0
Integration Time (sec): 6,000000E-3
Scans to average: 2
Nonlinearity correction enabled: false
Boxcar width: 0
Storing dark spectrum: false
XAxis mode: Wavelengths
Number of Pixels in Spectrum: 2068
>>>>>Begin Spectral Data<<<<<
194,468	67,65
195,025	47,79
195,581	76,6
196,138	58,46
196,694	61,49
197,251	60,89
197,807	58,4
198,363	53,45
198,919	52,31
199,474	55
200,03	43,38
200,586	43,2
201,141	54,68
201,696	47,4
202,251	54,98
202,806	50,38
203,361	59,3
203,916	57,19
204,471	47,18
205,025	43,57
205,58	52,69
206,134	51,85
206,688	51,45
207,242	50,34
207,796	50,17
208,35	46,57
208,904	53,22
209,457	53,43
210,011	53,5
210,564	51,74
211,117	50,35
211,67	50
212,223	48,63
212,776	59,93
213,329	45,7
213,881	44,29
214,434	56,55
214,986	47,14
215,538	53,11
216,09	45,9
216,642	52,96
217,194	45,36
217,746	48,48
218,297	47,32
218,849	46,73
219,4	53,85
219,951	49,45
220,502	52,61
221,053	43,89
221,604	55,7
222,155	53,09
222,705	53,18
223,256	52,88
223,806	45,58
224,356	56,52
224,906	50
225,456	54,48
226,006	38,26
226,556	53,28
227,106	50,35
227,655	48,78
228,204	49,34
228,754	44,48
229,303	51,53
229,852	49,35
230,401	50,18
230,949	63,04
231,498	54,85
232,047	50,84
232,595	56,38
233,143	54,92
233,691	54,4
234,239	41,79
234,787	50
235,335	55,1
235,883	48,75
236,43	60
236,978	51,27
237,525	50,37
238,072	53,14
238,619	42,81
239,166	51,52
239,713	53,9
240,26	58,8
240,806	50
241,353	54,77
241,899	46,93
242,445	52,45
242,991	56,79
243,537	55,78
244,083	51,27
244,629	50
245,174	57,09
245,72	48,83
246,265	55,48
246,81	62,04
247,355	48,9
247,9	48,79
248,445	54,83
248,99	55,36
249,534	53,48
250,079	55,6
250,623	45,76
251,168	52,35
251,712	54,96
252,256	56,15
252,8	64,58
253,343	54,46
253,887	53,06
254,43	60,97
254,974	57,69
255,517	49,66
256,06	49,66
256,603	66,04
257,146	45,79
257,689	52,85
258,232	51,72
258,774	52,03
259,317	52,38
259,859	49,45
260,401	54,17
260,943	44,78
261,485	58,87
262,027	50,69
262,569	51,88
263,11	66,43
263,652	48,9
264,193	52,14
264,734	57,54
265,275	57,03
265,816	53,6
266,357	47,48
266,898	51,19
267,438	55,69
267,979	55,27
268,519	54,15
269,059	55,32
269,6	50,88
270,14	52,81
270,68	57,85
271,219	45,26
271,759	55,6
272,298	50,91
272,838	53,88
273,377	52,22
273,916	50,9
274,455	55,17
274,994	57,19
275,533	51,88
276,072	54,51
276,61	57
277,149	48,55
277,687	49,82
278,225	47,6
278,763	56,16
279,301	56,23
279,839	51,45
280,377	54,74
280,914	50,92
281,452	63,41
281,989	51,88
282,526	51,97
283,064	54,86
283,601	56,82
284,137	48,91
284,674	56,98
285,211	42,09
285,747	60,68
286,284	46,67
286,82	56,74
287,356	52,58
287,892	48,77
288,428	53,22
288,964	51,99
289,5	56,8
290,035	53,6
290,571	52,61
291,106	48
291,641	48,28
292,176	57,14
292,711	50,69
293,246	48,38
293,781	56,13
294,315	49,26
294,85	50
295,384	59,26
295,918	51,92
296,453	53,71
296,987	52,07
297,52	52,05
298,054	54,41
298,588	60,63
299,121	52,38
299,655	52,98
300,188	50,57
300,721	52,41
301,254	50,53
301,787	52,03
302,32	53,79
302,853	51,92
303,385	51,65
303,918	51,23
304,45	50,97
304,982	48,21
305,514	54,61
306,046	46,32
306,578	57,86
307,11	49,07
307,641	47,64
308,173	49,44
308,704	54,02
309,236	58,43
309,767	50,83
310,298	48,08
310,829	57,79
311,359	50,18
311,89	48,75
312,421	53,62
312,951	51,27
313,481	54,62
314,012	53,11
314,542	50
315,072	52
315,601	49,11
316,131	47,45
316,661	57,5
317,19	54,09
317,72	52,38
318,249	46,28
318,778	52,09
319,307	41,89
319,836	56,71
320,365	48,21
320,893	47,87
321,422	55,22
321,95	48,89
322,479	52,6
323,007	48,91
323,535	53,21
324,063	50
324,591	43,67
325,118	47,55
325,646	54,62
326,173	64,29
326,701	52
327,228	48,56
327,755	47,31
328,282	63,02
328,809	56,3
329,336	51,21
329,862	55,77
330,389	46,42
330,915	52,13
331,441	46,1
331,968	45,36
332,494	44,48
333,02	48,54
333,545	45,85
334,071	52
334,597	47,3
335,122	43,14
335,648	53,48
336,173	49,17
336,698	43,49
337,223	51,19
337,748	43,51
338,272	37,29
338,797	55,66
339,322	41,53
339,846	42,97
340,37	35,53
340,894	54,45
341,419	48,66
341,942	43,29
342,466	42,66
342,99	40,92
343,514	43,83
344,037	43,93
344,56	40,75
345,084	41,01
345,607	41,03
346,13	40,62
346,653	47,8
347,175	47,74
347,698	39,29
348,221	43,6
348,743	44,9
349,265	45,54
349,787	38,86
350,309	40,77
350,831	41,79
351,353	51,06
351,875	38,48
352,397	41,32
352,918	41,81
353,439	43,63
353,961	47,04
354,482	43,54
355,003	43,16
355,524	43,88
356,044	41,95
356,565	45,14
357,086	40,46
357,606	38,07
358,126	37,71
358,646	39,3
359,167	36,12
359,687	45,75
360,206	39,28
360,726	36,4
361,246	43,86
361,765	37,06
362,285	43,84
362,804	35,33
363,323	35,09
363,842	37,38
364,361	38,1
364,88	42,19
365,398	36,64
365,917	35,73
366,435	41,63
366,954	36,47
367,472	43,71
367,99	36,76
368,508	35,35
369,026	34,88
369,544	35,64
370,061	36,03
370,579	34,52
371,096	34,49
371,613	37,43
372,131	35,21
372,648	35,56
373,165	37,44
373,681	37,3
374,198	33,28
374,715	36,28
375,231	32,59
375,747	36,86
376,264	36,26
376,78	37,8
377,296	37,34
377,812	33,83
378,327	31,56
378,843	39
379,359	33,19
379,874	33,88
380,389	34,66
380,905	34,88
381,42	34,99
381,935	35,47
382,449	34,18
382,964	32,89
383,479	34,61
383,993	32,93
384,508	33,14
385,022	31,74
385,536	31,1
386,05	29,47
386,564	30,95
387,078	28,27
387,592	31,25
388,105	30,09
388,619	30,58
389,132	30,7
389,645	30,82
390,158	28,17
390,671	32
391,184	28,3
391,697	29,13
392,21	28,57
392,722	26,95
393,235	28,72
393,747	30,03
394,259	27,38
394,771	26,32
395,283	26,27
395,795	26,4
396,307	24,71
396,818	23,15
397,33	23,02
397,841	23,07
398,353	25,13
398,864	24,21
399,375	21,55
399,886	23,15
400,397	21,42
400,907	23,26
401,418	20,97
401,928	20,8
402,439	21,4
402,949	20,88
403,459	20,85
403,969	19,54
404,479	19,12
404,989	18,15
405,498	16,72
406,008	18,06
406,517	17,53
407,027	16,9
407,536	16,5
408,045	15,29
408,554	13,83
409,063	14,48
409,572	14,86
410,08	14,59
410,589	13,58
411,097	12,51
411,606	13,2
412,114	12,29
412,622	12
413,13	12,05
413,638	11,4
414,145	10,63
414,653	11,08
415,16	10,89
415,668	10,06
416,175	10,28
416,682	10,4
417,189	9,49
417,696	9,42
418,203	9,63
418,71	9,4
419,216	8,77
419,723	9,56
420,229	8,59
420,735	8,56
421,242	9,51
421,748	8,8
422,254	8,49
422,759	8,24
423,265	7,88
423,771	7,84
424,276	8,2
424,781	8,29
425,287	7,61
425,792	7,98
426,297	8,33
426,802	7,87
427,306	7,76
427,811	7,55
428,316	8,15
428,82	7,39
429,324	7,28
429,829	7,72
430,333	7,31
430,837	7,36
431,34	7,38
431,844	7,01
432,348	6,86
432,851	7,03
433,355	6,91
433,858	6,44
434,361	7,23
434,864	7,13
435,367	6,78
435,87	7,18
436,373	6,99
436,876	6,73
437,378	6,6
437,88	6,7
438,383	7,1
438,885	6,73
439,387	6,68
439,889	6,72
440,391	6,97
440,892	6,59
441,394	7,16
441,896	6,87
442,397	6,55
442,898	6,54
443,399	6,77
443,9	6,65
444,401	6,96
444,902	6,68
445,403	6,87
445,903	7,41
446,404	7,06
446,904	6,96
447,405	6,98
447,905	7,03
448,405	7,3
448,905	7,49
449,404	7,22
449,904	7,21
450,404	7,36
450,903	7,73
451,403	7,35
451,902	7,53
452,401	7,87
452,9	7,86
453,399	7,73
453,898	7,9
454,396	7,76
454,895	7,48
455,393	7,98
455,892	8
456,39	8,05
456,888	7,9
457,386	7,84
457,884	8,18
458,382	7,63
458,879	8,21
459,377	7,72
459,874	7,96
460,372	7,67
460,869	8,21
461,366	8,11
461,863	8,36
462,36	7,95
462,857	8,31
463,353	8,26
463,85	8,14
464,346	7,73
464,843	7,97
465,339	7,77
465,835	7,69
466,331	8,04
466,827	8,03
467,323	7,6
467,818	7,86
468,314	8,02
468,809	7,41
469,305	8,17
469,8	8,1
470,295	7,88
470,79	8,02
471,285	8,17
471,78	7,9
472,274	8,12
472,769	7,87
473,263	8,13
473,758	8,41
474,252	8,08
474,746	8,04
475,24	8,02
475,734	8,22
476,228	7,99
476,721	8,12
477,215	8,12
477,708	8,16
478,202	8,47
478,695	8,22
479,188	8,02
479,681	8,26
480,174	8,14
480,667	8,43
481,159	8,31
481,652	8,45
482,144	8,27
482,637	8,1
483,129	8,44
483,621	8,37
484,113	8,62
484,605	8,41
485,097	8,78
485,588	8,53
486,08	8,92
486,571	8,52
487,063	8,87
487,554	8,7
488,045	8,9
488,536	8,86
489,027	8,59
489,518	8,97
490,008	9,21
490,499	9,07
490,989	9,45
491,48	9,43
491,97	9,33
492,46	9,3
492,95	9,62
493,44	9,68
493,93	9,77
494,419	10,06
494,909	10,01
495,398	10,04
495,888	10,2
496,377	10,43
496,866	10,44
497,355	10,5
497,844	10,46
498,333	10,92
498,821	10,89
499,31	11,25
499,798	11,33
500,287	11,57
500,775	11,36
501,263	11,86
501,751	11,84
502,239	12,19
502,727	12,27
503,215	12,63
503,702	12,88
504,19	13,39
504,677	13,48
505,164	13,53
505,651	14,06
506,139	14,45
506,625	14,45
507,112	14,89
507,599	15,53
508,086	15,12
508,572	15,49
509,058	15,96
509,545	16,3
510,031	16,52
510,517	16,74
511,003	17,32
511,489	17,64
511,974	17,69
512,46	18,3
512,946	18,57
513,431	18,9
513,916	19,56
514,401	19,38
514,887	19,96
515,371	20,32
515,856	20,51
516,341	21,65
516,826	22,18
517,31	22,04
517,795	22,62
518,279	22,5
518,763	23,42
519,247	23,55
519,731	24,59
520,215	24,57
520,699	25,21
521,182	25,13
521,666	25,77
522,149	25,77
522,633	26,74
523,116	26,93
523,599	27,37
524,082	27,56
524,565	28,01
525,048	27,85
525,53	28,79
526,013	29
526,495	29,12
526,978	29,51
527,46	30,04
527,942	30,56
528,424	30,3
528,906	30,7
529,388	31,16
529,87	31,08
530,351	31,22
530,833	32,18
531,314	31,88
531,795	32,2
532,277	31,69
532,758	32,53
533,238	32,42
533,719	33
534,2	33,32
534,681	32,81
535,161	33,47
535,642	33,55
536,122	33,26
536,602	33,37
537,082	33,52
537,562	34,22
538,042	33,71
538,522	33,86
539,001	33,61
539,481	33,88
539,96	33,79
540,44	33,86
540,919	34,22
541,398	34,26
541,877	33,88
542,356	34,12
542,835	34,44
543,313	34,19
543,792	34,27
544,27	34,52
544,749	34,81
545,227	34,6
545,705	34,73
546,183	34,42
546,661	34,9
547,139	34,85
547,616	34,99
548,094	35,14
548,571	34,68
549,049	35,16
549,526	35,13
550,003	35,12
550,48	35,07
550,957	35,08
551,434	35,1
551,911	35,12
552,387	34,92
552,864	35,26
553,34	35,24
553,817	35,14
554,293	35,5
554,769	35
555,245	34,88
555,721	34,95
556,197	35,66
556,672	35,09
557,148	34,59
557,623	34,92
558,099	34,65
558,574	35,06
559,049	35,6
559,524	34,98
559,999	35
560,474	34,26
560,948	34,76
561,423	34,63
561,897	34,65
562,372	34,5
562,846	34,62
563,32	34,25
563,794	34,17
564,268	34,05
564,742	33,66
565,216	33,68
565,69	33,43
566,163	33,33
566,636	33,28
567,11	33,1
567,583	32,6
568,056	32,8
568,529	32,55
569,002	32,43
569,475	32,15
569,947	31,89
570,42	31,56
570,892	31,5
571,365	31,64
571,837	31,27
572,309	31,41
572,781	30,77
573,253	30,47
573,725	30,22
574,197	30,16
574,668	29,73
575,14	29,82
575,611	29,15
576,082	29,32
576,554	29,27
577,025	29,13
577,496	29,01
577,967	28,36
578,437	28,66
578,908	28,5
579,379	27,83
579,849	28,06
580,319	27,73
580,79	27,88
581,26	27,68
581,73	27,65
582,2	27,4
582,669	27,47
583,139	26,9
583,609	26,77
584,078	26,87
584,548	26,31
585,017	26,38
585,486	26,04
585,955	26,46
586,424	26,08
586,893	26,01
587,362	25,66
587,83	25,78
588,299	25,81
588,767	25,72
589,236	25,55
589,704	25,47
590,172	25,81
590,64	25,19
591,108	24,99
591,576	25,17
592,043	24,93
592,511	25,01
592,978	24,9
593,446	24,78
593,913	24,5
594,38	24,61
594,847	24,74
595,314	24,48
595,781	24,77
596,248	24,54
596,715	24,33
597,181	24,18
597,647	24,36
598,114	24,11
598,58	24,05
599,046	24,05
599,512	24,27
599,978	24,06
600,444	23,92
600,91	23,91
601,375	23,96
601,841	23,76
602,306	24,01
602,771	23,77
603,236	23,8
603,702	23,6
604,167	23,25
604,631	23,32
605,096	23,43
605,561	23,24
606,025	23,3
606,49	23,02
606,954	22,97
607,418	22,93
607,882	22,87
608,347	22,76
608,81	22,71
609,274	22,5
609,738	22,56
610,202	22,4
610,665	22,25
611,128	22,11
611,592	21,94
612,055	21,78
612,518	21,71
612,981	21,71
613,444	21,27
613,907	21,36
614,369	21,03
614,832	21,13
615,294	21
615,757	20,69
616,219	20,6
616,681	20,6
617,143	20,47
617,605	20,25
618,067	20,21
618,529	20,08
618,99	20,17
619,452	20,12
619,913	19,81
620,375	19,86
620,836	19,62
621,297	19,78
621,758	19,52
622,219	19,71
622,68	19,63
623,14	19,31
623,601	19,41
624,061	19,53
624,522	19,31
624,982	19,27
625,442	19,01
625,902	19,11
626,362	19,07
626,822	18,79
627,282	19
627,742	19,09
628,201	19,13
628,661	18,9
629,12	19
629,579	18,86
630,038	18,72
630,497	18,75
630,956	18,74
631,415	18,6
631,874	18,58
632,332	18,81
632,791	18,6
633,249	18,43
633,708	18,46
634,166	18,21
634,624	18,31
635,082	18,1
635,54	18,06
635,998	18,09
636,455	18,09
636,913	17,85
637,37	17,36
637,828	17,48
638,285	17,38
638,742	17,28
639,199	17
639,656	16,82
640,113	16,62
640,57	16,58
641,027	16,23
641,483	16,38
641,94	15,85
642,396	15,89
642,852	15,5
643,309	15,53
643,765	15
644,221	14,94
644,676	14,98
645,132	14,61
645,588	14,57
646,043	14,44
646,499	14,1
646,954	14,1
647,409	13,72
647,864	13,69
648,319	13,53
648,774	13,42
649,229	13,27
649,684	13,18
650,139	13,02
650,593	12,93
651,047	12,89
651,502	12,77
651,956	12,78
652,41	12,58
652,864	12,44
653,318	12,5
653,772	12,39
654,225	12,27
654,679	12,3
655,133	12,37
655,586	12,03
656,039	12,09
656,492	11,82
656,946	11,62
657,399	11,74
657,851	11,7
658,304	11,59
658,757	11,36
659,209	11,35
659,662	10,99
660,114	10,84
660,567	10,77
661,019	10,56
661,471	10,44
661,923	10,3
662,375	10,2
662,826	10,04
663,278	9,83
663,73	9,79
664,181	9,6
664,632	9,53
665,084	9,44
665,535	9,39
665,986	9,17
666,437	9,14
666,888	9,01
667,338	8,96
667,789	8,92
668,24	8,78
668,69	8,78
669,14	8,77
669,591	8,7
670,041	8,73
670,491	8,64
670,941	8,77
671,391	8,68
671,84	8,68
672,29	8,58
672,74	8,66
673,189	8,85
673,638	8,83
674,088	8,85
674,537	8,81
674,986	8,91
675,435	8,98
675,883	9,08
676,332	9,12
676,781	9,1
677,229	9,29
677,678	9,49
678,126	9,52
678,574	9,55
679,022	9,72
679,47	9,89
679,918	9,9
680,366	10,07
680,814	10,22
681,261	10,36
681,709	10,47
682,156	10,66
682,604	11,04
683,051	11,1
683,498	11,12
683,945	11,42
684,392	11,76
684,839	12,08
685,286	12,19
685,732	12,62
686,179	12,87
686,625	13,01
687,071	13,53
687,518	13,94
687,964	14,42
688,41	14,82
688,856	15,24
689,301	15,66
689,747	16,17
690,193	16,7
690,638	17,27
691,084	17,84
691,529	18,49
691,974	19,27
692,419	19,73
692,864	20,56
693,309	21,24
693,754	21,91
694,199	22,51
694,643	23,15
695,088	23,92
695,532	24,62
695,977	25,51
696,421	25,96
696,865	26,86
697,309	27,58
697,753	28,35
698,197	28,87
698,64	29,79
699,084	30,04
699,527	30,85
699,971	31,58
700,414	32,22
700,857	32,74
701,3	33,15
701,743	33,81
702,186	34,35
702,629	35,08
703,072	35,61
703,515	36,23
703,957	36,64
704,399	37,19
704,842	37,46
705,284	38,06
705,726	38,52
706,168	39,09
706,61	39,45
707,052	40,25
707,494	40,52
707,935	40,94
708,377	41,42
708,818	41,79
709,26	41,61
709,701	42,52
710,142	42,57
710,583	43,18
711,024	43,38
711,465	43,69
711,905	44,25
712,346	44,32
712,787	44,68
713,227	45,17
713,667	45,74
714,108	45,61
714,548	46,21
714,988	46,35
715,428	46,79
715,868	46,99
716,307	47,43
716,747	47,76
717,186	47,92
717,626	48,28
718,065	48,17
718,504	48,64
718,944	48,83
719,383	49,1
719,822	49,05
720,261	49,82
720,699	49,85
721,138	50,01
721,576	50,27
722,015	50,5
722,453	50,3
722,892	51,08
723,33	50,97
723,768	51,17
724,206	51,48
724,644	51,81
725,081	51,67
725,519	51,81
725,957	51,94
726,394	52,24
726,832	52,23
727,269	52,17
727,706	52,51
728,143	52,84
728,58	52,86
729,017	52,9
729,454	52,97
729,89	52,89
730,327	53,17
730,764	53,35
731,2	53,44
731,636	53,19
732,072	53,51
732,509	53,46
732,945	53,93
733,38	53,86
733,816	54
734,252	53,85
734,688	54,03
735,123	53,82
735,559	53,67
735,994	54,22
736,429	54,07
736,864	54,18
737,299	54,22
737,734	54,36
738,169	54,48
738,604	54,31
739,038	54,28
739,473	54,48
739,907	54,31
740,342	54,12
740,776	54,2
741,21	54,07
741,644	54,39
742,078	54,24
742,512	54,57
742,946	54,19
743,379	54,25
743,813	54,25
744,246	54,65
744,68	54,55
745,113	54,38
745,546	54,34
745,979	54,26
746,412	54,31
746,845	54,25
747,278	54,15
747,711	54,46
748,143	54,35
748,576	54,17
749,008	54,05
749,441	54,16
749,873	53,84
750,305	54,08
750,737	53,86
751,169	53,52
751,601	53,86
752,032	53,72
752,464	53,62
752,896	53,73
753,327	53,86
753,758	53,91
754,19	53,8
754,621	53,61
755,052	53,47
755,483	53,56
755,914	53,54
756,344	53,8
756,775	53,49
757,206	53,57
757,636	53,46
758,066	53,28
758,497	53,49
758,927	53,26
759,357	53,33
759,787	53,13
760,217	53,07
760,647	52,9
761,076	53,45
761,506	53,2
761,935	53,15
762,365	53,01
762,794	52,74
763,223	53,14
763,653	53,26
764,082	52,78
764,51	52,95
764,939	52,78
765,368	53,02
765,797	52,76
766,225	52,81
766,654	52,73
767,082	52,94
767,51	52,75
767,938	52,48
768,367	52,36
768,795	51,96
769,222	52,57
769,65	52,44
770,078	52,44
770,505	52,41
770,933	52,44
771,36	52,11
771,788	52,68
772,215	52,31
772,642	52,44
773,069	52,37
773,496	52,36
773,923	52,5
774,349	52,32
774,776	52,16
775,203	51,94
775,629	52,16
776,055	52,38
776,482	52,19
776,908	52,25
777,334	51,97
777,76	52,17
778,186	52,03
778,611	52,17
779,037	52,27
779,463	51,98
779,888	52,27
780,314	52,13
780,739	52,06
781,164	51,91
781,589	52,11
782,014	52,07
782,439	51,82
782,864	52,01
783,289	51,84
783,713	51,83
784,138	52,16
784,562	51,97
784,987	51,66
785,411	51,32
785,835	52,03
786,259	51,46
786,683	51,66
787,107	51,87
787,531	51,28
787,954	51,82
788,378	51,69
788,802	51,44
789,225	51,52
789,648	51,77
790,071	51,63
790,495	51,56
790,918	51,37
791,34	51,66
791,763	51,79
792,186	51,48
792,609	51,75
793,031	51,85
793,454	51,64
793,876	51,56
794,298	51,58
794,721	51,46
795,143	51,81
795,565	51,4
795,986	51,67
796,408	51,53
796,83	51,49
797,252	51,58
797,673	51,58
798,094	51,91
798,516	51,37
798,937	51,28
799,358	51,39
799,779	51,49
800,2	51,43
800,621	51,31
801,042	51,67
801,462	51,66
801,883	51,62
802,303	51,51
802,724	51,17
803,144	51,75
803,564	51,36
803,984	51,18
804,404	51,24
804,824	51,35
805,244	51,49
805,664	51,5
806,084	51,35
806,503	51,31
806,923	51,4
807,342	51,65
807,761	51,01
808,18	51,35
808,599	51,24
809,018	51,44
809,437	51,12
809,856	51,17
810,275	51,43
810,693	51,34
811,112	51,42
811,53	51,33
811,949	51,19
812,367	51,27
812,785	51,37
813,203	51,27
813,621	51,13
814,039	51,18
814,457	51,19
814,874	51,16
815,292	51,48
815,709	51,66
816,127	51,01
816,544	51,15
816,961	51,33
817,378	51,14
817,795	51,37
818,212	51,28
818,629	51,4
819,046	51,26
819,462	51,19
819,879	51,34
820,295	51,03
820,712	51,46
821,128	51,21
821,544	51,02
821,96	51,35
822,376	51,22
822,792	51,18
823,208	51,07
823,624	51,07
824,039	51,23
824,455	51,31
824,87	51,23
825,286	51,33
825,701	51,46
826,116	51,32
826,531	50,92
826,946	51,06
827,361	51,1
827,776	51,2
828,19	51,05
828,605	50,78
829,02	51,06
829,434	50,82
829,848	50,97
830,263	50,96
830,677	51,27
831,091	51,36
831,505	51,15
831,919	51,23
832,332	50,85
832,746	51,27
833,16	51,08
833,573	50,93
833,987	51,04
834,4	50,97
834,813	50,79
835,226	51,13
835,639	51,01
836,052	51,17
836,465	50,77
836,878	50,99
837,29	50,79
837,703	50,8
838,116	50,88
838,528	51
838,94	50,86
839,352	50,77
839,765	50,84
840,177	50,77
840,589	50,94
841	50,93
841,412	50,73
841,824	50,94
842,235	51,11
842,647	51,02
843,058	50,89
843,47	50,94
843,881	50,74
844,292	50,73
844,703	51,11
845,114	51,05
845,525	50,92
845,935	51,09
846,346	50,4
846,757	50,96
847,167	50,96
847,577	50,7
847,988	51,41
848,398	51,27
848,808	50,98
849,218	51,11
849,628	51,1
850,038	50,96
850,448	51,04
850,857	50,72
851,267	50,95
851,676	51,21
852,086	51,25
852,495	50,8
852,904	50,74
853,313	50,87
853,722	50,67
854,131	50,83
854,54	50,6
854,949	51
855,357	50,26
855,766	50,86
856,174	50,43
856,583	50,72
856,991	50,62
857,399	50,94
857,807	50,67
858,215	50,93
858,623	50,58
859,031	50,87
859,439	50,73
859,846	50,68
860,254	51,11
860,661	51,14
861,069	50,67
861,476	50,75
861,883	50,78
862,29	50,47
862,697	50,85
863,104	50,63
863,511	50,75
863,918	50,8
864,325	50,64
864,731	50,68
865,138	50,73
865,544	51,09
865,95	50,72
866,357	50,73
866,763	50,65
867,169	50,63
867,575	50,64
867,98	50,63
868,386	50,67
868,792	51,25
869,197	50,68
869,603	50,4
870,008	50,59
870,414	50,8
870,819	50,99
871,224	50,68
871,629	50,67
872,034	50,67
872,439	50,46
872,844	50,68
873,248	50,38
873,653	50,61
874,057	51,1
874,462	50,73
874,866	50,91
875,27	50,59
875,674	51,27
876,078	50,7
876,482	51,04
876,886	50,49
877,29	50,9
877,694	50,9
878,097	51,03
878,501	50,57
878,904	50,7
879,308	50,78
879,711	50,7
880,114	51
880,517	50,93
880,92	50,54
881,323	50,82
881,726	50,7
882,128	50,67
882,531	50,86
882,934	50,7
883,336	50,46
883,738	50,61
884,141	50,38
884,543	50,41
884,945	50,72
885,347	50,64
885,749	50,81
886,151	50,68
886,552	50,89
886,954	50,68
887,355	50,84
887,757	50,79
888,158	50,6
888,56	50,88
888,961	50,35
889,362	50,74
889,763	50,68
890,164	50,58
890,565	50,7
890,965	50,64
891,366	50,21
891,767	50,72
892,167	50,82
892,567	50,68
892,968	50,61
893,368	50,64
893,768	50,87
894,168	50,32
894,568	51,01
894,968	50,51
895,368	50,66
895,767	50,61
896,167	50,42
896,566	50,62
896,966	50,69
897,365	51,27
897,764	50,54
898,164	50,61
898,563	50,7
898,962	50,6
899,361	50,72
899,759	50,53
900,158	50,96
900,557	50,67
900,955	50,45
901,354	50,8
901,752	50,77
902,15	51,1
902,548	50,67
902,947	50,81
903,345	50,71
903,742	50,93
904,14	50,92
904,538	50,65
904,936	50,73
905,333	50,66
905,731	50,8
906,128	50,54
906,525	50,75
906,923	50,76
907,32	50,92
907,717	50,74
908,114	50,96
908,511	50,59
908,907	50,75
909,304	50,82
909,701	50,79
910,097	51
910,494	50,7
910,89	51,08
911,286	50,87
911,682	50,79
912,078	50,57
912,474	50,66
912,87	50,68
913,266	51,05
913,662	50,22
914,058	50,25
914,453	50,86
914,849	50,76
915,244	50,51
915,639	50,63
916,034	50,75
916,43	50,3
916,825	50,31
917,22	50,54
917,614	51,03
918,009	50,8
918,404	50,8
918,798	50,56
919,193	50,57
919,587	50,62
919,982	50,35
920,376	50,79
920,77	50,71
921,164	51,25
921,558	50,49
921,952	50,71
922,346	50,38
922,74	50,69
923,133	50,83
923,527	50,61
923,92	50,55
924,314	51,02
924,707	50,72
925,1	50,26
925,493	51,03
925,886	50,45
926,279	50,75
926,672	50,33
927,065	50,59
927,457	50,56
927,85	50,74
928,243	50,51
928,635	50,56
929,027	50,17
929,42	50,71
929,812	50,56
930,204	50,24
930,596	50,47
930,988	50,21
931,379	50,33
931,771	50,2
932,163	50,39
932,554	50,44
932,946	50,39
933,337	50,63
933,729	50,79
934,12	50,12
934,511	50,53
934,902	50,13
935,293	50,76
935,684	50,35
936,075	50,24
936,465	50,6
936,856	50,36
937,246	49,76
937,637	50,03
938,027	49,63
938,417	50,4
938,808	50,84
939,198	50,17
939,588	50,32
939,978	50,56
940,368	49,81
940,757	50,15
941,147	50,36
941,537	49,7
941,926	50,57
942,315	50,45
942,705	50,22
943,094	49,76
943,483	49,34
943,872	50,3
944,261	49,44
944,65	49,58
945,039	50,37
945,428	50,05
945,816	49,86
946,205	50,3
946,593	50,18
946,982	50,47
947,37	49,81
947,758	50,29
948,146	49,32
948,534	49,91
948,922	49,57
949,31	50,12
949,698	50,36
950,086	48,99
950,473	49,87
950,861	49,01
951,248	49,34
951,636	49,62
952,023	49,26
952,41	48,89
952,797	49,36
953,184	49,56
953,571	49,26
953,958	49,17
954,345	49,24
954,731	49
955,118	49,15
955,505	49,24
955,891	49,36
956,277	49,22
956,664	48,94
957,05	48,9
957,436	48,8
957,822	49,11
958,208	49,62
958,594	48,48
958,979	49,47
959,365	49,08
959,751	48,64
960,136	49,19
960,522	48,97
960,907	48,59
961,292	48,53
961,677	48,58
962,062	49,35
962,447	48,46
962,832	48,8
963,217	49,63
963,602	48,71
963,986	49,49
964,371	49,01
964,756	48,85
965,14	48,68
965,524	49,01
965,908	48,79
966,293	49,26
966,677	49,07
967,061	48,92
967,445	48,81
967,828	49,04
968,212	48,97
968,596	48,74
968,979	48,87
969,363	49,58
969,746	49,06
970,129	49,22
970,513	48,48
970,896	49,52
971,279	48,79
971,662	48,79
972,045	49,21
972,428	48,91
972,81	48,68
973,193	48,83
973,575	49,23
973,958	49,13
974,34	49,2
974,723	48,99
975,105	48,97
975,487	49,35
975,869	49,31
976,251	48,81
976,633	49,46
977,015	49,1
977,396	49,38
977,778	49,51
978,16	49,05
978,541	48,61
978,922	49,35
979,304	49,16
979,685	49
980,066	49,31
980,447	49,3
980,828	49,15
981,209	49,52
981,59	48,91
981,97	49,01
982,351	49,2
982,732	48,86
983,112	48,9
983,493	48,75
983,873	49,02
984,253	49,38
984,633	49,08
985,013	49,57
985,393	49,26
985,773	49,04
986,153	49,49
986,533	48,92
986,912	49,12
987,292	49,16
987,671	49,6
988,051	49,29
988,43	49,24
988,809	48,97
989,188	49,84
989,567	49,67
989,946	49,23
990,325	49,7
990,704	49,2
991,083	49,55
991,461	49,64
991,84	49,34
992,218	49,45
992,597	48,7
992,975	50,23
993,353	49,94
993,732	49,73
994,11	49,93
994,488	49,14
994,866	49,57
995,243	49,25
995,621	49,63
995,999	48,65
996,376	49,53
996,754	49,45
997,131	49,83
997,509	49,51
997,886	49,55
998,263	49,07
998,64	49,15
999,017	49,8
999,394	50,01
999,771	49,29
1000,148	49,37
1000,524	50,06
1000,901	49,62
1001,277	49,6
1001,654	49,84
1002,03	49,63
1002,406	49,59
1002,783	49,53
1003,159	50,03
1003,535	49,73
1003,911	49,58
1004,286	49,26
1004,662	49,5
1005,038	49,09
1005,414	49,5
1005,789	49,48
1006,164	49,93
1006,54	49,8
1006,915	49,38
1007,29	49,49
1007,665	49,91
1008,04	49,56
1008,415	49,83
1008,79	49,66
1009,165	50,12
1009,54	49,94
1009,914	49,58
1010,289	50,04
1010,663	50,2
1011,038	49,5
1011,412	50,09
1011,786	49,75
1012,16	49,59
1012,535	49,89
1012,909	49,82
1013,282	49,7
1013,656	49,72
1014,03	49,91
1014,404	49,63
1014,777	49,65
1015,151	49,72
1015,524	49,83
1015,897	50,9
1016,271	49,77
1016,644	49,25
1017,017	49,84
1017,39	50,12
1017,763	49,48
1018,136	50,09
1018,508	51,04
1018,881	50,08
1019,254	50,44
1019,626	50,38
1019,999	49,9
1020,371	49,88
1020,743	49,37
1021,116	50,04
1021,488	49,75
1021,86	50,02
1022,232	50,29
1022,604	50,31
1022,975	50,32
1023,347	50,07
1023,719	50,15
1024,09	49,57
1024,462	49,77
1024,833	50,59
1025,204	49,88
1025,576	50,84
1025,947	50,1
1026,318	50,52
1026,689	49,79
1027,06	49,98
1027,431	49,51
1027,801	50,24
1028,172	49,81
1028,543	50,59
1028,913	49,11
1029,284	49,86
1029,654	49,64
1030,024	50,48
1030,394	50,68
1030,764	50,79
1031,135	50,23
1031,504	50,28
1031,874	50,21
1032,244	50,55
1032,614	50,37
1032,983	50,36
1033,353	49,49
1033,722	50,34
1034,092	49,34
1034,461	50,21
1034,83	49,82
1035,2	50,23
1035,569	50,43
1035,938	50,41
1036,307	50,62
1036,675	50,16
1037,044	50
1037,413	49,71
1037,781	50,63
1038,15	49,95
1038,518	50,8
1038,887	50,64
1039,255	49,52
1039,623	51,21
1039,991	50,58
1040,359	50,08
1040,727	50,5
1041,095	50,54
1041,463	50,78
1041,831	50,59
1042,198	50,15
1042,566	50,21
1042,933	50,11
1043,301	50,11
1043,668	50,6
1044,035	50,64
1044,402	50,46
1044,77	50,36
1045,137	50,57
1045,503	49,82
1045,87	51,25
1046,237	49,91
1046,604	51,06
1046,97	50,54
1047,337	50,28
1047,703	49,62
1048,07	51,27
1048,436	51,07
1048,802	49,92
1049,168	49,82
1049,534	51,43
1049,9	51,2
1050,266	50,85
1050,632	51,17
1050,998	51,05
1051,364	50,36
1051,729	50,43
1052,095	50,5
1052,46	50,43
1052,825	50,53
1053,191	51,24
1053,556	50,52
1053,921	51,57
1054,286	51,62
1054,651	51,1
1055,016	50,26
1055,381	50,72
1055,745	50,62
1056,11	52,03
1056,475	50,37
1056,839	51,51
1057,203	50,81
1057,568	50,53
1057,932	50,93
1058,296	50,51
1058,66	50,31
1059,024	50,15
1059,388	50,18
1059,752	51,28
1060,116	51,93
1060,48	50,91
1060,843	51,02
1061,207	50,86
1061,57	50,39
1061,934	51,16
1062,297	50,87
1062,66	51,71
1063,023	50,08
1063,386	49,87
1063,749	49,49
1064,112	50,12
1064,475	50,27
1064,838	49,33
1065,201	51,19
1065,563	49,59
1065,926	50,36
1066,288	51,01
1066,651	49,84
1067,013	49,71
1067,375	50,65
1067,737	50,52
1068,099	52
1068,461	49,77
1068,823	51,36
1069,185	49,97
1069,547	49,61
1069,909	51,02
1070,27	51,62
1070,632	50,08
1070,993	50,8
1071,355	50,67
1071,716	50,89
1072,077	49,79
1072,438	51,87
1072,799	51,31
1073,16	51,74
1073,521	50,97
1073,882	50,04
1074,243	50,17
1074,603	51,89
1074,964	48,98
1075,325	51,02
1075,685	52,39
1076,045	49,97
1076,406	49,85
1076,766	52,39
1077,126	51,1
1077,486	50,39
1077,846	49,87
1078,206	51,56
1078,566	49,93
1078,925	51,62
1079,285	49,92
1079,645	51,61
1080,004	50,92
1080,364	51,49
1080,723	50,52
1081,082	51,56
1081,442	51
1081,801	51,48
1082,16	51,72
1082,519	52,43
1082,878	49,34
1083,237	50,94
1083,595	52,05
1083,954	50,84
1084,313	49,51
1084,671	52,43
1085,03	50,2
1085,388	50,48
1085,746	51,44
1086,104	50,43
1086,463	52
1086,821	50,36
1087,179	51,07
1087,537	51,84
1087,894	49,98
1088,252	51,6
1088,61	50,11
1088,967	52,29
1089,325	49,2
1089,682	49,19
1090,04	49,68
1090,397	49,61
1090,754	50,3
1091,111	52,54
1091,469	50,08
1091,826	50,46
1092,182	50,48
1092,539	51,02
1092,896	50,13
1093,253	49,7
1093,609	52,47
1093,966	50,36
1094,322	49,54
1094,679	49,51
1095,035	51,42
1095,391	51,2
1095,748	51,7
1096,104	50,48
1096,46	53,43
1096,816	49,53
1097,171	51,13
1097,527	49,9
1097,883	50,3
1098,239	51,76
1098,594	50,37
1098,95	52,5
1099,305	50,69
1099,66	49,96
1100,016	50,33
1100,371	52,42
1100,726	50,18
1101,081	49,76
1101,436	50,82
1101,791	50,11
1102,146	50,25
1102,5	50,75
1102,855	50,09
1103,21	51,23
1103,564	54,75
1103,918	51,1
1104,273	52,09
1104,627	50,15
1104,981	50,6
1105,335	50,59
1105,69	52,44
1106,043	51,55
1106,397	50,59
1106,751	50,3
1107,105	53,22
1107,459	49,7
1107,812	50,92
1108,166	52,02
1108,519	51,7
1108,873	51,79
1109,226	51,26
1109,579	51,16
1109,932	53,02
1110,285	51,14
1110,638	52,42
1110,991	52,86
1111,344	48,8
1111,697	52,95
1112,05	53,38
1112,402	51,88
1112,755	53,89
1113,107	52,67
1113,46	50,28
1113,812	52,38
1114,164	53,74
1114,517	55,05
1114,869	61,54
1115,221	69,35
1115,573	65,09
1115,924	63,5
