Data from F_5__Relative__1__00132.txt Node

Date: Mon Jan 29 18:23:14 CET 2024
User: diatiterra
Spectrometer: HDX00911
Trigger mode: 0
Integration Time (sec): 6,000000E-3
Scans to average: 2
Nonlinearity correction enabled: false
Boxcar width: 0
Storing dark spectrum: false
XAxis mode: Wavelengths
Number of Pixels in Spectrum: 2068
>>>>>Begin Spectral Data<<<<<
194,468	71,57
195,025	61,95
195,581	73,4
196,138	69,23
196,694	78,16
197,251	64
197,807	67,6
198,363	58,91
198,919	66,55
199,474	57,86
200,03	56,62
200,586	55,44
201,141	55,81
201,696	52,6
202,251	60,52
202,806	58,65
203,361	60,35
203,916	59,59
204,471	57,75
205,025	53,57
205,58	54,48
206,134	56,3
206,688	60,14
207,242	57,14
207,796	52,54
208,35	58,12
208,904	60
209,457	66,06
210,011	57,69
210,564	60,76
211,117	51,06
211,67	54,93
212,223	57,19
212,776	53,56
213,329	52,23
213,881	49,29
214,434	55,52
214,986	50,84
215,538	56,04
216,09	50,16
216,642	60
217,194	57,62
217,746	58,92
218,297	51,68
218,849	58,88
219,4	54,9
219,951	65,45
220,502	50,52
221,053	48,59
221,604	57,38
222,155	55,97
222,705	49,16
223,256	64,39
223,806	53,74
224,356	62,68
224,906	52,59
225,456	60,69
226,006	51,01
226,556	57,66
227,106	55,94
227,655	54,7
228,204	55,26
228,754	54,14
229,303	60
229,852	56,86
230,401	54,84
230,949	71,21
231,498	65,3
232,047	55,22
232,595	60,99
233,143	59,85
233,691	58,8
234,239	53,36
234,787	52,8
235,335	58,16
235,883	62,37
236,43	60
236,978	60
237,525	62,69
238,072	58,67
238,619	49,32
239,166	60,94
239,713	55,76
240,26	58,43
240,806	53,9
241,353	60,78
241,899	57,93
242,445	64,34
242,991	62,02
243,537	62,38
244,083	69,45
244,629	61,82
245,174	64,55
245,72	54,52
246,265	61,84
246,81	56,57
247,355	52,57
247,9	54,33
248,445	63,1
248,99	51,56
249,534	59,49
250,079	68,28
250,623	51,53
251,168	58,72
251,712	67,02
252,256	60,8
252,8	65,97
253,343	59,24
253,887	64,29
254,43	65,8
254,974	65,03
255,517	63,09
256,06	58,22
256,603	61,13
257,146	63,97
257,689	55,38
258,232	63,98
258,774	61,99
259,317	62,64
259,859	52,4
260,401	60,23
260,943	65,3
261,485	65,25
262,027	62,41
262,569	54,14
263,11	59,93
263,652	68,75
264,193	57,14
264,734	61,51
265,275	57,43
265,816	58,99
266,357	62,59
266,898	55,97
267,438	52,55
267,979	66,18
268,519	62,45
269,059	60,64
269,6	61,4
270,14	58,75
270,68	54,02
271,219	53,33
271,759	54,48
272,298	58,18
272,838	56,59
273,377	56,67
273,916	51,62
274,455	59,77
274,994	51,44
275,533	57,34
276,072	55,26
276,61	62,12
277,149	56,16
277,687	57,65
278,225	53,08
278,763	60,14
279,301	62,26
279,839	55,43
280,377	48,91
280,914	47,99
281,452	63,01
281,989	59,39
282,526	56,63
283,064	56,94
283,601	60,23
284,137	54,38
284,674	59,62
285,211	55,76
285,747	58,64
286,284	55,44
286,82	62,41
287,356	51,2
287,892	57,54
288,428	52,88
288,964	54,87
289,5	58,16
290,035	64,39
290,571	63,06
291,106	66,91
291,641	53,26
292,176	63,53
292,711	63,79
293,246	56,68
293,781	60,97
294,315	62,13
294,85	63,5
295,384	60,74
295,918	53,66
296,453	56,54
296,987	56,21
297,52	53,77
298,054	51,84
298,588	70,08
299,121	60,44
299,655	54,04
300,188	56,27
300,721	55,17
301,254	69,75
301,787	55,69
302,32	60,98
302,853	58,19
303,385	62,64
303,918	56,84
304,45	57,92
304,982	55,38
305,514	63,47
306,046	53,33
306,578	60
307,11	62,83
307,641	54,91
308,173	50,56
308,704	59
309,236	61,05
309,767	56,25
310,298	54,36
310,829	62,74
311,359	56,58
311,89	59,43
312,421	60,14
312,951	59,27
313,481	65,46
314,012	57,51
314,542	61,64
315,072	52,36
315,601	61,57
316,131	54,38
316,661	62,92
317,19	57,3
317,72	56,04
318,249	56,08
318,778	57,03
319,307	48,99
319,836	57,38
320,365	56,35
320,893	62,77
321,422	57,84
321,95	52,59
322,479	52,6
323,007	54,35
323,535	62,64
324,063	55,97
324,591	51
325,118	53,85
325,646	56,15
326,173	59,64
326,701	53,82
327,228	46,65
327,755	56,63
328,282	59,25
328,809	53,33
329,336	51,21
329,862	62,69
330,389	59,73
330,915	55,67
331,441	50,17
331,968	47,42
332,494	46,15
333,02	44,16
333,545	45,85
334,071	51,33
334,597	47,3
335,122	51,17
335,648	56,41
336,173	52,81
336,698	52,4
337,223	58,7
337,748	48,77
338,272	49,17
338,797	49,84
339,322	47,84
339,846	55,47
340,37	49,45
340,894	47,6
341,419	53,69
341,942	51,01
342,466	53,58
342,99	45,23
343,514	48,05
344,037	45,9
344,56	50,78
345,084	46,06
345,607	48,33
346,13	44,31
346,653	41,51
347,175	46,45
347,698	38,39
348,221	41,57
348,743	45,19
349,265	46,13
349,787	38
350,309	43,25
350,831	44,48
351,353	48,41
351,875	45,79
352,397	46,56
352,918	43,5
353,439	45,26
353,961	47,89
354,482	47,47
355,003	45,84
355,524	45,92
356,044	45,91
356,565	41,65
357,086	46,31
357,606	41,69
358,126	46,96
358,646	40,3
359,167	44,96
359,687	45,05
360,206	40,48
360,726	37,87
361,246	44,58
361,765	41,89
362,285	44,79
362,804	43,11
363,323	40,14
363,842	48,33
364,361	39,39
364,88	42,19
365,398	39,07
365,917	40,86
366,435	47,85
366,954	45,09
367,472	44,78
367,99	45,59
368,508	41,6
369,026	41,28
369,544	38,55
370,061	40,77
370,579	40,9
371,096	40,69
371,613	44,59
372,131	44,01
372,648	41,34
373,165	44,71
373,681	40,63
374,198	40,33
374,715	38,72
375,231	37,36
375,747	43,97
376,264	39,46
376,78	41,95
377,296	39,87
377,812	37,69
378,327	38,22
378,843	40,18
379,359	42,61
379,874	37,98
380,389	33,7
380,905	36,07
381,42	38,9
381,935	35,33
382,449	39,77
382,964	35,69
383,479	37,8
383,993	35,46
384,508	34,19
385,022	33,49
385,536	33,56
386,05	35,43
386,564	32,84
387,078	29,84
387,592	33,02
388,105	31,27
388,619	31,96
389,132	31,94
389,645	33,52
390,158	30,62
390,671	30,37
391,184	32,55
391,697	30,8
392,21	30,14
392,722	30,6
393,235	30,03
393,747	31,48
394,259	29,79
394,771	26,9
395,283	28,66
395,795	29,74
396,307	29,05
396,818	27
397,33	25,98
397,841	28
398,353	26,03
398,864	26,58
399,375	24,56
399,886	25,73
400,397	26,09
400,907	23,26
401,418	22,64
401,928	23,62
402,439	23,55
402,949	20,77
403,459	21,24
403,969	21,18
404,479	20,86
404,989	21,3
405,498	18,72
406,008	18,99
406,517	18,32
407,027	16,76
407,536	17,01
408,045	15,62
408,554	15,47
409,063	15,89
409,572	15,85
410,08	15,71
410,589	15,16
411,097	13,8
411,606	13,45
412,114	13,12
412,622	12,92
413,13	12,97
413,638	12,46
414,145	11,6
414,653	11,89
415,16	11,4
415,668	10,26
416,175	10,47
416,682	11,15
417,189	10,39
417,696	9,83
418,203	10,02
418,71	9,61
419,216	9,53
419,723	10,03
420,229	9,44
420,735	9,27
421,242	9,74
421,748	9,34
422,254	9,08
422,759	9,09
423,265	8,83
423,771	8,57
424,276	8,97
424,781	8,63
425,287	8,92
425,792	8,7
426,297	9,17
426,802	8,62
427,306	8,18
427,811	8,3
428,316	8,42
428,82	8,28
429,324	8,12
429,829	8,82
430,333	7,87
430,837	7,84
431,34	7,93
431,844	7,62
432,348	7,65
432,851	8,19
433,355	7,77
433,858	7,14
434,361	8,07
434,864	8,26
435,367	7,9
435,87	7,87
436,373	7,73
436,876	7,49
437,378	7,32
437,88	7,9
438,383	8,06
438,885	7,49
439,387	7,28
439,889	7,52
440,391	7,72
440,892	7,76
441,394	7,22
441,896	7,66
442,397	7,52
442,898	7,72
443,399	7,92
443,9	7,59
444,401	7,51
444,902	8,02
445,403	7,23
445,903	7,87
446,404	7,65
446,904	8,16
447,405	7,68
447,905	7,85
448,405	7,91
448,905	8,04
449,404	7,89
449,904	7,59
450,404	8,01
450,903	8,26
451,403	8,47
451,902	8,48
452,401	8,53
452,9	8,18
453,399	8,13
453,898	8,46
454,396	8,45
454,895	8,35
455,393	8,21
455,892	8,58
456,39	8,63
456,888	8,35
457,386	8,49
457,884	8,91
458,382	8,57
458,879	8,77
459,377	8,32
459,874	8,6
460,372	8,52
460,869	8,96
461,366	8,75
461,863	8,93
462,36	8,48
462,857	8,95
463,353	8,62
463,85	8,73
464,346	8,29
464,843	8,82
465,339	8,68
465,835	8,79
466,331	8,76
466,827	8,7
467,323	8,63
467,818	8,61
468,314	8,67
468,809	8,71
469,305	9
469,8	8,99
470,295	8,73
470,79	8,77
471,285	8,27
471,78	8,57
472,274	8,44
472,769	8,79
473,263	8,81
473,758	8,82
474,252	8,63
474,746	8,89
475,24	8,71
475,734	8,85
476,228	8,78
476,721	8,73
477,215	8,73
477,708	9,07
478,202	8,92
478,695	8,83
479,188	8,8
479,681	8,94
480,174	9,07
480,667	9,2
481,159	8,85
481,652	9,49
482,144	9,01
482,637	8,93
483,129	9,09
483,621	9,01
484,113	9,47
484,605	9,27
485,097	9,25
485,588	9,21
486,08	9,59
486,571	9,21
487,063	9,08
487,554	9,37
488,045	9,64
488,536	9,19
489,027	9,92
489,518	9,85
490,008	9,84
490,499	9,78
490,989	9,93
491,48	9,97
491,97	10,11
492,46	10
492,95	10,29
493,44	10,36
493,93	10,32
494,419	10,33
494,909	10,5
495,398	10,66
495,888	10,68
496,377	11,15
496,866	11,27
497,355	11,22
497,844	11,37
498,333	11,56
498,821	11,58
499,31	12,07
499,798	12,13
500,287	12,46
500,775	12,58
501,263	12,81
501,751	13
502,239	13,11
502,727	13,4
503,215	13,53
503,702	13,62
504,19	14,52
504,677	14,39
505,164	14,55
505,651	15,29
506,139	15,42
506,625	15,68
507,112	15,7
507,599	16,05
508,086	16,49
508,572	16,87
509,058	17,11
509,545	17,49
510,031	17,62
510,517	18,48
511,003	18,45
511,489	18,88
511,974	19,65
512,46	19,9
512,946	19,97
513,431	20,16
513,916	20,88
514,401	21,09
514,887	21,62
515,371	21,87
515,856	22,4
516,341	22,9
516,826	23,65
517,31	23,89
517,795	24,37
518,279	24,84
518,763	25,26
519,247	25,13
519,731	26
520,215	26,55
520,699	26,84
521,182	27,51
521,666	28,36
522,149	27,87
522,633	28,59
523,116	29,14
523,599	29,86
524,082	29,78
524,565	30,15
525,048	30,19
525,53	31,05
526,013	31,21
526,495	31,97
526,978	32,09
527,46	32,85
527,942	32,74
528,424	33,15
528,906	33,08
529,388	33,39
529,87	34
530,351	33,98
530,833	34,23
531,314	34,76
531,795	34,54
532,277	34,96
532,758	35,33
533,238	35,38
533,719	35,79
534,2	35,94
534,681	35,8
535,161	36,46
535,642	36,22
536,122	36,16
536,602	36,34
537,082	36,51
537,562	36,68
538,042	36,39
538,522	37,02
539,001	36,47
539,481	36,88
539,96	36,55
540,44	36,87
540,919	37,16
541,398	36,96
541,877	37,54
542,356	37,25
542,835	37,18
543,313	37,56
543,792	37,45
544,27	37,72
544,749	37,71
545,227	36,82
545,705	37,75
546,183	37,43
546,661	37,94
547,139	37,69
547,616	37,61
548,094	38,07
548,571	38,06
549,049	37,5
549,526	37,82
550,003	38,37
550,48	38
550,957	38,03
551,434	37,85
551,911	38
552,387	37,85
552,864	38,42
553,34	38,58
553,817	38,35
554,293	38,27
554,769	38,08
555,245	38,71
555,721	38,12
556,197	38,52
556,672	38,24
557,148	38,05
557,623	38,25
558,099	38,24
558,574	37,83
559,049	38,15
559,524	37,91
559,999	37,95
560,474	37,71
560,948	37,06
561,423	38,3
561,897	37,31
562,372	37,67
562,846	37,33
563,32	36,95
563,794	37,17
564,268	36,71
564,742	36,73
565,216	37,18
565,69	36,11
566,163	36,23
566,636	36,24
567,11	35,47
567,583	35,21
568,056	35,64
568,529	34,94
569,002	34,88
569,475	34,82
569,947	34,69
570,42	34,55
570,892	34,34
571,365	34,14
571,837	33,86
572,309	33,55
572,781	32,94
573,253	33,09
573,725	32,67
574,197	32,78
574,668	32,59
575,14	32,3
575,611	31,94
576,082	31,58
576,554	31,55
577,025	31,25
577,496	31,29
577,967	30,75
578,437	30,76
578,908	30,57
579,379	30,1
579,849	30,33
580,319	29,79
580,79	29,64
581,26	29,82
581,73	29,94
582,2	29,36
582,669	29,31
583,139	29,3
583,609	29,04
584,078	29,07
584,548	28,71
585,017	28,83
585,486	28,23
585,955	28,65
586,424	28,09
586,893	28,04
587,362	27,8
587,83	27,98
588,299	27,81
588,767	27,68
589,236	27,62
589,704	27,36
590,172	27,39
590,64	27,19
591,108	27,09
591,576	26,9
592,043	26,82
592,511	26,76
592,978	26,62
593,446	26,84
593,913	26,74
594,38	26,57
594,847	26,61
595,314	26,01
595,781	26,26
596,248	26,01
596,715	26,05
597,181	26,26
597,647	26,28
598,114	25,75
598,58	26,12
599,046	25,81
599,512	25,68
599,978	25,82
600,444	26,02
600,91	25,8
601,375	25,91
601,841	25,66
602,306	25,62
602,771	25,51
603,236	25,26
603,702	25,38
604,167	25,06
604,631	24,94
605,096	25,14
605,561	24,84
606,025	24,84
606,49	24,86
606,954	24,43
607,418	24,61
607,882	24,29
608,347	24,5
608,81	24,32
609,274	24,19
609,738	23,76
610,202	24,1
610,665	23,62
611,128	23,7
611,592	23,61
612,055	23,4
612,518	23,29
612,981	23,13
613,444	22,85
613,907	22,89
614,369	22,53
614,832	22,68
615,294	22,6
615,757	22,34
616,219	22,15
616,681	22
617,143	21,72
617,605	21,75
618,067	21,69
618,529	21,58
618,99	21,39
619,452	21,56
619,913	21,49
620,375	21,07
620,836	21,17
621,297	20,93
621,758	20,96
622,219	20,65
622,68	20,83
623,14	20,83
623,601	20,47
624,061	20,41
624,522	20,76
624,982	20,69
625,442	20,42
625,902	20,53
626,362	20,39
626,822	20,23
627,282	20,41
627,742	20,28
628,201	20,33
628,661	20,12
629,12	20,19
629,579	20,1
630,038	20,21
630,497	20,16
630,956	20,15
631,415	20,08
631,874	20,03
632,332	19,77
632,791	19,77
633,249	19,83
633,708	19,73
634,166	19,57
634,624	19,54
635,082	19,64
635,54	19,38
635,998	19,19
636,455	18,96
636,913	19,03
637,37	18,76
637,828	18,76
638,285	18,39
638,742	18,28
639,199	18,15
639,656	17,98
640,113	17,8
640,57	17,55
641,027	17,42
641,483	17,36
641,94	17,04
642,396	17,01
642,852	16,65
643,309	16,36
643,765	16,12
644,221	16,16
644,676	15,83
645,132	15,57
645,588	15,5
646,043	15,45
646,499	15,09
646,954	15,01
647,409	14,69
647,864	14,76
648,319	14,35
648,774	14,01
649,229	14,09
649,684	14
650,139	13,77
650,593	13,89
651,047	13,87
651,502	13,67
651,956	13,63
652,41	13,41
652,864	13,35
653,318	13,37
653,772	13,24
654,225	13,18
654,679	12,94
655,133	12,93
655,586	12,81
656,039	12,63
656,492	12,78
656,946	12,54
657,399	12,44
657,851	12,19
658,304	12,28
658,757	12,12
659,209	11,92
659,662	11,66
660,114	11,59
660,567	11,37
661,019	11,28
661,471	11,09
661,923	11,01
662,375	10,81
662,826	10,68
663,278	10,59
663,73	10,4
664,181	10,24
664,632	10,24
665,084	10,09
665,535	9,87
665,986	9,94
666,437	9,69
666,888	9,62
667,338	9,46
667,789	9,57
668,24	9,51
668,69	9,43
669,14	9,41
669,591	9,27
670,041	9,24
670,491	9,13
670,941	9,19
671,391	9,14
671,84	9,19
672,29	9,37
672,74	9,37
673,189	9,23
673,638	9,38
674,088	9,33
674,537	9,46
674,986	9,51
675,435	9,52
675,883	9,65
676,332	9,71
676,781	9,8
677,229	9,92
677,678	9,96
678,126	10,2
678,574	10,12
679,022	10,31
679,47	10,59
679,918	10,65
680,366	10,64
680,814	10,84
681,261	11,14
681,709	11,22
682,156	11,36
682,604	11,65
683,051	11,72
683,498	11,87
683,945	12,26
684,392	12,51
684,839	12,75
685,286	13,07
685,732	13,36
686,179	13,61
686,625	13,98
687,071	14,43
687,518	14,75
687,964	15,24
688,41	15,59
688,856	16,18
689,301	16,76
689,747	17,28
690,193	17,78
690,638	18,59
691,084	19,09
691,529	19,74
691,974	20,4
692,419	21,11
692,864	21,94
693,309	22,64
693,754	23,3
694,199	24,21
694,643	24,94
695,088	25,62
695,532	26,49
695,977	27,21
696,421	28,04
696,865	29,02
697,309	29,83
697,753	30,44
698,197	31,25
698,64	32,18
699,084	32,83
699,527	33,7
699,971	34,28
700,414	34,95
700,857	35,78
701,3	36,4
701,743	36,9
702,186	37,6
702,629	38,38
703,072	38,98
703,515	39,66
703,957	40,13
704,399	40,72
704,842	41,03
705,284	41,78
705,726	42,47
706,168	42,86
706,61	43,21
707,052	44,22
707,494	44,15
707,935	45
708,377	45,38
708,818	45,99
709,26	46
709,701	46,59
710,142	47,22
710,583	47,4
711,024	47,86
711,465	48,2
711,905	48,62
712,346	48,82
712,787	49,75
713,227	49,97
713,667	50,37
714,108	50,49
714,548	50,9
714,988	51,49
715,428	51,55
715,868	52,13
716,307	52,4
716,747	52,81
717,186	53
717,626	53,4
718,065	53,46
718,504	53,81
718,944	53,94
719,383	54,47
719,822	54,68
720,261	55,02
720,699	55,04
721,138	55,54
721,576	55,53
722,015	55,71
722,453	56,11
722,892	56,64
723,33	56,39
723,768	56,65
724,206	56,94
724,644	57,1
725,081	57,3
725,519	57,29
725,957	57,51
726,394	58,08
726,832	58,1
727,269	58,22
727,706	58,62
728,143	58,91
728,58	58,69
729,017	58,78
729,454	58,92
729,89	58,29
730,327	59,33
730,764	59,01
731,2	59,35
731,636	59,38
732,072	59,33
732,509	59,38
732,945	59,94
733,38	59,62
733,816	59,58
734,252	59,72
734,688	60,23
735,123	59,76
735,559	60,11
735,994	60,31
736,429	60,29
736,864	60,01
737,299	60,02
737,734	60,4
738,169	60,18
738,604	60,48
739,038	60,22
739,473	60,43
739,907	60,36
740,342	60,44
740,776	60,33
741,21	60,5
741,644	60,7
742,078	60,37
742,512	60,82
742,946	60,23
743,379	60,42
743,813	60,43
744,246	60,51
744,68	60,55
745,113	60,65
745,546	60,68
745,979	60,28
746,412	60,41
746,845	60,16
747,278	60,16
747,711	60,38
748,143	60,25
748,576	60,5
749,008	60,23
749,441	60,18
749,873	60,23
750,305	60,33
750,737	60,14
751,169	60,11
751,601	60,29
752,032	60
752,464	59,78
752,896	59,83
753,327	60,12
753,758	60,25
754,19	59,75
754,621	59,75
755,052	59,69
755,483	59,47
755,914	59,74
756,344	59,96
756,775	59,81
757,206	59,6
757,636	59,36
758,066	59,59
758,497	59,56
758,927	59,42
759,357	59,48
759,787	59,44
760,217	59,05
760,647	59,09
761,076	59,02
761,506	59,19
761,935	59,25
762,365	59,1
762,794	59,09
763,223	59,05
763,653	58,94
764,082	58,89
764,51	59,13
764,939	58,67
765,368	58,75
765,797	58,66
766,225	59
766,654	58,81
767,082	59,01
767,51	58,39
767,938	58,9
768,367	58,48
768,795	58,22
769,222	58,73
769,65	58,41
770,078	58,26
770,505	58,21
770,933	58,44
771,36	57,95
771,788	58,35
772,215	58,25
772,642	58,63
773,069	58,21
773,496	58,32
773,923	58,34
774,349	58,56
774,776	57,91
775,203	57,97
775,629	58,46
776,055	57,74
776,482	58,12
776,908	58,01
777,334	58,04
777,76	57,76
778,186	58,03
778,611	57,9
779,037	57,95
779,463	57,78
779,888	58,07
780,314	57,92
780,739	57,97
781,164	57,93
781,589	58,11
782,014	57,94
782,439	57,92
782,864	57,81
783,289	57,76
783,713	57,58
784,138	57,62
784,562	57,92
784,987	57,61
785,411	57,32
785,835	57,54
786,259	57,55
786,683	57,8
787,107	57,88
787,531	57,42
787,954	57,64
788,378	57,55
788,802	57,71
789,225	57,64
789,648	57,87
790,071	57,69
790,495	57,62
790,918	57,21
791,34	57,4
791,763	57,75
792,186	57,74
792,609	57,78
793,031	57,63
793,454	57,58
793,876	57,34
794,298	57,63
794,721	57,19
795,143	57,46
795,565	57,02
795,986	57,19
796,408	57,66
796,83	57,44
797,252	57,5
797,673	57,32
798,094	57,49
798,516	57,63
798,937	57,05
799,358	57,51
799,779	57,17
800,2	57,16
800,621	57,09
801,042	57,56
801,462	57,3
801,883	57,22
802,303	57,2
802,724	57,04
803,144	57,32
803,564	57,14
803,984	57,28
804,404	57,11
804,824	57,24
805,244	57,24
805,664	57,44
806,084	57,25
806,503	57,06
806,923	57,09
807,342	57,26
807,761	57,04
808,18	57,18
808,599	56,92
809,018	57,27
809,437	57,07
809,856	56,84
810,275	57,14
810,693	57,35
811,112	57,31
811,53	57,02
811,949	57,34
812,367	56,99
812,785	56,91
813,203	56,81
813,621	57,03
814,039	56,86
814,457	57,3
814,874	57,32
815,292	56,88
815,709	57,36
816,127	56,73
816,544	57
816,961	57,22
817,378	57,32
817,795	57,08
818,212	56,89
818,629	57,23
819,046	57,45
819,462	57,01
819,879	56,81
820,295	56,85
820,712	57,39
821,128	57,29
821,544	56,79
821,96	57,03
822,376	56,85
822,792	56,95
823,208	56,94
823,624	57,1
824,039	56,93
824,455	57,13
824,87	57,4
825,286	56,94
825,701	57,13
826,116	56,78
826,531	56,83
826,946	56,97
827,361	56,96
827,776	56,79
828,19	57,02
828,605	57,17
829,02	56,96
829,434	57,12
829,848	56,76
830,263	56,95
830,677	56,76
831,091	57,15
831,505	56,84
831,919	56,88
832,332	56,74
832,746	57,02
833,16	56,83
833,573	56,84
833,987	56,6
834,4	57,26
834,813	56,66
835,226	57,04
835,639	56,79
836,052	56,95
836,465	56,84
836,878	56,86
837,29	56,65
837,703	56,69
838,116	56,88
838,528	56,59
838,94	56,74
839,352	56,77
839,765	56,69
840,177	56,47
840,589	56,62
841	56,71
841,412	56,63
841,824	56,6
842,235	56,89
842,647	56,46
843,058	56,89
843,47	56,67
843,881	56,74
844,292	56,64
844,703	56,54
845,114	56,68
845,525	56,6
845,935	56,73
846,346	56,11
846,757	56,43
847,167	56,96
847,577	56,69
847,988	56,87
848,398	56,82
848,808	56,49
849,218	56,92
849,628	56,58
850,038	56,51
850,448	56,7
850,857	56,65
851,267	56,49
851,676	57,12
852,086	56,66
852,495	56,48
852,904	56,6
853,313	56,69
853,722	56,73
854,131	56,39
854,54	56,68
854,949	56,89
855,357	56,32
855,766	56,55
856,174	56,33
856,583	56,4
856,991	56,28
857,399	56,81
857,807	56,51
858,215	56,37
858,623	56,05
859,031	56,54
859,439	56,52
859,846	56,61
860,254	56,53
860,661	56,58
861,069	56,41
861,476	56,7
861,883	56,22
862,29	56,61
862,697	56,32
863,104	56,45
863,511	56,43
863,918	56,51
864,325	56,41
864,731	56,86
865,138	56,34
865,544	56,78
865,95	56,52
866,357	56,76
866,763	56,77
867,169	56,29
867,575	56,52
867,98	56,17
868,386	56,51
868,792	56,93
869,197	56,56
869,603	56,48
870,008	56,55
870,414	56,18
870,819	56,86
871,224	56,43
871,629	56,45
872,034	56,49
872,439	56,42
872,844	56,52
873,248	56,18
873,653	56,46
874,057	56,83
874,462	56,14
874,866	56,3
875,27	56,45
875,674	56,47
876,078	56,38
876,482	56,32
876,886	56,39
877,29	56,53
877,694	56,7
878,097	56,72
878,501	56,32
878,904	56,7
879,308	56,24
879,711	56,47
880,114	56,56
880,517	56,39
880,92	56,75
881,323	56,23
881,726	56,29
882,128	57,05
882,531	56,63
882,934	56,48
883,336	56,3
883,738	56,41
884,141	56,33
884,543	56,57
884,945	56,42
885,347	56,83
885,749	56,59
886,151	56,22
886,552	56,83
886,954	56,25
887,355	56,89
887,757	56,42
888,158	56,21
888,56	56,41
888,961	56,64
889,362	56,35
889,763	56,01
890,164	56,88
890,565	56,34
890,965	56,31
891,366	56,17
891,767	56,62
892,167	56,28
892,567	56,66
892,968	56,67
893,368	56,28
893,768	56,51
894,168	56,47
894,568	56,63
894,968	56,38
895,368	56,4
895,767	56,53
896,167	56,12
896,566	56,54
896,966	56,26
897,365	56,4
897,764	56,49
898,164	56,73
898,563	56,16
898,962	56,25
899,361	56,48
899,759	56,7
900,158	56,84
900,557	56,4
900,955	56,57
901,354	56,74
901,752	56,17
902,15	57,09
902,548	56,77
902,947	56,39
903,345	56,49
903,742	56,27
904,14	56,64
904,538	56,39
904,936	56,84
905,333	56,46
905,731	56,72
906,128	56,4
906,525	56,71
906,923	56,56
907,32	56,63
907,717	56,39
908,114	56,39
908,511	56,3
908,907	56,41
909,304	56,28
909,701	56,42
910,097	56,57
910,494	56,19
910,89	56,47
911,286	56,69
911,682	56,33
912,078	56,43
912,474	56,57
912,87	56,25
913,266	56,32
913,662	56,13
914,058	56,02
914,453	56,55
914,849	56,38
915,244	56,58
915,639	56,64
916,034	56,17
916,43	56,13
916,825	56,15
917,22	56,23
917,614	56,6
918,009	56,29
918,404	56,31
918,798	56,6
919,193	56,36
919,587	56,53
919,982	56,27
920,376	56,18
920,77	56,52
921,164	56,82
921,558	56,43
921,952	56,11
922,346	56,19
922,74	56,27
923,133	56,84
923,527	56,18
923,92	55,95
924,314	56,65
924,707	56,57
925,1	56,49
925,493	56,38
925,886	56,15
926,279	56,62
926,672	56,61
927,065	56,53
927,457	56,3
927,85	56,24
928,243	55,64
928,635	56,07
929,027	56,25
929,42	56,39
929,812	56,23
930,204	56,28
930,596	56,06
930,988	56,11
931,379	56,28
931,771	55,92
932,163	56,42
932,554	55,92
932,946	56,22
933,337	55,95
933,729	56,35
934,12	55,9
934,511	56,07
934,902	55,84
935,293	56,25
935,684	56,13
936,075	56,4
936,465	55,97
936,856	55,75
937,246	55,89
937,637	56,03
938,027	55,27
938,417	55,88
938,808	56,31
939,198	56,26
939,588	55,85
939,978	56,16
940,368	55,75
940,757	56,09
941,147	55,8
941,537	55,14
941,926	55,92
942,315	56,22
942,705	55,66
943,094	56,07
943,483	55,66
943,872	56,29
944,261	55,37
944,65	55,39
945,039	55,44
945,428	55,97
945,816	55,23
946,205	55,69
946,593	56,26
946,982	56,12
947,37	55,02
947,758	55,75
948,146	55,04
948,534	55,62
948,922	55,73
949,31	56,01
949,698	56,08
950,086	55,19
950,473	54,47
950,861	55,18
951,248	55,3
951,636	55,38
952,023	55,35
952,41	54,35
952,797	55,16
953,184	54,91
953,571	54,6
953,958	55,74
954,345	54,89
954,731	55,09
955,118	55,2
955,505	54,87
955,891	55,09
956,277	55,2
956,664	54,72
957,05	54,96
957,436	54,92
957,822	54,48
958,208	55,1
958,594	54,69
958,979	55,02
959,365	54,31
959,751	54,55
960,136	54,78
960,522	54,94
960,907	54,97
961,292	54,85
961,677	54,79
962,062	55,09
962,447	54,84
962,832	55,12
963,217	54,32
963,602	54,77
963,986	54,93
964,371	54,68
964,756	54,19
965,14	54,42
965,524	54,5
965,908	54,78
966,293	54,52
966,677	55,35
967,061	55
967,445	54,16
967,828	54,09
968,212	54,15
968,596	54,34
968,979	54,56
969,363	54,97
969,746	54,74
970,129	54,54
970,513	54,32
970,896	54,66
971,279	54,75
971,662	54,08
972,045	54,85
972,428	54,4
972,81	54,49
973,193	54,52
973,575	54,47
973,958	54,73
974,34	54,59
974,723	54,76
975,105	54,23
975,487	54,66
975,869	54,23
976,251	54,26
976,633	54,88
977,015	55,15
977,396	54,81
977,778	55,12
978,16	54,74
978,541	54,46
978,922	54,67
979,304	55,01
979,685	54,44
980,066	54,88
980,447	55,2
980,828	54,32
981,209	54,52
981,59	55,27
981,97	54,69
982,351	54,55
982,732	54,82
983,112	54,48
983,493	54,55
983,873	54,8
984,253	55,1
984,633	54,54
985,013	55,42
985,393	55
985,773	54,37
986,153	55,3
986,533	54,6
986,912	54,63
987,292	55,06
987,671	55,01
988,051	55,21
988,43	54,51
988,809	54,75
989,188	54,64
989,567	55,4
989,946	54,71
990,325	55,01
990,704	55,2
991,083	55,02
991,461	55,32
991,84	54,59
992,218	55,28
992,597	55,05
992,975	55,63
993,353	55,45
993,732	54,87
994,11	55,23
994,488	54,46
994,866	55,41
995,243	55,03
995,621	54,91
995,999	54,32
996,376	55,25
996,754	55,56
997,131	55,52
997,509	55,25
997,886	55,22
998,263	55,07
998,64	54,95
999,017	54,94
999,394	55,49
999,771	54,62
1000,148	55,09
1000,524	55,66
1000,901	55,07
1001,277	55,22
1001,654	55,13
1002,03	55,12
1002,406	55,12
1002,783	54,61
1003,159	55,48
1003,535	54,9
1003,911	54,84
1004,286	54,15
1004,662	54,95
1005,038	55,37
1005,414	55,68
1005,789	55,49
1006,164	55,96
1006,54	55,78
1006,915	55,27
1007,29	55,69
1007,665	55,41
1008,04	55,35
1008,415	55,04
1008,79	56,12
1009,165	55,63
1009,54	54,69
1009,914	55,41
1010,289	55,56
1010,663	54,77
1011,038	55,2
1011,412	55,02
1011,786	55,09
1012,16	55,7
1012,535	55,34
1012,909	55,96
1013,282	55,27
1013,656	55,9
1014,03	56,07
1014,404	54,76
1014,777	56,08
1015,151	55,52
1015,524	55,77
1015,897	56,35
1016,271	55,67
1016,644	55,63
1017,017	55,61
1017,39	55,21
1017,763	55,74
1018,136	55,82
1018,508	55,46
1018,881	55,09
1019,254	55,68
1019,626	55,6
1019,999	55,85
1020,371	55,75
1020,743	55,28
1021,116	56,19
1021,488	55,44
1021,86	55,97
1022,232	56,21
1022,604	55,4
1022,975	55,97
1023,347	55,8
1023,719	55,71
1024,09	55,07
1024,462	55,04
1024,833	55,18
1025,204	56,01
1025,576	56,72
1025,947	56,37
1026,318	55,76
1026,689	55,34
1027,06	55,3
1027,431	55,41
1027,801	56,45
1028,172	56,22
1028,543	55,88
1028,913	55,29
1029,284	56,27
1029,654	55,41
1030,024	55,19
1030,394	56,3
1030,764	56,69
1031,135	56,14
1031,504	55,67
1031,874	55,79
1032,244	55,77
1032,614	55,89
1032,983	56,01
1033,353	55,79
1033,722	55,73
1034,092	56,03
1034,461	55,98
1034,83	55,77
1035,2	55,98
1035,569	56,16
1035,938	55,91
1036,307	55,67
1036,675	55,81
1037,044	55,96
1037,413	55,51
1037,781	55,86
1038,15	55,63
1038,518	55,83
1038,887	57,03
1039,255	55,83
1039,623	55,95
1039,991	55,97
1040,359	55,44
1040,727	56,02
1041,095	56,02
1041,463	56,71
1041,831	55,65
1042,198	55,24
1042,566	56,68
1042,933	55,77
1043,301	56,05
1043,668	55,27
1044,035	55,99
1044,402	55,95
1044,77	56,01
1045,137	55,93
1045,503	55,37
1045,87	56,63
1046,237	55,56
1046,604	55,71
1046,97	55,86
1047,337	56,85
1047,703	55,39
1048,07	55,77
1048,436	56,23
1048,802	56,8
1049,168	56,12
1049,534	55,94
1049,9	56,44
1050,266	56,32
1050,632	57
1050,998	56,45
1051,364	56,24
1051,729	56,45
1052,095	55,83
1052,46	56,64
1052,825	55,64
1053,191	55,82
1053,556	56,81
1053,921	56,18
1054,286	56,73
1054,651	56,67
1055,016	56,44
1055,381	55,65
1055,745	57,2
1056,11	56,69
1056,475	55,48
1056,839	57,25
1057,203	56,4
1057,568	55,77
1057,932	55,47
1058,296	56,45
1058,66	57,13
1059,024	56,27
1059,388	57,3
1059,752	57,34
1060,116	56,4
1060,48	57,1
1060,843	57,6
1061,207	55,7
1061,57	55,65
1061,934	57,51
1062,297	57,58
1062,66	56,87
1063,023	56,31
1063,386	55,85
1063,749	56,6
1064,112	55,27
1064,475	56,96
1064,838	57,61
1065,201	55,4
1065,563	56,54
1065,926	56,07
1066,288	56,08
1066,651	56,12
1067,013	56,04
1067,375	55,5
1067,737	55,73
1068,099	55,88
1068,461	55,73
1068,823	55,75
1069,185	57,47
1069,547	55,47
1069,909	55,68
1070,27	57,15
1070,632	55,99
1070,993	56,14
1071,355	55,58
1071,716	57,66
1072,077	56,44
1072,438	57,48
1072,799	57,12
1073,16	56,34
1073,521	55,71
1073,882	55,49
1074,243	56,43
1074,603	55,53
1074,964	56,41
1075,325	57,13
1075,685	57,57
1076,045	56,28
1076,406	56,19
1076,766	55,86
1077,126	56,7
1077,486	55,32
1077,846	54,82
1078,206	56,79
1078,566	57,89
1078,925	55,81
1079,285	56,01
1079,645	56,97
1080,004	55,34
1080,364	56,28
1080,723	57,08
1081,082	56,73
1081,442	56,94
1081,801	57,42
1082,16	57,27
1082,519	57,76
1082,878	56,53
1083,237	55,26
1083,595	57,68
1083,954	58,6
1084,313	57,73
1084,671	58,33
1085,03	56,91
1085,388	56,28
1085,746	57,22
1086,104	55,91
1086,463	56,25
1086,821	57,6
1087,179	55,87
1087,537	58,22
1087,894	56,01
1088,252	54,32
1088,61	56,98
1088,967	58,35
1089,325	58,78
1089,682	57,83
1090,04	56,41
1090,397	55,18
1090,754	56,76
1091,111	58,96
1091,469	56,32
1091,826	55,73
1092,182	55,57
1092,539	57,66
1092,896	57,45
1093,253	58,19
1093,609	58,39
1093,966	55,96
1094,322	56,3
1094,679	56,74
1095,035	56,98
1095,391	55,66
1095,748	58,08
1096,104	58,43
1096,46	55,07
1096,816	57,32
1097,171	57,13
1097,527	54,42
1097,883	56,88
1098,239	55,35
1098,594	55,27
1098,95	57,34
1099,305	56,2
1099,66	58,02
1100,016	58,82
1100,371	57,03
1100,726	56,68
1101,081	55,41
1101,436	55,79
1101,791	57,13
1102,146	52,32
1102,5	57,38
1102,855	55,26
1103,21	57,63
1103,564	58,51
1103,918	55,73
1104,273	56,53
1104,627	56,58
1104,981	55,14
1105,335	57,67
1105,69	54,32
1106,043	54,7
1106,397	56
1106,751	58,86
1107,105	58,22
1107,459	55,07
1107,812	54,84
1108,166	56,18
1108,519	56,76
1108,873	58,36
1109,226	52,58
1109,579	56,94
1109,932	54,19
1110,285	56,53
1110,638	55,94
1110,991	58,5
1111,344	55,62
1111,697	59,13
1112,05	60,44
1112,402	57,06
1112,755	58
1113,107	58,92
1113,46	56,01
1113,812	60,56
1114,164	58,34
1114,517	56,86
1114,869	70,09
1115,221	69,35
1115,573	75,47
1115,924	69,34
