Data from I_2__Relative__3__00179.txt Node

Date: Mon Jan 29 18:29:35 CET 2024
User: diatiterra
Spectrometer: HDX00911
Trigger mode: 0
Integration Time (sec): 6,000000E-3
Scans to average: 2
Nonlinearity correction enabled: false
Boxcar width: 0
Storing dark spectrum: false
XAxis mode: Wavelengths
Number of Pixels in Spectrum: 2068
>>>>>Begin Spectral Data<<<<<
194,468	71,57
195,025	46,02
195,581	60,64
196,138	54,62
196,694	65,52
197,251	45,78
197,807	49,6
198,363	48
198,919	50,53
199,474	41,43
200,03	42,28
200,586	45,58
201,141	47,19
201,696	52,94
202,251	45,02
202,806	45,49
203,361	46,67
203,916	50,68
204,471	47,18
205,025	47,14
205,58	39,78
206,134	49,26
206,688	45,29
207,242	44,22
207,796	44,41
208,35	42,24
208,904	37,63
209,457	55,6
210,011	53,5
210,564	42,71
211,117	45,42
211,67	46,13
212,223	43,84
212,776	50,56
213,329	39,86
213,881	41,79
214,434	46,55
214,986	43,1
215,538	43,59
216,09	39,67
216,642	46,67
217,194	42,38
217,746	44,11
218,297	41,95
218,849	44,24
219,4	48,6
219,951	48
220,502	47,39
221,053	49,53
221,604	53,02
222,155	53,91
222,705	47,83
223,256	42,81
223,806	47,96
224,356	46,01
224,906	44,07
225,456	42,41
226,006	44,97
226,556	48,91
227,106	41,96
227,655	47,04
228,204	49,01
228,754	46,55
229,303	43,73
229,852	45,75
230,401	49,1
230,949	50,58
231,498	52,99
232,047	44,78
232,595	42,91
233,143	54,17
233,691	50,4
234,239	52,24
234,787	39,16
235,335	41,84
235,883	47,67
236,43	48,89
236,978	47,27
237,525	49,25
238,072	47,6
238,619	42,47
239,166	42,42
239,713	52,04
240,26	45,32
240,806	39,36
241,353	47,35
241,899	44,34
242,445	48,6
242,991	52,26
243,537	45,21
244,083	42,91
244,629	47,64
245,174	53,36
245,72	44,82
246,265	45,23
246,81	54,74
247,355	42,65
247,9	47,75
248,445	55,86
248,99	39,45
249,534	53,48
250,079	50,37
250,623	44,41
251,168	42,28
251,712	49,29
252,256	46,84
252,8	51,74
253,343	48,09
253,887	47,96
254,43	53,16
254,974	47,55
255,517	47,99
256,06	45,21
256,603	49,81
257,146	47,81
257,689	48,1
258,232	42,91
258,774	43,17
259,317	43,59
259,859	52,03
260,401	43,18
260,943	42,54
261,485	46,1
262,027	46,21
262,569	49,25
263,11	43,68
263,652	40,44
264,193	43,93
264,734	44,84
265,275	52,21
265,816	49,28
266,357	48,2
266,898	42,66
267,438	42,75
267,979	48,73
268,519	47,29
269,059	52,48
269,6	50,18
270,14	40,26
270,68	52,11
271,219	46,32
271,759	44,4
272,298	43,27
272,838	44,96
273,377	43,33
273,916	41,16
274,455	39,08
274,994	41,73
275,533	38,91
276,072	46,99
276,61	47,44
277,149	36,59
277,687	46,26
278,225	43,84
278,763	46,74
279,301	40
279,839	47,83
280,377	50
280,914	42,12
281,452	59,76
281,989	48,81
282,526	53,76
283,064	42,71
283,601	53,03
284,137	50
284,674	52,08
285,211	43,17
285,747	47,8
286,284	38,25
286,82	49,65
287,356	41,58
287,892	50,53
288,428	37,63
288,964	51,26
289,5	46,94
290,035	42,81
290,571	44,03
291,106	45,09
291,641	41,76
292,176	47,37
292,711	48,28
293,246	43,68
293,781	40,15
294,315	37,5
294,85	54,01
295,384	47,78
295,918	39,02
296,453	44,17
296,987	42,41
297,52	44,86
298,054	38,97
298,588	51,57
299,121	35,9
299,655	40,7
300,188	44,11
300,721	43,45
301,254	47,33
301,787	39,84
302,32	51,89
302,853	43,9
303,385	48,72
303,918	38,6
304,45	42,08
304,982	41,83
305,514	43,54
306,046	37,54
306,578	44,29
307,11	45,72
307,641	43,27
308,173	42,01
308,704	49,81
309,236	53,18
309,767	40,42
310,298	43,55
310,829	43,73
311,359	42,35
311,89	40,93
312,421	43,48
312,951	50,18
313,481	49,4
314,012	48,72
314,542	44,52
315,072	32,73
315,601	48,75
316,131	47,08
316,661	50
317,19	53,02
317,72	47,99
318,249	38,18
318,778	44,11
319,307	41,89
319,836	50,34
320,365	44,3
320,893	49,65
321,422	44,4
321,95	47,04
322,479	49,83
323,007	43,48
323,535	55,47
324,063	52,24
324,591	41,67
325,118	47,2
325,646	55
326,173	51,79
326,701	42,91
327,228	46,01
327,755	44,8
328,282	45,28
328,809	41,48
329,336	41,18
329,862	47,31
330,389	40,96
330,915	42,91
331,441	40,34
331,968	45,02
332,494	38,46
333,02	33,94
333,545	40,79
334,071	50,33
334,597	47,64
335,122	42,14
335,648	49,08
336,173	46,2
336,698	40,41
337,223	50,17
337,748	38,95
338,272	40,26
338,797	41,42
339,322	39,53
339,846	42,97
340,37	37,36
340,894	44,86
341,419	51,01
341,942	49,33
342,466	40,61
342,99	39,69
343,514	39,61
344,037	42,62
344,56	39,5
345,084	47,95
345,607	47,42
346,13	39,38
346,653	38,36
347,175	47,74
347,698	43,75
348,221	44,19
348,743	41,98
349,265	41,67
349,787	46,29
350,309	40,5
350,831	38,81
351,353	51,59
351,875	47,47
352,397	46,01
352,918	44,35
353,439	51,49
353,961	43,66
354,482	51,12
355,003	44,5
355,524	53,32
356,044	44,85
356,565	46,38
357,086	42,75
357,606	41,93
358,126	44,28
358,646	44,53
359,167	49,14
359,687	43,4
360,206	47,71
360,726	41,21
361,246	52,53
361,765	44,74
362,285	44,08
362,804	42,22
363,323	44,04
363,842	51,9
364,361	47,19
364,88	48,73
365,398	44,81
365,917	51,54
366,435	43,35
366,954	41,68
367,472	51,6
367,99	50,51
368,508	43,75
369,026	49,42
369,544	46,91
370,061	45,69
370,579	47,84
371,096	45,07
371,613	48,62
372,131	54,05
372,648	49,82
373,165	46,62
373,681	51,14
374,198	47,05
374,715	49,48
375,231	45,95
375,747	51,57
376,264	47,76
376,78	49,92
377,296	48,89
377,812	46,29
378,327	47,56
378,843	51,26
379,359	50,29
379,874	46,86
380,389	48,42
380,905	48,67
381,42	49,35
381,935	45,33
382,449	46,25
382,964	48,6
383,479	47,13
383,993	46,27
384,508	50,7
385,022	48,31
385,536	45,64
386,05	43,82
386,564	41,76
387,078	42,09
387,592	42,92
388,105	44,64
388,619	44,35
389,132	43,82
389,645	43,95
390,158	41,73
390,671	43,97
391,184	41,75
391,697	43,22
392,21	41,45
392,722	40,02
393,235	40,43
393,747	40,29
394,259	38,65
394,771	40,02
395,283	37,98
395,795	40,61
396,307	38,26
396,818	39,49
397,33	34,2
397,841	37,18
398,353	36,27
398,864	35,74
399,375	35,13
399,886	36,31
400,397	36,11
400,907	33,72
401,418	32,83
401,928	32,82
402,439	32,79
402,949	31,9
403,459	31,08
403,969	32,26
404,479	31,74
404,989	29,96
405,498	29,02
406,008	27,39
406,517	27,75
407,027	26,32
407,536	26,38
408,045	24,68
408,554	24,3
409,063	22,83
409,572	22,28
410,08	23,15
410,589	22,47
411,097	21,02
411,606	21,67
412,114	20,08
412,622	20,31
413,13	18,83
413,638	18,16
414,145	18,08
414,653	17,6
415,16	18,06
415,668	16,36
416,175	17,58
416,682	17,51
417,189	17
417,696	15,44
418,203	16,23
418,71	15,74
419,216	15,02
419,723	15,38
420,229	14,94
420,735	15
421,242	15,06
421,748	15,32
422,254	14,82
422,759	13,87
423,265	14,58
423,771	14,37
424,276	14,69
424,781	13,85
425,287	14,12
425,792	14,17
426,297	13,84
426,802	13,99
427,306	13,78
427,811	13,55
428,316	14,07
428,82	14,43
429,324	13,36
429,829	14,19
430,333	13,28
430,837	13,01
431,34	13,11
431,844	13,1
432,348	12,75
432,851	13,19
433,355	13,22
433,858	12,66
434,361	13,25
434,864	13,08
435,367	13,48
435,87	12,93
436,373	13,26
436,876	12,83
437,378	12,45
437,88	12,8
438,383	13,14
438,885	13,1
439,387	12,93
439,889	12,42
440,391	12,89
440,892	12,85
441,394	12,61
441,896	12,74
442,397	13,15
442,898	12,54
443,399	13,43
443,9	13,43
444,401	13,27
444,902	13,27
445,403	12,79
445,903	12,99
446,404	13,17
446,904	12,99
447,405	13,11
447,905	13,06
448,405	13,03
448,905	13,5
449,404	13,42
449,904	13,23
450,404	13,75
450,903	13,34
451,403	13,96
451,902	13,7
452,401	13,36
452,9	13,54
453,399	14,23
453,898	13,59
454,396	14,09
454,895	14,09
455,393	13,87
455,892	14,17
456,39	14,16
456,888	13,86
457,386	13,95
457,884	13,95
458,382	14,2
458,879	13,72
459,377	14,23
459,874	14,37
460,372	13,87
460,869	14,28
461,366	14,57
461,863	14,42
462,36	14,15
462,857	14,04
463,353	14,34
463,85	14,44
464,346	14,36
464,843	14,41
465,339	14,03
465,835	14,33
466,331	13,81
466,827	14,1
467,323	14,49
467,818	14,61
468,314	14,2
468,809	14,09
469,305	14,29
469,8	14,34
470,295	14,59
470,79	14,96
471,285	14,36
471,78	14,27
472,274	14,33
472,769	14,66
473,263	13,81
473,758	14,76
474,252	14,59
474,746	14,71
475,24	14,64
475,734	14,29
476,228	14,31
476,721	14,08
477,215	14,67
477,708	14,34
478,202	14,5
478,695	14,03
479,188	14,37
479,681	14,47
480,174	14,61
480,667	14,66
481,159	14,56
481,652	14,6
482,144	14,74
482,637	14,66
483,129	14,64
483,621	14,44
484,113	15,3
484,605	14,76
485,097	14,97
485,588	14,83
486,08	14,91
486,571	14,85
487,063	15,25
487,554	14,95
488,045	15,06
488,536	15,1
489,027	15,09
489,518	15,19
490,008	15,6
490,499	15,14
490,989	14,98
491,48	15,47
491,97	15,23
492,46	15,66
492,95	16,06
493,44	15,94
493,93	15,74
494,419	15,91
494,909	15,98
495,398	15,64
495,888	16,37
496,377	16,28
496,866	16,75
497,355	16,77
497,844	16,8
498,333	16,85
498,821	17,25
499,31	16,81
499,798	17,33
500,287	17,72
500,775	17,77
501,263	17,6
501,751	17,93
502,239	18,27
502,727	18,54
503,215	18,74
503,702	18,75
504,19	18,98
504,677	19,37
505,164	19,37
505,651	19,53
506,139	19,73
506,625	20,12
507,112	20,24
507,599	20,44
508,086	20,68
508,572	21,05
509,058	21,3
509,545	21,69
510,031	21,47
510,517	21,89
511,003	22,36
511,489	22,15
511,974	22,76
512,46	22,92
512,946	23,2
513,431	23,36
513,916	24,05
514,401	24,23
514,887	24,19
515,371	24,37
515,856	25
516,341	25,45
516,826	25,72
517,31	26,02
517,795	26,39
518,279	26,52
518,763	26,84
519,247	26,83
519,731	27,57
520,215	27,89
520,699	28,31
521,182	28,18
521,666	28,76
522,149	28,82
522,633	29,01
523,116	29,44
523,599	29,85
524,082	29,87
524,565	30,3
525,048	30,08
525,53	30,88
526,013	30,74
526,495	31,22
526,978	31,26
527,46	31,97
527,942	32,17
528,424	32,11
528,906	32,19
529,388	32,52
529,87	32,62
530,351	32,91
530,833	32,93
531,314	33,65
531,795	33,46
532,277	33,87
532,758	33,67
533,238	33,73
533,719	33,71
534,2	34,16
534,681	34,1
535,161	34,08
535,642	34,12
536,122	34,11
536,602	34,25
537,082	34,21
537,562	34,7
538,042	34,21
538,522	34,43
539,001	34,88
539,481	34,78
539,96	34,37
540,44	34,6
540,919	35,02
541,398	34,76
541,877	34,75
542,356	34,89
542,835	34,59
543,313	34,92
543,792	35,12
544,27	35,08
544,749	35,21
545,227	34,87
545,705	34,82
546,183	35,23
546,661	34,94
547,139	34,97
547,616	34,64
548,094	35,43
548,571	35,37
549,049	35,58
549,526	35,59
550,003	35,4
550,48	35,28
550,957	35,33
551,434	35,43
551,911	35,21
552,387	35,34
552,864	35,88
553,34	35,52
553,817	35,55
554,293	35,46
554,769	35,64
555,245	35,79
555,721	35,7
556,197	35,64
556,672	35,32
557,148	35,2
557,623	35,58
558,099	34,97
558,574	35,61
559,049	35,57
559,524	35,58
559,999	35,54
560,474	35,17
560,948	35,46
561,423	34,99
561,897	35,26
562,372	35,62
562,846	34,99
563,32	34,87
563,794	34,54
564,268	35,08
564,742	34,9
565,216	34,8
565,69	34,44
566,163	34,77
566,636	34,33
567,11	34,42
567,583	34,08
568,056	34,54
568,529	33,81
569,002	33,74
569,475	33,5
569,947	33,22
570,42	33,51
570,892	33,08
571,365	33,21
571,837	32,88
572,309	32,88
572,781	32,73
573,253	32,12
573,725	32,08
574,197	32,16
574,668	32,03
575,14	32,18
575,611	31,48
576,082	31,64
576,554	31,54
577,025	31,15
577,496	30,74
577,967	31,09
578,437	30,91
578,908	30,68
579,379	30,57
579,849	30,45
580,319	30,15
580,79	30,02
581,26	30,08
581,73	30,4
582,2	29,93
582,669	30,12
583,139	29,75
583,609	29,6
584,078	29,53
584,548	29,14
585,017	29,3
585,486	29,15
585,955	28,81
586,424	29,05
586,893	28,94
587,362	28,92
587,83	28,77
588,299	28,59
588,767	28,66
589,236	28,33
589,704	28,27
590,172	28,61
590,64	28,36
591,108	28,12
591,576	28,15
592,043	27,92
592,511	28,01
592,978	28,02
593,446	28,04
593,913	27,74
594,38	27,78
594,847	27,65
595,314	27,65
595,781	27,76
596,248	27,68
596,715	27,56
597,181	27,21
597,647	27,64
598,114	27,28
598,58	27,16
599,046	27,18
599,512	27,24
599,978	27,59
600,444	27,37
600,91	27,15
601,375	27,08
601,841	27,29
602,306	27,07
602,771	27,12
603,236	27,14
603,702	26,81
604,167	26,7
604,631	26,38
605,096	26,9
605,561	26,67
606,025	26,56
606,49	26,52
606,954	26,25
607,418	26,44
607,882	26,25
608,347	26,26
608,81	26,12
609,274	25,96
609,738	26,06
610,202	26,05
610,665	25,79
611,128	25,52
611,592	25,61
612,055	25,32
612,518	25,36
612,981	25,23
613,444	25,1
613,907	25,08
614,369	24,82
614,832	25,11
615,294	24,92
615,757	24,58
616,219	24,57
616,681	24,39
617,143	24,37
617,605	24,5
618,067	24,25
618,529	23,95
618,99	24,42
619,452	24,05
619,913	24,3
620,375	23,91
620,836	23,74
621,297	23,79
621,758	23,6
622,219	23,61
622,68	23,52
623,14	23,51
623,601	23,4
624,061	23,31
624,522	23,44
624,982	23,71
625,442	23,36
625,902	23,23
626,362	23,24
626,822	23,34
627,282	23,16
627,742	22,95
628,201	22,98
628,661	22,9
629,12	23,18
629,579	23,03
630,038	23,04
630,497	23,09
630,956	23,17
631,415	23,03
631,874	22,87
632,332	22,72
632,791	22,81
633,249	22,64
633,708	22,68
634,166	22,54
634,624	22,45
635,082	22,59
635,54	22,2
635,998	22,41
636,455	22,31
636,913	21,97
637,37	21,82
637,828	22,02
638,285	21,67
638,742	21,74
639,199	21,41
639,656	21,4
640,113	21,3
640,57	20,85
641,027	21,14
641,483	20,84
641,94	20,56
642,396	20,77
642,852	20,44
643,309	20,18
643,765	20,12
644,221	19,82
644,676	19,81
645,132	19,65
645,588	19,46
646,043	19,63
646,499	19,19
646,954	19,05
647,409	18,82
647,864	18,92
648,319	18,7
648,774	18,53
649,229	18,43
649,684	18,42
650,139	18,3
650,593	18,29
651,047	18,38
651,502	18,15
651,956	17,94
652,41	17,89
652,864	17,93
653,318	17,97
653,772	17,59
654,225	17,69
654,679	17,79
655,133	17,36
655,586	17,43
656,039	17,39
656,492	17,32
656,946	17,18
657,399	17,14
657,851	17,01
658,304	16,8
658,757	16,77
659,209	16,69
659,662	16,23
660,114	16,31
660,567	16,26
661,019	16,15
661,471	15,85
661,923	15,69
662,375	15,81
662,826	15,41
663,278	15,28
663,73	15,26
664,181	15,27
664,632	15,23
665,084	15,12
665,535	14,93
665,986	14,88
666,437	14,8
666,888	14,59
667,338	14,65
667,789	14,68
668,24	14,6
668,69	14,55
669,14	14,41
669,591	14,45
670,041	14,46
670,491	14,28
670,941	14,43
671,391	14,22
671,84	14,41
672,29	14,38
672,74	14,31
673,189	14,42
673,638	14,49
674,088	14,52
674,537	14,46
674,986	14,49
675,435	14,66
675,883	14,71
676,332	14,59
676,781	14,72
677,229	14,95
677,678	14,82
678,126	15,1
678,574	15,07
679,022	15,41
679,47	15,42
679,918	15,47
680,366	15,58
680,814	15,55
681,261	15,92
681,709	15,83
682,156	16,19
682,604	16,28
683,051	16,58
683,498	16,58
683,945	16,65
684,392	16,92
684,839	17,21
685,286	17,39
685,732	17,76
686,179	18
686,625	18,12
687,071	18,27
687,518	18,65
687,964	18,94
688,41	19,37
688,856	19,67
689,301	20,04
689,747	20,56
690,193	20,79
690,638	21,31
691,084	21,61
691,529	22,08
691,974	22,88
692,419	22,95
692,864	23,65
693,309	24
693,754	24,28
694,199	24,86
694,643	25,5
695,088	25,94
695,532	26,51
695,977	26,98
696,421	27,55
696,865	27,91
697,309	28,45
697,753	29,01
698,197	29,44
698,64	30,03
699,084	30,17
699,527	30,72
699,971	31,33
700,414	31,76
700,857	31,93
701,3	32,37
701,743	32,77
702,186	33,25
702,629	33,61
703,072	33,98
703,515	34,21
703,957	34,51
704,399	35,02
704,842	34,99
705,284	35,52
705,726	35,98
706,168	36,34
706,61	36,19
707,052	36,87
707,494	36,97
707,935	37,26
708,377	37,36
708,818	37,89
709,26	38,09
709,701	38,43
710,142	38,52
710,583	38,64
711,024	39,17
711,465	39,08
711,905	39,51
712,346	39,53
712,787	39,75
713,227	40,13
713,667	40,17
714,108	40,33
714,548	40,48
714,988	40,94
715,428	40,92
715,868	41,17
716,307	41,48
716,747	41,76
717,186	41,94
717,626	41,99
718,065	41,96
718,504	41,82
718,944	42,34
719,383	42,42
719,822	42,66
720,261	42,98
720,699	42,85
721,138	42,89
721,576	43,42
722,015	43,03
722,453	43,08
722,892	43,53
723,33	43,35
723,768	43,55
724,206	43,72
724,644	44,05
725,081	43,93
725,519	43,88
725,957	43,93
726,394	44,16
726,832	44,36
727,269	44,07
727,706	44,28
728,143	44,49
728,58	44,37
729,017	44,49
729,454	44,33
729,89	44,5
730,327	44,53
730,764	44,43
731,2	44,68
731,636	44,89
732,072	44,62
732,509	44,83
732,945	45,04
733,38	45,13
733,816	44,81
734,252	44,82
734,688	45,06
735,123	44,87
735,559	45,38
735,994	45
736,429	44,79
736,864	45,15
737,299	45,08
737,734	45,25
738,169	45,13
738,604	45,15
739,038	45,16
739,473	45,15
739,907	45,13
740,342	45,07
740,776	44,98
741,21	45,01
741,644	45,11
742,078	44,69
742,512	45,4
742,946	44,75
743,379	44,66
743,813	44,87
744,246	44,82
744,68	44,8
745,113	44,62
745,546	44,53
745,979	44,63
746,412	44,87
746,845	44,67
747,278	44,85
747,711	44,7
748,143	44,59
748,576	44,62
749,008	44,62
749,441	44,71
749,873	44,55
750,305	44,61
750,737	44,25
751,169	44,34
751,601	44,71
752,032	44,38
752,464	44,23
752,896	44,39
753,327	44,24
753,758	44,05
754,19	44
754,621	44,24
755,052	44,09
755,483	44,05
755,914	44,09
756,344	43,93
756,775	43,85
757,206	44,27
757,636	43,76
758,066	43,93
758,497	43,91
758,927	43,71
759,357	43,92
759,787	43,76
760,217	43,54
760,647	43,53
761,076	43,7
761,506	43,66
761,935	43,56
762,365	43,43
762,794	43,24
763,223	43,59
763,653	43,65
764,082	43,49
764,51	43,41
764,939	43,17
765,368	43,39
765,797	43,08
766,225	43,39
766,654	43,14
767,082	43,41
767,51	43,37
767,938	43,11
768,367	42,93
768,795	42,84
769,222	42,98
769,65	42,99
770,078	43,18
770,505	42,76
770,933	43,14
771,36	42,65
771,788	42,97
772,215	42,91
772,642	42,86
773,069	42,72
773,496	42,78
773,923	42,68
774,349	42,86
774,776	42,74
775,203	42,36
775,629	42,87
776,055	42,65
776,482	42,71
776,908	42,62
777,334	42,67
777,76	42,51
778,186	42,64
778,611	42,6
779,037	42,43
779,463	42,83
779,888	42,25
780,314	42,58
780,739	42,46
781,164	42,2
781,589	42,42
782,014	42,37
782,439	42,41
782,864	42,44
783,289	42,49
783,713	42,14
784,138	42,38
784,562	42,54
784,987	42,14
785,411	41,93
785,835	42,11
786,259	42,41
786,683	42,1
787,107	42,59
787,531	42,11
787,954	42,29
788,378	42,45
788,802	42,43
789,225	42,12
789,648	42,07
790,071	42,24
790,495	42,47
790,918	41,79
791,34	41,97
791,763	42,33
792,186	42,24
792,609	42,04
793,031	42,31
793,454	42,11
793,876	42,24
794,298	42
794,721	42,09
795,143	42
795,565	41,96
795,986	41,78
796,408	42,17
796,83	41,84
797,252	41,87
797,673	41,86
798,094	41,95
798,516	42,02
798,937	41,82
799,358	41,94
799,779	42,14
800,2	42,15
800,621	41,87
801,042	42,17
801,462	42,12
801,883	41,96
802,303	41,92
802,724	41,78
803,144	41,79
803,564	42,04
803,984	41,91
804,404	41,67
804,824	41,99
805,244	41,85
805,664	41,93
806,084	41,89
806,503	41,85
806,923	41,71
807,342	42,25
807,761	41,59
808,18	41,98
808,599	41,57
809,018	41,87
809,437	41,59
809,856	41,75
810,275	41,75
810,693	41,69
811,112	42,02
811,53	41,79
811,949	41,78
812,367	42,02
812,785	41,81
813,203	41,73
813,621	41,77
814,039	41,61
814,457	41,76
814,874	41,84
815,292	41,75
815,709	41,5
816,127	41,55
816,544	41,84
816,961	41,74
817,378	41,87
817,795	41,65
818,212	41,77
818,629	41,76
819,046	41,8
819,462	41,81
819,879	41,73
820,295	41,57
820,712	41,4
821,128	41,56
821,544	41,64
821,96	41,78
822,376	41,55
822,792	41,85
823,208	41,41
823,624	41,66
824,039	41,69
824,455	42,01
824,87	41,7
825,286	41,77
825,701	41,69
826,116	41,74
826,531	41,49
826,946	41,51
827,361	41,67
827,776	41,83
828,19	41,45
828,605	41,58
829,02	41,42
829,434	41,46
829,848	41,28
830,263	41,33
830,677	41,36
831,091	41,73
831,505	41,34
831,919	41,75
832,332	41,43
832,746	41,54
833,16	41,39
833,573	41,35
833,987	41,34
834,4	41,4
834,813	41,44
835,226	41,44
835,639	41,48
836,052	41,33
836,465	41,56
836,878	41,63
837,29	41,59
837,703	41,61
838,116	41,35
838,528	41,58
838,94	41,3
839,352	41,52
839,765	41,17
840,177	41,35
840,589	41,08
841	41,52
841,412	41,23
841,824	41,27
842,235	41,47
842,647	41,26
843,058	41,42
843,47	41,44
843,881	41,22
844,292	41,21
844,703	41,5
845,114	41,26
845,525	41,47
845,935	41,29
846,346	41,14
846,757	41,22
847,167	41,43
847,577	41,15
847,988	41,29
848,398	41,42
848,808	41,26
849,218	41,6
849,628	41,12
850,038	41,28
850,448	41,31
850,857	41,22
851,267	41,19
851,676	41,42
852,086	41,22
852,495	41,05
852,904	41,06
853,313	41,31
853,722	40,93
854,131	41,27
854,54	41,22
854,949	41,33
855,357	41,04
855,766	41,06
856,174	40,94
856,583	41,12
856,991	41,09
857,399	41,14
857,807	41,03
858,215	41,5
858,623	41,08
859,031	41,33
859,439	41,24
859,846	41,17
860,254	41,29
860,661	41,22
861,069	41,29
861,476	41,01
861,883	41,04
862,29	41,03
862,697	41,25
863,104	41,05
863,511	41,3
863,918	41,07
864,325	40,87
864,731	41,38
865,138	41,21
865,544	41,03
865,95	41,17
866,357	41,2
866,763	41,08
867,169	40,86
867,575	40,89
867,98	40,93
868,386	41,11
868,792	41,37
869,197	41,39
869,603	40,87
870,008	40,93
870,414	40,91
870,819	41,39
871,224	41,18
871,629	41,01
872,034	40,72
872,439	40,88
872,844	40,92
873,248	41,05
873,653	41,01
874,057	40,91
874,462	41,21
874,866	41,07
875,27	41,07
875,674	41,02
876,078	41,02
876,482	40,93
876,886	41,38
877,29	41,09
877,694	41,1
878,097	41,01
878,501	41,19
878,904	41,12
879,308	41,07
879,711	41,11
880,114	41,18
880,517	41,06
880,92	41,16
881,323	41,21
881,726	41,19
882,128	40,86
882,531	40,92
882,934	41,18
883,336	40,73
883,738	41,19
884,141	41,07
884,543	41,14
884,945	40,93
885,347	41,31
885,749	41,23
886,151	40,92
886,552	41,28
886,954	40,93
887,355	41,33
887,757	41,04
888,158	41,07
888,56	41,18
888,961	41,17
889,362	41,02
889,763	40,83
890,164	41,17
890,565	40,91
890,965	41,14
891,366	41,04
891,767	40,97
892,167	40,99
892,567	40,97
892,968	41,28
893,368	40,64
893,768	41,43
894,168	41,11
894,568	41,42
894,968	40,7
895,368	40,82
895,767	40,98
896,167	41,03
896,566	40,97
896,966	40,92
897,365	40,79
897,764	40,87
898,164	41,17
898,563	40,87
898,962	41,02
899,361	40,89
899,759	40,85
900,158	40,82
900,557	41,15
900,955	41,01
901,354	41,17
901,752	41
902,15	41,24
902,548	40,75
902,947	41,1
903,345	41,11
903,742	40,99
904,14	40,88
904,538	41,22
904,936	40,85
905,333	41,04
905,731	41,25
906,128	41,02
906,525	41,07
906,923	41,11
907,32	41,3
907,717	41,07
908,114	41,18
908,511	41,08
908,907	41,25
909,304	41,22
909,701	40,81
910,097	41,11
910,494	40,79
910,89	41,04
911,286	41,18
911,682	40,81
912,078	41,02
912,474	41
912,87	40,86
913,266	41,1
913,662	40,85
914,058	40,91
914,453	40,92
914,849	40,95
915,244	40,72
915,639	41,11
916,034	40,98
916,43	40,9
916,825	40,9
917,22	40,87
917,614	41,11
918,009	41,02
918,404	41,18
918,798	40,88
919,193	40,88
919,587	41,11
919,982	40,67
920,376	40,74
920,77	40,92
921,164	41,2
921,558	41,31
921,952	41,17
922,346	40,68
922,74	41,04
923,133	41,22
923,527	40,84
923,92	40,93
924,314	41,04
924,707	41,14
925,1	40,96
925,493	40,95
925,886	40,52
926,279	41,32
926,672	40,71
927,065	40,62
927,457	40,93
927,85	41,06
928,243	40,99
928,635	40,85
929,027	40,66
929,42	41,38
929,812	40,63
930,204	40,79
930,596	40,66
930,988	40,84
931,379	40,72
931,771	40,65
932,163	40,77
932,554	40,61
932,946	40,74
933,337	40,98
933,729	41
934,12	40,61
934,511	40,47
934,902	40,55
935,293	40,83
935,684	40,87
936,075	40,56
936,465	40,44
936,856	40,19
937,246	40,08
937,637	40,32
938,027	41,04
938,417	40,64
938,808	40,46
939,198	40,61
939,588	40,6
939,978	40,85
940,368	40,14
940,757	40,16
941,147	41,13
941,537	40,15
941,926	40,37
942,315	40,58
942,705	40,81
943,094	40,42
943,483	40,47
943,872	40,68
944,261	40,63
944,65	40,19
945,039	41,02
945,428	40,43
945,816	40,2
946,205	40,43
946,593	40,36
946,982	40,9
947,37	40,54
947,758	40,89
948,146	39,86
948,534	40,65
948,922	40,2
949,31	40,62
949,698	40,35
950,086	40,18
950,473	40,18
950,861	39,94
951,248	40,39
951,636	39,41
952,023	40
952,41	39,82
952,797	40,04
953,184	40,12
953,571	39,82
953,958	39,92
954,345	39,84
954,731	39,51
955,118	39,99
955,505	39,48
955,891	39,72
956,277	39,62
956,664	39,6
957,05	39,75
957,436	39,15
957,822	39,28
958,208	39,45
958,594	38,74
958,979	39,72
959,365	39,79
959,751	39,97
960,136	39,86
960,522	39,2
960,907	39,84
961,292	39,67
961,677	39,59
962,062	39,74
962,447	39,16
962,832	39,62
963,217	39,65
963,602	39,9
963,986	39,41
964,371	39,85
964,756	39,57
965,14	39,09
965,524	39,52
965,908	39,42
966,293	39,31
966,677	39,38
967,061	39,63
967,445	39,38
967,828	39,38
968,212	39,71
968,596	39,33
968,979	39,31
969,363	40,07
969,746	39,14
970,129	39,71
970,513	39,64
970,896	39,93
971,279	39,78
971,662	38,76
972,045	39,75
972,428	39,65
972,81	39
973,193	39,79
973,575	39,52
973,958	39,43
974,34	39,51
974,723	39,72
975,105	38,9
975,487	39,48
975,869	39,44
976,251	39,37
976,633	39,92
977,015	40,11
977,396	39,59
977,778	39,73
978,16	39,28
978,541	39,6
978,922	39,69
979,304	40,19
979,685	39,57
980,066	39,36
980,447	39,63
980,828	39,06
981,209	39,51
981,59	39,62
981,97	39,95
982,351	39,23
982,732	39,68
983,112	40,2
983,493	39,31
983,873	39,43
984,253	40
984,633	39,57
985,013	39,72
985,393	39,57
985,773	39,38
986,153	40,24
986,533	39,48
986,912	39,83
987,292	39,53
987,671	39,92
988,051	39,37
988,43	39,12
988,809	39,75
989,188	39,74
989,567	40,1
989,946	39,52
990,325	39,62
990,704	40,13
991,083	39,25
991,461	40,03
991,84	39,7
992,218	39,97
992,597	39,34
992,975	40,09
993,353	39,65
993,732	39,95
994,11	39,97
994,488	39,76
994,866	39,86
995,243	39,62
995,621	40,03
995,999	39,34
996,376	40,09
996,754	40,1
997,131	39,88
997,509	39,94
997,886	39,85
998,263	40,1
998,64	39,64
999,017	40,04
999,394	39,72
999,771	39,69
1000,148	39,42
1000,524	40,35
1000,901	40,24
1001,277	40,09
1001,654	40,43
1002,03	39,73
1002,406	40,42
1002,783	40
1003,159	39,83
1003,535	39,68
1003,911	40,41
1004,286	39,56
1004,662	39,85
1005,038	39,67
1005,414	40,42
1005,789	39,69
1006,164	40,18
1006,54	40,42
1006,915	40,12
1007,29	39,82
1007,665	40,3
1008,04	39,71
1008,415	40,67
1008,79	39,87
1009,165	40,15
1009,54	39,76
1009,914	39,92
1010,289	39,76
1010,663	40,34
1011,038	39,75
1011,412	39,75
1011,786	39,68
1012,16	40,15
1012,535	39,91
1012,909	39,8
1013,282	40,28
1013,656	39,95
1014,03	39,89
1014,404	39,75
1014,777	40,48
1015,151	39,76
1015,524	39,88
1015,897	40,79
1016,271	39,73
1016,644	40,14
1017,017	40,02
1017,39	39,89
1017,763	40,07
1018,136	40,6
1018,508	40,55
1018,881	40,25
1019,254	40,16
1019,626	40,33
1019,999	40,67
1020,371	39,46
1020,743	40,58
1021,116	40,25
1021,488	40,3
1021,86	40,07
1022,232	40,73
1022,604	40,09
1022,975	40,18
1023,347	40,29
1023,719	39,61
1024,09	40,34
1024,462	39,96
1024,833	39,44
1025,204	40,67
1025,576	40,43
1025,947	40,34
1026,318	40,04
1026,689	40,45
1027,06	39,7
1027,431	39,84
1027,801	40,62
1028,172	40,55
1028,543	40,89
1028,913	40,54
1029,284	40,68
1029,654	39,63
1030,024	40,6
1030,394	40,56
1030,764	40,35
1031,135	39,71
1031,504	40,39
1031,874	39,85
1032,244	40,37
1032,614	40,19
1032,983	39,99
1033,353	40,15
1033,722	40,29
1034,092	40,09
1034,461	40,89
1034,83	40,46
1035,2	40,61
1035,569	40,22
1035,938	40,75
1036,307	40,74
1036,675	40,66
1037,044	40,75
1037,413	41,01
1037,781	40,19
1038,15	40,66
1038,518	40,19
1038,887	41
1039,255	39,58
1039,623	40,36
1039,991	40,53
1040,359	40,36
1040,727	40,04
1041,095	40,69
1041,463	41,18
1041,831	39,83
1042,198	40,59
1042,566	40,89
1042,933	40,39
1043,301	40,79
1043,668	40,84
1044,035	40,4
1044,402	40,47
1044,77	40,72
1045,137	40,7
1045,503	40,31
1045,87	40,44
1046,237	40,29
1046,604	40,11
1046,97	41,21
1047,337	41,06
1047,703	39,94
1048,07	40,47
1048,436	40,64
1048,802	39,9
1049,168	40,77
1049,534	40,69
1049,9	40,03
1050,266	41,16
1050,632	40,87
1050,998	41,01
1051,364	40,96
1051,729	40,68
1052,095	40,4
1052,46	40,11
1052,825	41,35
1053,191	40,22
1053,556	41,11
1053,921	41,03
1054,286	41,04
1054,651	41,11
1055,016	40,45
1055,381	40,34
1055,745	40,63
1056,11	41,33
1056,475	40,35
1056,839	41,67
1057,203	40,56
1057,568	40,54
1057,932	40,45
1058,296	41,33
1058,66	39,89
1059,024	40,3
1059,388	41,57
1059,752	41,26
1060,116	40,67
1060,48	41,35
1060,843	40,31
1061,207	40,01
1061,57	41,14
1061,934	41,37
1062,297	41,23
1062,66	41,48
1063,023	40,77
1063,386	40,09
1063,749	40,2
1064,112	40,55
1064,475	40,68
1064,838	41,79
1065,201	40,88
1065,563	40,65
1065,926	40,63
1066,288	40,56
1066,651	39,09
1067,013	40,02
1067,375	40,59
1067,737	39,45
1068,099	40,94
1068,461	40,81
1068,823	41,7
1069,185	40,35
1069,547	39,9
1069,909	40,37
1070,27	41,75
1070,632	40,78
1070,993	39,78
1071,355	39,99
1071,716	40,31
1072,077	41,36
1072,438	41,68
1072,799	41,48
1073,16	41,73
1073,521	41,39
1073,882	39,86
1074,243	39,82
1074,603	41,05
1074,964	40,7
1075,325	40,96
1075,685	41,84
1076,045	40,41
1076,406	40,54
1076,766	41,21
1077,126	40,56
1077,486	41,98
1077,846	41,02
1078,206	39,98
1078,566	40,77
1078,925	40,67
1079,285	40,91
1079,645	41,75
1080,004	39,38
1080,364	39,85
1080,723	40,51
1081,082	41,26
1081,442	40,22
1081,801	41,7
1082,16	40,7
1082,519	40,43
1082,878	40,68
1083,237	40,61
1083,595	42,06
1083,954	41,66
1084,313	41,38
1084,671	42,04
1085,03	40,7
1085,388	40,7
1085,746	41,64
1086,104	41,63
1086,463	39,9
1086,821	40,82
1087,179	41,66
1087,537	41,75
1087,894	40,17
1088,252	40,94
1088,61	42,55
1088,967	41,84
1089,325	40,87
1089,682	39,82
1090,04	41,7
1090,397	40,56
1090,754	40,25
1091,111	42,34
1091,469	41,25
1091,826	40,9
1092,182	40,61
1092,539	40,52
1092,896	40,44
1093,253	40,26
1093,609	42,27
1093,966	39,04
1094,322	40,21
1094,679	41,04
1095,035	41,19
1095,391	40,81
1095,748	41,53
1096,104	41,02
1096,46	41,02
1096,816	42,02
1097,171	41,01
1097,527	40,02
1097,883	40,99
1098,239	43,37
1098,594	41,42
1098,95	42,49
1099,305	43,51
1099,66	41,94
1100,016	41,93
1100,371	42,22
1100,726	43,28
1101,081	40,48
1101,436	42,24
1101,791	42,46
1102,146	39,74
1102,5	42,14
1102,855	42,38
1103,21	44,58
1103,564	41,39
1103,918	40,9
1104,273	41,77
1104,627	40,62
1104,981	42,04
1105,335	43,4
1105,69	41,8
1106,043	42,32
1106,397	41,59
1106,751	40,54
1107,105	42,46
1107,459	41,31
1107,812	40,12
1108,166	41,16
1108,519	44,95
1108,873	40,8
1109,226	41,96
1109,579	40,68
1109,932	41,38
1110,285	39,04
1110,638	39,3
1110,991	43,61
1111,344	41,1
1111,697	43,44
1112,05	43,97
1112,402	42,2
1112,755	42,6
1113,107	43,64
1113,46	42,29
1113,812	42,25
1114,164	43,64
1114,517	40,64
1114,869	47,86
1115,221	54,84
1115,573	56,6
1115,924	54,74
