Data from L_5__Relative__4__00201.txt Node

Date: Mon Jan 29 18:32:21 CET 2024
User: diatiterra
Spectrometer: HDX00911
Trigger mode: 0
Integration Time (sec): 6,000000E-3
Scans to average: 2
Nonlinearity correction enabled: false
Boxcar width: 0
Storing dark spectrum: false
XAxis mode: Wavelengths
Number of Pixels in Spectrum: 2068
>>>>>Begin Spectral Data<<<<<
194,468	105,88
195,025	69,03
195,581	101,06
196,138	92,31
196,694	83,33
197,251	74,22
197,807	70
198,363	68
198,919	60,14
199,474	66,79
200,03	66,18
200,586	56,8
201,141	64,79
201,696	56,75
202,251	62,36
202,806	57,52
203,361	57,54
203,916	67,47
204,471	62,32
205,025	61,43
205,58	60,93
206,134	57,04
206,688	56,16
207,242	62,59
207,796	58,64
208,35	56,68
208,904	63,73
209,457	63,54
210,011	55,94
210,564	63,19
211,117	58,45
211,67	61,27
212,223	60,27
212,776	68,54
213,329	51,2
213,881	54,64
214,434	53,1
214,986	50,84
215,538	55,68
216,09	55,74
216,642	66,67
217,194	59,27
217,746	61,62
218,297	55,37
218,849	56,07
219,4	62,94
219,951	69,45
220,502	62,02
221,053	54,23
221,604	58,39
222,155	66,26
222,705	54,52
223,256	67,99
223,806	60,54
224,356	65,22
224,906	58,15
225,456	56,9
226,006	53,02
226,556	64,96
227,106	57,69
227,655	53,66
228,204	52,96
228,754	60,69
229,303	56,61
229,852	52,61
230,401	56,27
230,949	77,04
231,498	64,93
232,047	62,96
232,595	59,57
233,143	54,92
233,691	66
234,239	62,31
234,787	53,5
235,335	60,88
235,883	65,59
236,43	61,85
236,978	63,27
237,525	63,81
238,072	59,78
238,619	54,11
239,166	60,27
239,713	63,57
240,26	62,17
240,806	63,83
241,353	63,6
241,899	50,81
242,445	63,29
242,991	59,23
243,537	57,43
244,083	61,82
244,629	61,15
245,174	58,58
245,72	62,88
246,265	61,84
246,81	62,04
247,355	58,82
247,9	64,01
248,445	65,17
248,99	58,13
249,534	58,54
250,079	65,3
250,623	57,63
251,168	64,77
251,712	63,12
252,256	64,78
252,8	65,28
253,343	63,38
253,887	58,84
254,43	62,08
254,974	62,94
255,517	61,07
256,06	66,1
256,603	66,42
257,146	62,96
257,689	67,09
258,232	73,56
258,774	63,47
259,317	61,17
259,859	63,1
260,401	68,18
260,943	62,69
261,485	61,7
262,027	63,1
262,569	56,77
263,11	60,29
263,652	60,29
264,193	65
264,734	57,94
265,275	64,26
265,816	66,91
266,357	57,55
266,898	54,61
267,438	56,47
267,979	65,09
268,519	64,98
269,059	59,22
269,6	63,51
270,14	58,75
270,68	61,69
271,219	66,32
271,759	57,84
272,298	58,91
272,838	61,63
273,377	63,33
273,916	56,32
274,455	61,3
274,994	55,04
275,533	62,12
276,072	58,65
276,61	58,7
277,149	53,99
277,687	65,12
278,225	57,53
278,763	66,67
279,301	62,26
279,839	65,94
280,377	59,12
280,914	68,5
281,452	70,33
281,989	65,53
282,526	57,35
283,064	57,29
283,601	64,02
284,137	62,41
284,674	69,81
285,211	54,68
285,747	61,02
286,284	61,4
286,82	65,6
287,356	57,73
287,892	60,7
288,428	56,95
288,964	60,29
289,5	60,54
290,035	61,87
290,571	66,42
291,106	66,91
291,641	56,7
292,176	69,55
292,711	57,93
293,246	59,21
293,781	66,54
294,315	55,51
294,85	64,96
295,384	69,63
295,918	60,28
296,453	54,42
296,987	67,59
297,52	56,85
298,054	56,62
298,588	62,2
299,121	51,65
299,655	58,95
300,188	55,51
300,721	55,52
301,254	62,99
301,787	58,94
302,32	57,58
302,853	56,79
303,385	60,07
303,918	55,79
304,45	59,46
304,982	60,16
305,514	59,78
306,046	49,47
306,578	58,57
307,11	59,85
307,641	58,18
308,173	50,93
308,704	65,52
309,236	59,93
309,767	48,33
310,298	54,01
310,829	63,88
311,359	56,58
311,89	57,3
312,421	55,8
312,951	57,45
313,481	70,68
314,012	56,41
314,542	61,99
315,072	52
315,601	60,5
316,131	56,2
316,661	66,25
317,19	55,87
317,72	67,03
318,249	55,74
318,778	62,74
319,307	54,39
319,836	59,06
320,365	65,15
320,893	65,6
321,422	67,91
321,95	60,74
322,479	66,09
323,007	62,32
323,535	61,51
324,063	60,82
324,591	53,33
325,118	58,39
325,646	59,62
326,173	62,86
326,701	63,27
327,228	57,51
327,755	55,91
328,282	56,6
328,809	57,04
329,336	58,48
329,862	66,92
330,389	57,34
330,915	62,77
331,441	52,88
331,968	56,7
332,494	51,17
333,02	61,68
333,545	61,37
334,071	54
334,597	54,73
335,122	55,18
335,648	60,81
336,173	55,78
336,698	51,37
337,223	53,92
337,748	56,14
338,272	51,82
338,797	59,22
339,322	53,16
339,846	59,77
340,37	43,22
340,894	57,53
341,419	54,36
341,942	51,34
342,466	57
342,99	50,46
343,514	50,97
344,037	49,18
344,56	47,34
345,084	49,21
345,607	51,98
346,13	52,62
346,653	46,54
347,175	53,55
347,698	48,21
348,221	48,55
348,743	54,81
349,265	55,06
349,787	53,43
350,309	52,34
350,831	46,57
351,353	48,41
351,875	45,51
352,397	48,21
352,918	52,54
353,439	53,66
353,961	46,48
354,482	52,25
355,003	50,13
355,524	47,7
356,044	49,6
356,565	46,63
357,086	47,33
357,606	45,78
358,126	47,2
358,646	44,28
359,167	50,86
359,687	44,1
360,206	46,02
360,726	43,31
361,246	48,67
361,765	43,86
362,285	45,26
362,804	43,11
363,323	42,43
363,842	46,43
364,361	42,42
364,88	46,2
365,398	43,71
365,917	43,53
366,435	44,64
366,954	40,48
367,472	43,92
367,99	43,74
368,508	42,58
369,026	43,22
369,544	40,18
370,061	40,95
370,579	42,78
371,096	42,34
371,613	45,32
372,131	41,2
372,648	46,39
373,165	45,41
373,681	41,33
374,198	39,18
374,715	46,18
375,231	37,68
375,747	41,98
376,264	38,98
376,78	39,55
377,296	39,87
377,812	39,47
378,327	37,48
378,843	39,44
379,359	36,67
379,874	34,7
380,389	40,03
380,905	35,54
381,42	36,42
381,935	36,67
382,449	35,58
382,964	35,81
383,479	37,68
383,993	35,94
384,508	37
385,022	35,01
385,536	33,33
386,05	33,89
386,564	34,31
387,078	31,2
387,592	35,73
388,105	31,76
388,619	32,84
389,132	33,46
389,645	30,82
390,158	30,1
390,671	33
391,184	29,6
391,697	29,48
392,21	31,3
392,722	28,65
393,235	29,95
393,747	30,71
394,259	29,15
394,771	27,72
395,283	25,88
395,795	28,88
396,307	26,49
396,818	27,16
397,33	25,54
397,841	24,89
398,353	25,81
398,864	24,21
399,375	23,3
399,886	24,07
400,397	22,37
400,907	24,72
401,418	22,47
401,928	22,53
402,439	22,56
402,949	23,16
403,459	22,57
403,969	22,33
404,479	20,96
404,989	20,83
405,498	19,01
406,008	18,85
406,517	18,87
407,027	18,27
407,536	18,28
408,045	15,83
408,554	16,63
409,063	16,43
409,572	14,86
410,08	14,99
410,589	15,16
411,097	14,79
411,606	14,29
412,114	14,1
412,622	13,73
413,13	13,77
413,638	12,96
414,145	12,86
414,653	11,73
415,16	12,09
415,668	11,06
416,175	10,85
416,682	10,68
417,189	10,96
417,696	10,87
418,203	10,98
418,71	10,53
419,216	9,86
419,723	9,66
420,229	9,76
420,735	9,58
421,242	9,41
421,748	9,9
422,254	9,97
422,759	9,71
423,265	9,17
423,771	8,99
424,276	9,25
424,781	9,35
425,287	8,77
425,792	9,28
426,297	9,15
426,802	8,98
427,306	8,56
427,811	8,37
428,316	8,99
428,82	8,51
429,324	8,58
429,829	9,05
430,333	8,49
430,837	8,69
431,34	8,6
431,844	8,46
432,348	8,19
432,851	8,38
433,355	7,73
433,858	7,59
434,361	8,23
434,864	7,67
435,367	7,9
435,87	7,97
436,373	8,43
436,876	8,22
437,378	8,18
437,88	8,24
438,383	7,68
438,885	8,13
439,387	7,6
439,889	7,66
440,391	8,16
440,892	7,67
441,394	7,51
441,896	7,73
442,397	7,97
442,898	7,82
443,399	8,38
443,9	8,11
444,401	7,97
444,902	7,74
445,403	8,15
445,903	7,79
446,404	8,1
446,904	7,75
447,405	8,19
447,905	7,81
448,405	8,22
448,905	8,46
449,404	7,89
449,904	7,84
450,404	8,19
450,903	8,5
451,403	8,16
451,902	8,69
452,401	8,42
452,9	7,73
453,399	8,34
453,898	8,14
454,396	8,04
454,895	8,54
455,393	8,4
455,892	8,63
456,39	8,3
456,888	8
457,386	8,27
457,884	8,64
458,382	8,5
458,879	8,54
459,377	8,52
459,874	8,51
460,372	8,31
460,869	8,49
461,366	8,33
461,863	8,27
462,36	8,49
462,857	8,57
463,353	8,5
463,85	8,57
464,346	8,32
464,843	8,45
465,339	7,97
465,835	8,4
466,331	8,17
466,827	8,03
467,323	8,35
467,818	8,29
468,314	8,44
468,809	8,23
469,305	8,24
469,8	8,38
470,295	8,33
470,79	8,7
471,285	8,27
471,78	8,34
472,274	8,42
472,769	8,49
473,263	8,54
473,758	8,43
474,252	8,51
474,746	8,42
475,24	8,22
475,734	8,41
476,228	8,62
476,721	8,63
477,215	8,65
477,708	8,63
478,202	8,43
478,695	8,29
479,188	8,35
479,681	8,42
480,174	8,52
480,667	8,42
481,159	8,56
481,652	8,5
482,144	8,59
482,637	8,47
483,129	8,63
483,621	8,38
484,113	9,08
484,605	8,65
485,097	8,67
485,588	8,76
486,08	8,92
486,571	9,09
487,063	8,61
487,554	8,82
488,045	8,85
488,536	8,96
489,027	8,91
489,518	9,25
490,008	9,07
490,499	9,12
490,989	8,84
491,48	8,61
491,97	8,95
492,46	9,02
492,95	9,3
493,44	9,2
493,93	9,57
494,419	9,46
494,909	9,66
495,398	9,7
495,888	9,62
496,377	9,66
496,866	9,49
497,355	9,87
497,844	10,04
498,333	9,97
498,821	9,9
499,31	10,4
499,798	10,48
500,287	10,84
500,775	10,73
501,263	10,95
501,751	10,75
502,239	10,87
502,727	11,67
503,215	11,41
503,702	11,54
504,19	11,75
504,677	11,93
505,164	12,15
505,651	12,17
506,139	12,65
506,625	12,64
507,112	12,79
507,599	13,2
508,086	13,29
508,572	13,58
509,058	13,71
509,545	14,21
510,031	14,32
510,517	14,72
511,003	14,84
511,489	15,24
511,974	15,76
512,46	15,6
512,946	16,43
513,431	16,56
513,916	16,73
514,401	17,32
514,887	17,51
515,371	17,95
515,856	18,22
516,341	18,55
516,826	19,42
517,31	19,51
517,795	19,85
518,279	20,09
518,763	20,53
519,247	21
519,731	22,08
520,215	21,45
520,699	22,25
521,182	22,31
521,666	23,15
522,149	23,19
522,633	23,79
523,116	24,27
523,599	24,66
524,082	24,76
524,565	25,57
525,048	25,47
525,53	25,91
526,013	26,54
526,495	26,49
526,978	26,67
527,46	27,51
527,942	27,52
528,424	27,76
528,906	27,97
529,388	28,69
529,87	28,9
530,351	29,28
530,833	29,22
531,314	29,59
531,795	30
532,277	29,66
532,758	30,06
533,238	30,44
533,719	30,24
534,2	31,3
534,681	30,56
535,161	31,43
535,642	31,17
536,122	31,31
536,602	31,52
537,082	31,59
537,562	32,2
538,042	31,65
538,522	31,55
539,001	31,79
539,481	31,88
539,96	31,8
540,44	32,41
540,919	32,35
541,398	32,04
541,877	32,36
542,356	32,49
542,835	32,27
543,313	32,44
543,792	32,34
544,27	32,3
544,749	32,45
545,227	32,24
545,705	32,26
546,183	32,51
546,661	32,91
547,139	32,42
547,616	32,82
548,094	32,72
548,571	32,79
549,049	32,8
549,526	32,98
550,003	33,24
550,48	33,21
550,957	33,18
551,434	32,81
551,911	33,26
552,387	33,26
552,864	32,97
553,34	33,38
553,817	33,36
554,293	33,29
554,769	33,23
555,245	33,1
555,721	33,2
556,197	33,42
556,672	33,45
557,148	32,94
557,623	33,12
558,099	32,84
558,574	32,92
559,049	33,25
559,524	33,08
559,999	33,07
560,474	32,16
560,948	32,79
561,423	32,75
561,897	32,18
562,372	32,55
562,846	32,4
563,32	32,19
563,794	31,78
564,268	31,63
564,742	31,29
565,216	31,49
565,69	30,74
566,163	31,01
566,636	30,95
567,11	30,49
567,583	30,43
568,056	30,42
568,529	30,31
569,002	29,97
569,475	29,5
569,947	29,29
570,42	29,08
570,892	28,82
571,365	28,59
571,837	28,49
572,309	28,51
572,781	28,16
573,253	28,13
573,725	27,66
574,197	27,42
574,668	27,43
575,14	27,21
575,611	27,05
576,082	26,4
576,554	26,48
577,025	26,48
577,496	26
577,967	25,73
578,437	25,76
578,908	25,58
579,379	25,16
579,849	25,27
580,319	25,04
580,79	24,73
581,26	24,94
581,73	24,93
582,2	24,97
582,669	24,28
583,139	24,49
583,609	24,12
584,078	23,89
584,548	23,62
585,017	23,66
585,486	23,4
585,955	23,47
586,424	23,56
586,893	23,51
587,362	23,15
587,83	23,48
588,299	22,75
588,767	22,87
589,236	22,71
589,704	22,66
590,172	22,83
590,64	22,42
591,108	22,31
591,576	22,2
592,043	22,03
592,511	22,11
592,978	22,23
593,446	21,95
593,913	21,94
594,38	21,82
594,847	22,03
595,314	21,71
595,781	21,53
596,248	21,73
596,715	21,65
597,181	21,43
597,647	21,68
598,114	21,37
598,58	21,54
599,046	21,31
599,512	21,53
599,978	21,44
600,444	21,33
600,91	21,27
601,375	21,1
601,841	20,85
602,306	21,07
602,771	21,07
603,236	20,95
603,702	20,93
604,167	20,58
604,631	20,61
605,096	20,5
605,561	20,58
606,025	20,41
606,49	20,42
606,954	20,06
607,418	20,23
607,882	20,09
608,347	19,81
608,81	19,73
609,274	19,81
609,738	19,7
610,202	19,59
610,665	19,43
611,128	19,28
611,592	19,25
612,055	19,12
612,518	18,72
612,981	18,88
613,444	18,69
613,907	18,6
614,369	18,49
614,832	18,52
615,294	18,28
615,757	18,21
616,219	18,06
616,681	18,03
617,143	17,96
617,605	17,76
618,067	17,72
618,529	17,39
618,99	17,63
619,452	17,53
619,913	17,41
620,375	17,19
620,836	17,12
621,297	17,29
621,758	16,94
622,219	16,91
622,68	16,96
623,14	16,86
623,601	16,53
624,061	16,91
624,522	16,74
624,982	16,68
625,442	16,47
625,902	16,57
626,362	16,38
626,822	16,56
627,282	16,43
627,742	16,28
628,201	16,55
628,661	16,46
629,12	16,37
629,579	16,33
630,038	16,38
630,497	16,44
630,956	16,39
631,415	16,29
631,874	16,27
632,332	16,17
632,791	15,95
633,249	16,01
633,708	15,97
634,166	15,94
634,624	15,91
635,082	15,82
635,54	15,57
635,998	15,51
636,455	15,37
636,913	15,48
637,37	15,32
637,828	15,1
638,285	14,98
638,742	14,79
639,199	14,82
639,656	14,63
640,113	14,54
640,57	14,18
641,027	14,06
641,483	13,85
641,94	13,76
642,396	13,64
642,852	13,59
643,309	13,35
643,765	13,06
644,221	13,02
644,676	12,99
645,132	12,57
645,588	12,58
646,043	12,32
646,499	12,23
646,954	12,24
647,409	11,8
647,864	11,79
648,319	11,7
648,774	11,52
649,229	11,57
649,684	11,45
650,139	11,29
650,593	11,17
651,047	11,37
651,502	11,22
651,956	11,01
652,41	10,95
652,864	11,01
653,318	10,86
653,772	10,77
654,225	10,65
654,679	10,64
655,133	10,66
655,586	10,64
656,039	10,43
656,492	10,39
656,946	10,31
657,399	10,26
657,851	10,08
658,304	10
658,757	9,95
659,209	9,82
659,662	9,84
660,114	9,64
660,567	9,61
661,019	9,45
661,471	9,3
661,923	9,2
662,375	9,16
662,826	9,06
663,278	8,96
663,73	8,91
664,181	8,9
664,632	8,78
665,084	8,58
665,535	8,58
665,986	8,54
666,437	8,55
666,888	8,39
667,338	8,37
667,789	8,42
668,24	8,31
668,69	8,36
669,14	8,29
669,591	8,28
670,041	8,17
670,491	8,27
670,941	8,25
671,391	8,21
671,84	8,2
672,29	8,21
672,74	8,28
673,189	8,28
673,638	8,41
674,088	8,3
674,537	8,27
674,986	8,31
675,435	8,42
675,883	8,55
676,332	8,5
676,781	8,72
677,229	8,68
677,678	8,63
678,126	8,98
678,574	8,77
679,022	9
679,47	8,91
679,918	8,97
680,366	9,07
680,814	9,29
681,261	9,2
681,709	9,38
682,156	9,43
682,604	9,55
683,051	9,61
683,498	9,88
683,945	9,89
684,392	10,02
684,839	10,24
685,286	10,39
685,732	10,6
686,179	10,9
686,625	11,01
687,071	11,38
687,518	11,52
687,964	11,85
688,41	12,14
688,856	12,49
689,301	12,76
689,747	13,21
690,193	13,71
690,638	14,1
691,084	14,64
691,529	15
691,974	15,76
692,419	16,52
692,864	17,08
693,309	17,47
693,754	18,16
694,199	19,02
694,643	19,7
695,088	20,32
695,532	21,09
695,977	21,76
696,421	22,46
696,865	23,19
697,309	24,2
697,753	24,69
698,197	25,58
698,64	26,17
699,084	26,83
699,527	27,67
699,971	28,39
700,414	29,14
700,857	29,68
701,3	30,62
701,743	31,29
702,186	31,81
702,629	32,76
703,072	33,21
703,515	33,92
703,957	34,72
704,399	35,39
704,842	35,7
705,284	36,48
705,726	37
706,168	37,63
706,61	37,84
707,052	38,83
707,494	39,09
707,935	39,81
708,377	40,32
708,818	40,95
709,26	41,53
709,701	41,98
710,142	42,59
710,583	42,82
711,024	43,58
711,465	43,96
711,905	44,41
712,346	44,68
712,787	45,52
713,227	46,02
713,667	46,48
714,108	46,86
714,548	47,31
714,988	47,64
715,428	47,99
715,868	48,31
716,307	49,18
716,747	49,62
717,186	49,7
717,626	50,03
718,065	50,69
718,504	50,7
718,944	50,91
719,383	51,32
719,822	51,87
720,261	52,15
720,699	52,65
721,138	52,94
721,576	53,4
722,015	53,7
722,453	53,73
722,892	54,3
723,33	53,96
723,768	54,85
724,206	55,1
724,644	55,21
725,081	55,54
725,519	55,9
725,957	55,73
726,394	56,19
726,832	56,42
727,269	56,45
727,706	56,97
728,143	57,19
728,58	57,33
729,017	57,23
729,454	57,42
729,89	57,6
730,327	58,05
730,764	57,96
731,2	58,02
731,636	58,27
732,072	58,13
732,509	58,64
732,945	58,82
733,38	58,92
733,816	59,08
734,252	59,09
734,688	59,37
735,123	59,12
735,559	59,28
735,994	59,69
736,429	59,33
736,864	59,67
737,299	59,27
737,734	59,84
738,169	59,85
738,604	60,15
739,038	59,77
739,473	60,47
739,907	60,04
740,342	60,07
740,776	60,06
741,21	60,15
741,644	60,53
742,078	60,08
742,512	60,78
742,946	59,94
743,379	60,18
743,813	60,5
744,246	60,52
744,68	60,03
745,113	60,28
745,546	60,62
745,979	60,03
746,412	60,3
746,845	60,25
747,278	60,18
747,711	60,45
748,143	60,15
748,576	60,53
749,008	60,46
749,441	60,25
749,873	60,35
750,305	60,22
750,737	59,83
751,169	60,06
751,601	60,24
752,032	59,83
752,464	60,05
752,896	60,02
753,327	60,2
753,758	59,93
754,19	60,19
754,621	59,8
755,052	59,86
755,483	59,8
755,914	60,03
756,344	59,75
756,775	59,84
757,206	60,08
757,636	59,68
758,066	60,05
758,497	59,99
758,927	59,62
759,357	59,88
759,787	59,52
760,217	59,53
760,647	59,46
761,076	59,69
761,506	59,43
761,935	59,64
762,365	59,51
762,794	59,01
763,223	59,46
763,653	59,66
764,082	59,43
764,51	59,58
764,939	59,41
765,368	59,38
765,797	59,05
766,225	59,05
766,654	59,2
767,082	59,43
767,51	59,16
767,938	59,18
768,367	58,9
768,795	58,87
769,222	59,22
769,65	58,85
770,078	58,82
770,505	58,99
770,933	58,96
771,36	58,92
771,788	59,13
772,215	59,14
772,642	59,1
773,069	58,66
773,496	58,74
773,923	58,86
774,349	58,48
774,776	58,62
775,203	58,64
775,629	58,96
776,055	58,82
776,482	58,84
776,908	58,45
777,334	58,53
777,76	58,76
778,186	58,89
778,611	58,57
779,037	58,58
779,463	58,44
779,888	58,74
780,314	58,73
780,739	58,34
781,164	58,34
781,589	58,46
782,014	58,51
782,439	58,4
782,864	58,38
783,289	58,65
783,713	58,17
784,138	58,25
784,562	58,55
784,987	58,37
785,411	58,09
785,835	58,53
786,259	58,01
786,683	58,19
787,107	58,33
787,531	57,97
787,954	58,47
788,378	58,21
788,802	58,07
789,225	58,09
789,648	58,19
790,071	58,44
790,495	58,42
790,918	57,92
791,34	58,06
791,763	58,22
792,186	58,23
792,609	58,3
793,031	58,09
793,454	58,13
793,876	58,26
794,298	57,93
794,721	57,83
795,143	57,91
795,565	57,9
795,986	57,94
796,408	58,68
796,83	57,96
797,252	57,87
797,673	58
798,094	57,95
798,516	57,94
798,937	57,55
799,358	57,95
799,779	57,96
800,2	58,14
800,621	57,97
801,042	57,99
801,462	57,96
801,883	57,88
802,303	57,97
802,724	57,87
803,144	58,1
803,564	57,85
803,984	57,83
804,404	57,7
804,824	58,21
805,244	57,87
805,664	57,85
806,084	57,77
806,503	57,85
806,923	57,89
807,342	57,93
807,761	57,75
808,18	57,77
808,599	57,53
809,018	57,77
809,437	57,74
809,856	57,91
810,275	57,96
810,693	57,82
811,112	57,8
811,53	58,05
811,949	57,76
812,367	57,61
812,785	57,7
813,203	57,73
813,621	57,82
814,039	57,71
814,457	57,87
814,874	57,64
815,292	57,76
815,709	57,99
816,127	57,22
816,544	58,2
816,961	57,83
817,378	58,24
817,795	57,81
818,212	57,74
818,629	57,66
819,046	58,16
819,462	57,94
819,879	58,02
820,295	57,41
820,712	57,53
821,128	57,75
821,544	57,74
821,96	57,63
822,376	57,65
822,792	57,47
823,208	57,43
823,624	57,66
824,039	57,36
824,455	58,21
824,87	57,77
825,286	57,8
825,701	57,83
826,116	57,58
826,531	57,85
826,946	57,67
827,361	57,58
827,776	57,86
828,19	57,52
828,605	57,68
829,02	57,31
829,434	57,56
829,848	57,49
830,263	57,7
830,677	57,29
831,091	57,93
831,505	57,23
831,919	57,96
832,332	57,75
832,746	58
833,16	57,19
833,573	57,42
833,987	57,39
834,4	57,2
834,813	57,58
835,226	57,47
835,639	57,5
836,052	57,65
836,465	57,5
836,878	57,38
837,29	57,3
837,703	57,4
838,116	57,26
838,528	57,03
838,94	57,35
839,352	57,57
839,765	57,22
840,177	57,34
840,589	57,4
841	57,55
841,412	57,57
841,824	57,29
842,235	57,29
842,647	57,39
843,058	57,5
843,47	57,29
843,881	57,2
844,292	57,06
844,703	57,42
845,114	57,31
845,525	57,44
845,935	57,18
846,346	57,06
846,757	57,27
847,167	57,91
847,577	57,36
847,988	57,49
848,398	57,45
848,808	57,32
849,218	57,4
849,628	57,34
850,038	57,33
850,448	57,37
850,857	57,38
851,267	57,36
851,676	57,5
852,086	57,39
852,495	57,23
852,904	57,56
853,313	57,59
853,722	57,12
854,131	56,93
854,54	57,52
854,949	57,43
855,357	57,21
855,766	57,48
856,174	57,15
856,583	57,11
856,991	56,86
857,399	57,18
857,807	56,97
858,215	57,23
858,623	56,96
859,031	57,27
859,439	56,93
859,846	57,35
860,254	57,41
860,661	57,23
861,069	57,52
861,476	57,58
861,883	57,51
862,29	56,97
862,697	57,14
863,104	57,53
863,511	57,4
863,918	56,76
864,325	57,01
864,731	57,18
865,138	56,92
865,544	57,17
865,95	57,27
866,357	57,2
866,763	57,38
867,169	57,17
867,575	57,09
867,98	56,88
868,386	57,14
868,792	57,6
869,197	57,79
869,603	56,89
870,008	57,25
870,414	56,8
870,819	57,42
871,224	56,98
871,629	56,98
872,034	57,01
872,439	57,22
872,844	57
873,248	57,21
873,653	57,2
874,057	57,48
874,462	56,97
874,866	57,17
875,27	57,05
875,674	56,97
876,078	57,27
876,482	57,43
876,886	57,1
877,29	57,27
877,694	57,19
878,097	57,2
878,501	57,3
878,904	57,2
879,308	57,14
879,711	57,37
880,114	57,13
880,517	57,03
880,92	57,16
881,323	57,25
881,726	57,22
882,128	57,47
882,531	57,47
882,934	56,94
883,336	56,74
883,738	57,08
884,141	57,08
884,543	57,35
884,945	56,92
885,347	57,06
885,749	57,25
886,151	56,89
886,552	57,14
886,954	57,15
887,355	57,61
887,757	57,01
888,158	56,84
888,56	57,32
888,961	57,2
889,362	57,19
889,763	57,16
890,164	57,6
890,565	57,46
890,965	56,86
891,366	57
891,767	57,34
892,167	57,07
892,567	56,99
892,968	57,86
893,368	57,26
893,768	57,4
894,168	57,22
894,568	57,21
894,968	57,18
895,368	56,73
895,767	57,09
896,167	56,95
896,566	57,48
896,966	57,03
897,365	57,32
897,764	57,09
898,164	57,32
898,563	56,77
898,962	57,26
899,361	57,15
899,759	56,94
900,158	57,32
900,557	57,49
900,955	56,69
901,354	57,06
901,752	56,74
902,15	57,14
902,548	56,95
902,947	57,16
903,345	57,56
903,742	57,16
904,14	56,78
904,538	57,18
904,936	56,81
905,333	57,44
905,731	57,48
906,128	56,59
906,525	57,07
906,923	57,47
907,32	57,11
907,717	57,18
908,114	57,39
908,511	56,62
908,907	57,37
909,304	57,39
909,701	56,95
910,097	57,29
910,494	56,93
910,89	57,42
911,286	57,13
911,682	57
912,078	57,42
912,474	56,8
912,87	57,01
913,266	57,16
913,662	56,92
914,058	56,75
914,453	57,24
914,849	57,04
915,244	57,1
915,639	57,36
916,034	57,17
916,43	57,03
916,825	56,81
917,22	56,97
917,614	56,84
918,009	57,09
918,404	57,13
918,798	57,45
919,193	56,71
919,587	57,38
919,982	56,59
920,376	56,98
920,77	57,51
921,164	57,44
921,558	57,05
921,952	57,17
922,346	57,09
922,74	57,42
923,133	57,19
923,527	56,98
923,92	57,04
924,314	57,18
924,707	57
925,1	56,75
925,493	57,04
925,886	56,76
926,279	57,08
926,672	56,67
927,065	56,93
927,457	57,03
927,85	57,22
928,243	56,31
928,635	56,37
929,027	56,6
929,42	56,94
929,812	57,47
930,204	57,07
930,596	56,83
930,988	56,94
931,379	56,24
931,771	56,94
932,163	56,98
932,554	56,85
932,946	56,79
933,337	56,61
933,729	57,38
934,12	56,25
934,511	56,99
934,902	57,11
935,293	56,82
935,684	56,87
936,075	56,12
936,465	56,73
936,856	56,21
937,246	56,64
937,637	56,36
938,027	56,26
938,417	56,1
938,808	57,17
939,198	56,94
939,588	56,37
939,978	56,58
940,368	55,73
940,757	56,29
941,147	57,26
941,537	55,54
941,926	56,68
942,315	56,25
942,705	56,31
943,094	55,98
943,483	56,13
943,872	56,68
944,261	56,54
944,65	55,91
945,039	56,39
945,428	56,55
945,816	56,14
946,205	56,54
946,593	55,93
946,982	56,27
947,37	56
947,758	56,14
948,146	56,37
948,534	56,13
948,922	56,02
949,31	56,53
949,698	55,66
950,086	55,5
950,473	55,52
950,861	55,31
951,248	55,82
951,636	55,84
952,023	55,49
952,41	54,87
952,797	54,94
953,184	55,78
953,571	55,19
953,958	55,4
954,345	55,19
954,731	54,72
955,118	55,34
955,505	55,24
955,891	55,02
956,277	55,07
956,664	55,48
957,05	55,06
957,436	55,74
957,822	55,09
958,208	55,39
958,594	54,11
958,979	55,08
959,365	54,96
959,751	55,05
960,136	54,95
960,522	54,93
960,907	54,91
961,292	55,18
961,677	54,85
962,062	55,52
962,447	54,68
962,832	54,99
963,217	55,05
963,602	55
963,986	55,16
964,371	54,43
964,756	54,35
965,14	54,74
965,524	54,56
965,908	55,12
966,293	54,8
966,677	54,94
967,061	54,51
967,445	54,77
967,828	54,77
968,212	54,85
968,596	54,5
968,979	54,9
969,363	54,75
969,746	54,63
970,129	55,01
970,513	54,61
970,896	55,6
971,279	54,94
971,662	54,02
972,045	54,97
972,428	54,55
972,81	54,11
973,193	54,36
973,575	54,69
973,958	54,58
974,34	55,23
974,723	55,16
975,105	54,76
975,487	55
975,869	54,28
976,251	54,7
976,633	55,17
977,015	55,19
977,396	55,11
977,778	55,35
978,16	55,19
978,541	54,69
978,922	54,72
979,304	55,24
979,685	54,52
980,066	54,94
980,447	55,26
980,828	54,99
981,209	55,33
981,59	54,88
981,97	54,43
982,351	55,6
982,732	55,14
983,112	55,57
983,493	54,61
983,873	54,82
984,253	54,99
984,633	54,72
985,013	55,61
985,393	55,01
985,773	54,48
986,153	55,05
986,533	54,94
986,912	55,26
987,292	54,86
987,671	55,31
988,051	55,21
988,43	54,9
988,809	55,39
989,188	55,26
989,567	56,11
989,946	55,16
990,325	55,26
990,704	55,54
991,083	55,2
991,461	54,88
991,84	55,18
992,218	55,44
992,597	54,66
992,975	55,81
993,353	55,19
993,732	55,47
994,11	55,66
994,488	55,22
994,866	55,46
995,243	55,56
995,621	54,89
995,999	54,63
996,376	55,72
996,754	55,95
997,131	55,77
997,509	55,52
997,886	55,15
998,263	55,65
998,64	54,81
999,017	55,41
999,394	55,38
999,771	55,3
1000,148	55,4
1000,524	55,58
1000,901	55,99
1001,277	54,96
1001,654	55,38
1002,03	55,32
1002,406	55,37
1002,783	55,54
1003,159	55,58
1003,535	55,59
1003,911	54,9
1004,286	55,78
1004,662	55,29
1005,038	55,73
1005,414	56,01
1005,789	55,54
1006,164	56,17
1006,54	55,78
1006,915	55,36
1007,29	55,66
1007,665	56,06
1008,04	55,2
1008,415	56,17
1008,79	56,58
1009,165	56,36
1009,54	55,32
1009,914	56,03
1010,289	56,36
1010,663	55,91
1011,038	55,77
1011,412	56,21
1011,786	55,97
1012,16	55,69
1012,535	56,21
1012,909	56,72
1013,282	55,97
1013,656	56,06
1014,03	56,15
1014,404	56,02
1014,777	56,25
1015,151	55,82
1015,524	56,32
1015,897	56,79
1016,271	56,57
1016,644	55,83
1017,017	55,53
1017,39	56,47
1017,763	55,69
1018,136	55,49
1018,508	56,95
1018,881	55,77
1019,254	56,5
1019,626	56,39
1019,999	56,91
1020,371	55,73
1020,743	56,13
1021,116	56,45
1021,488	55,74
1021,86	55,98
1022,232	56,96
1022,604	56,61
1022,975	56,88
1023,347	56,42
1023,719	55,98
1024,09	56,02
1024,462	56,16
1024,833	56,51
1025,204	55,96
1025,576	57,27
1025,947	56,98
1026,318	56,89
1026,689	57,05
1027,06	56,17
1027,431	56
1027,801	57,03
1028,172	56,95
1028,543	57,29
1028,913	55,49
1029,284	55,84
1029,654	56,02
1030,024	56,45
1030,394	56,55
1030,764	57
1031,135	57,34
1031,504	56,47
1031,874	56,53
1032,244	57,11
1032,614	56,27
1032,983	56,55
1033,353	56,2
1033,722	56,69
1034,092	56,39
1034,461	56,67
1034,83	56,13
1035,2	56,7
1035,569	57,3
1035,938	56,38
1036,307	57,44
1036,675	56,76
1037,044	56,99
1037,413	56,39
1037,781	57,57
1038,15	56,36
1038,518	56,94
1038,887	57,63
1039,255	56,64
1039,623	55,97
1039,991	57,37
1040,359	55,98
1040,727	57,41
1041,095	56,03
1041,463	56,55
1041,831	56,09
1042,198	56,7
1042,566	56,56
1042,933	56,09
1043,301	56,86
1043,668	56,97
1044,035	57,06
1044,402	56,91
1044,77	56,5
1045,137	56,49
1045,503	56,87
1045,87	58,11
1046,237	56,29
1046,604	57,2
1046,97	57,55
1047,337	57,15
1047,703	56,52
1048,07	56,73
1048,436	57,53
1048,802	58
1049,168	57,84
1049,534	56,89
1049,9	56,78
1050,266	57,14
1050,632	57,1
1050,998	57,58
1051,364	56,54
1051,729	57,16
1052,095	56,11
1052,46	57,53
1052,825	56,87
1053,191	57,09
1053,556	57,77
1053,921	56,77
1054,286	57,35
1054,651	57,53
1055,016	56,96
1055,381	57,09
1055,745	57,06
1056,11	58,31
1056,475	57,05
1056,839	57,67
1057,203	57,82
1057,568	57,71
1057,932	57,67
1058,296	56,43
1058,66	56,63
1059,024	57,32
1059,388	58,24
1059,752	58,27
1060,116	57,67
1060,48	57,4
1060,843	58,48
1061,207	58,03
1061,57	58,11
1061,934	58,43
1062,297	57,86
1062,66	58,56
1063,023	56,87
1063,386	56,5
1063,749	56,91
1064,112	56,08
1064,475	56,94
1064,838	57,54
1065,201	57,21
1065,563	56,91
1065,926	57,47
1066,288	58,36
1066,651	55,8
1067,013	56,33
1067,375	56,89
1067,737	58,08
1068,099	58,41
1068,461	56,11
1068,823	57,35
1069,185	57,88
1069,547	55,87
1069,909	56,52
1070,27	58,65
1070,632	57,68
1070,993	57,41
1071,355	56,27
1071,716	57,19
1072,077	57,09
1072,438	60
1072,799	57,85
1073,16	57,71
1073,521	57,34
1073,882	55,82
1074,243	57,4
1074,603	58,03
1074,964	57,04
1075,325	58,88
1075,685	57,15
1076,045	57,69
1076,406	56,8
1076,766	57,81
1077,126	55,88
1077,486	57,26
1077,846	57,04
1078,206	58,42
1078,566	57,06
1078,925	56,41
1079,285	56,88
1079,645	58,43
1080,004	56,76
1080,364	56,77
1080,723	57,84
1081,082	57,53
1081,442	56,15
1081,801	58,72
1082,16	58,55
1082,519	59,65
1082,878	56,77
1083,237	56,22
1083,595	59,64
1083,954	57,78
1084,313	57,84
1084,671	59,25
1085,03	57,65
1085,388	55,71
1085,746	57,83
1086,104	56,8
1086,463	58,16
1086,821	56,67
1087,179	58,83
1087,537	58,53
1087,894	56,01
1088,252	57,43
1088,61	58,74
1088,967	58,03
1089,325	58,68
1089,682	57,25
1090,04	58,4
1090,397	56,97
1090,754	59,28
1091,111	59,95
1091,469	58,28
1091,826	58,04
1092,182	58,19
1092,539	57,19
1092,896	56,98
1093,253	57,38
1093,609	60,29
1093,966	57,76
1094,322	58,43
1094,679	55,82
1095,035	57,43
1095,391	57,54
1095,748	57,53
1096,104	58,94
1096,46	58,2
1096,816	57,55
1097,171	57,53
1097,527	57,26
1097,883	55,72
1098,239	58,24
1098,594	58,74
1098,95	58,45
1099,305	56,83
1099,66	58,23
1100,016	58,99
1100,371	58,89
1100,726	58,05
1101,081	57,18
1101,436	56,39
1101,791	56,68
1102,146	56,43
1102,5	55,83
1102,855	58,14
1103,21	57,39
1103,564	59,45
1103,918	57,2
1104,273	60,12
1104,627	58,06
1104,981	56,24
1105,335	57,45
1105,69	56,89
1106,043	57,1
1106,397	57,29
1106,751	58,48
1107,105	58,55
1107,459	56,5
1107,812	56,02
1108,166	56,53
1108,519	58,93
1108,873	60,51
1109,226	57,02
1109,579	61,21
1109,932	56,34
1110,285	57,6
1110,638	59,27
1110,991	59,25
1111,344	55,56
1111,697	58,64
1112,05	58,16
1112,402	60,61
1112,755	58,3
1113,107	54,93
1113,46	57,3
1113,812	61,71
1114,164	59,42
1114,517	58,33
1114,869	74,36
1115,221	69,35
1115,573	66,98
1115,924	64,23
