Data from L_5__Relative__9__00206.txt Node

Date: Mon Jan 29 18:32:57 CET 2024
User: diatiterra
Spectrometer: HDX00911
Trigger mode: 0
Integration Time (sec): 6,000000E-3
Scans to average: 2
Nonlinearity correction enabled: false
Boxcar width: 0
Storing dark spectrum: false
XAxis mode: Wavelengths
Number of Pixels in Spectrum: 2068
>>>>>Begin Spectral Data<<<<<
194,468	62,75
195,025	30,97
195,581	58,51
196,138	58,46
196,694	41,95
197,251	36,44
197,807	40
198,363	35,27
198,919	38,79
199,474	37,14
200,03	31,62
200,586	31,29
201,141	33,71
201,696	26,3
202,251	39,11
202,806	35,34
203,361	34,04
203,916	36,64
204,471	33,1
205,025	27,14
205,58	34,05
206,134	25,19
206,688	30,8
207,242	31,63
207,796	30,85
208,35	25,27
208,904	29,15
209,457	37,91
210,011	34,97
210,564	35,07
211,117	30,28
211,67	31,34
212,223	21,58
212,776	39,33
213,329	31,62
213,881	28,57
214,434	37,24
214,986	28,62
215,538	32,97
216,09	29,18
216,642	38,52
217,194	34,44
217,746	31,31
218,297	27,52
218,849	32,4
219,4	34,27
219,951	35,64
220,502	26,83
221,053	24,45
221,604	35,91
222,155	33,74
222,705	31,1
223,256	37,05
223,806	34,69
224,356	36,59
224,906	26,3
225,456	28,97
226,006	29,87
226,556	36,86
227,106	31,47
227,655	28,92
228,204	36,84
228,754	33,79
229,303	32,54
229,852	29,74
230,401	35,84
230,949	42,02
231,498	33,21
232,047	30,64
232,595	36,17
233,143	31,82
233,691	29,6
234,239	30,97
234,787	30,07
235,335	28,57
235,883	41,22
236,43	34,44
236,978	32
237,525	39,55
238,072	28,41
238,619	28,42
239,166	34,34
239,713	33,46
240,26	46,82
240,806	31,91
241,353	36,4
241,899	33,66
242,445	39,51
242,991	37,28
243,537	38,94
244,083	36
244,629	35,14
245,174	35,82
245,72	31,1
246,265	36,04
246,81	41,97
247,355	28,31
247,9	28,03
248,445	39,66
248,99	28,72
249,534	36,39
250,079	38,06
250,623	31,86
251,168	34,56
251,712	40,43
252,256	38,54
252,8	38,19
253,343	45,86
253,887	37,07
254,43	40,15
254,974	42,66
255,517	45,97
256,06	32,53
256,603	34,72
257,146	38,05
257,689	30,7
258,232	31,42
258,774	34,69
259,317	42,49
259,859	30,63
260,401	46,21
260,943	34,33
261,485	41,84
262,027	32,07
262,569	43,98
263,11	34,66
263,652	34,19
264,193	34,64
264,734	41,27
265,275	36,55
265,816	44,6
266,357	35,25
266,898	31,06
267,438	32,55
267,979	39,27
268,519	39,71
269,059	38,65
269,6	32,28
270,14	35,64
270,68	34,48
271,219	33,68
271,759	29,85
272,298	31,64
272,838	28,29
273,377	38,15
273,916	31,77
274,455	27,2
274,994	38,49
275,533	31,74
276,072	28,57
276,61	37,88
277,149	24,64
277,687	30,6
278,225	34,25
278,763	36,23
279,301	36,6
279,839	37,68
280,377	37,23
280,914	29,3
281,452	41,06
281,989	36,18
282,526	34,05
283,064	40,28
283,601	36,36
284,137	36,5
284,674	35,47
285,211	25,54
285,747	32,2
286,284	28,07
286,82	30,14
287,356	29,9
287,892	36,49
288,428	28,81
288,964	37,55
289,5	35,71
290,035	38,13
290,571	32,84
291,106	28,73
291,641	36,02
292,176	34,21
292,711	36,21
293,246	30,69
293,781	33,46
294,315	28,31
294,85	41,61
295,384	40,37
295,918	35,89
296,453	33,57
296,987	33,45
297,52	37,67
298,054	27,57
298,588	36,22
299,121	35,16
299,655	29,82
300,188	26,24
300,721	41,38
301,254	35,94
301,787	31,3
302,32	40,91
302,853	33,1
303,385	39,93
303,918	38,25
304,45	30,5
304,982	31,08
305,514	35,79
306,046	30,18
306,578	36,07
307,11	31,23
307,641	38,18
308,173	27,51
308,704	40,61
309,236	37,08
309,767	30,42
310,298	36,59
310,829	36,88
311,359	34,16
311,89	35,23
312,421	40,22
312,951	34,55
313,481	34,54
314,012	35,9
314,542	31,16
315,072	33,09
315,601	33,1
316,131	28,47
316,661	35,83
317,19	31,67
317,72	32,97
318,249	35,14
318,778	37,26
319,307	32,77
319,836	36,24
320,365	34,2
320,893	39,72
321,422	36,57
321,95	35,93
322,479	36,68
323,007	40,94
323,535	40
324,063	38,43
324,591	33,67
325,118	33,92
325,646	38,85
326,173	43,93
326,701	32
327,228	38,98
327,755	29,39
328,282	38,11
328,809	32,96
329,336	34,26
329,862	40
330,389	36,18
330,915	30,85
331,441	33,9
331,968	36,08
332,494	29,43
333,02	33,21
333,545	28,52
334,071	36
334,597	28,04
335,122	22,07
335,648	38,83
336,173	32,34
336,698	33,56
337,223	34,47
337,748	35,44
338,272	32,34
338,797	31,72
339,322	24,25
339,846	25
340,37	29,3
340,894	37,67
341,419	29,87
341,942	35,23
342,466	29,35
342,99	30,15
343,514	24,68
344,037	27,21
344,56	28,53
345,084	23,34
345,607	33,43
346,13	26,46
346,653	25,79
347,175	31,29
347,698	27,08
348,221	26,74
348,743	23,03
349,265	25,3
349,787	21,71
350,309	31,13
350,831	28,66
351,353	25,13
351,875	28,93
352,397	28,1
352,918	28,81
353,439	28,73
353,961	25,92
354,482	29,21
355,003	26,54
355,524	28,32
356,044	26,12
356,565	28,93
357,086	25,7
357,606	27,95
358,126	24,82
358,646	22,39
359,167	27,52
359,687	24,29
360,206	26,75
360,726	22,18
361,246	26,27
361,765	23,68
362,285	23,7
362,804	22,89
363,323	23,85
363,842	25,71
364,361	23,81
364,88	21,73
365,398	22,52
365,917	26,28
366,435	24,46
366,954	22,65
367,472	20,47
367,99	21,97
368,508	24,8
369,026	18,8
369,544	22,91
370,061	21,97
370,579	21,39
371,096	21,17
371,613	21,47
372,131	23,42
372,648	24,55
373,165	24,09
373,681	21,02
374,198	19,02
374,715	19,27
375,231	17,97
375,747	20,66
376,264	21,09
376,78	22,65
377,296	18,2
377,812	17,21
378,327	16,89
378,843	18,91
379,359	17,1
379,874	18,17
380,389	20,5
380,905	18,44
381,42	18,28
381,935	18,8
382,449	16,65
382,964	23,02
383,479	18,52
383,993	15,87
384,508	19,56
385,022	18,44
385,536	15,88
386,05	16
386,564	17,42
387,078	16,44
387,592	17,92
388,105	16,13
388,619	15,24
389,132	17,49
389,645	15,55
390,158	16,71
390,671	17,23
391,184	14,84
391,697	14,17
392,21	15,52
392,722	15,02
393,235	14,98
393,747	15,23
394,259	14,98
394,771	12,21
395,283	13,22
395,795	13,74
396,307	13,71
396,818	14,22
397,33	14,06
397,841	14,95
398,353	12,11
398,864	13,25
399,375	11,27
399,886	12,43
400,397	11,66
400,907	12,04
401,418	11,35
401,928	9,94
402,439	10,47
402,949	11,3
403,459	10,9
403,969	10,75
404,479	10,18
404,989	9,55
405,498	9,58
406,008	9,66
406,517	8,6
407,027	8,8
407,536	9,29
408,045	7,89
408,554	7,35
409,063	8,16
409,572	7,65
410,08	7,44
410,589	7,28
411,097	6,77
411,606	6,73
412,114	6,1
412,622	6,61
413,13	6,75
413,638	6,12
414,145	5,65
414,653	5,74
415,16	5,64
415,668	5,91
416,175	5,2
416,682	5,1
417,189	5,2
417,696	5,23
418,203	5,04
418,71	4,86
419,216	5,24
419,723	4,86
420,229	4,72
420,735	5,13
421,242	4,71
421,748	4,93
422,254	4,68
422,759	4,25
423,265	4,68
423,771	4,22
424,276	4,63
424,781	4,25
425,287	4,17
425,792	4,49
426,297	4,15
426,802	4,09
427,306	4,24
427,811	3,74
428,316	4,6
428,82	3,63
429,324	4,16
429,829	4,14
430,333	4,01
430,837	3,83
431,34	3,53
431,844	3,78
432,348	3,67
432,851	3,88
433,355	3,92
433,858	3,26
434,361	3,76
434,864	3,9
435,367	3,94
435,87	4,17
436,373	4,26
436,876	3,45
437,378	3,6
437,88	3,84
438,383	3,59
438,885	4,02
439,387	3,42
439,889	3,48
440,391	3,95
440,892	3,82
441,394	3,7
441,896	3,85
442,397	3,86
442,898	3,95
443,399	4,09
443,9	3,59
444,401	3,93
444,902	3,87
445,403	3,36
445,903	3,52
446,404	3,94
446,904	3,57
447,405	3,72
447,905	3,86
448,405	3,53
448,905	3,74
449,404	3,8
449,904	3,71
450,404	3,82
450,903	3,57
451,403	3,76
451,902	3,55
452,401	3,87
452,9	3,59
453,399	4
453,898	4,03
454,396	3,71
454,895	3,78
455,393	3,59
455,892	3,83
456,39	4,02
456,888	3,66
457,386	3,73
457,884	3,84
458,382	3,93
458,879	3,88
459,377	3,91
459,874	3,73
460,372	3,66
460,869	4
461,366	3,9
461,863	3,66
462,36	3,87
462,857	3,94
463,353	3,81
463,85	3,78
464,346	3,81
464,843	3,86
465,339	3,77
465,835	3,61
466,331	3,42
466,827	3,51
467,323	3,45
467,818	3,65
468,314	3,9
468,809	3,75
469,305	3,69
469,8	3,68
470,295	3,72
470,79	3,8
471,285	3,76
471,78	3,52
472,274	3,63
472,769	3,77
473,263	3,6
473,758	4,01
474,252	3,69
474,746	3,78
475,24	3,61
475,734	3,94
476,228	3,64
476,721	3,72
477,215	3,67
477,708	3,88
478,202	3,84
478,695	3,54
479,188	3,72
479,681	3,74
480,174	3,53
480,667	3,69
481,159	3,69
481,652	3,86
482,144	3,68
482,637	3,6
483,129	3,85
483,621	3,78
484,113	3,87
484,605	3,98
485,097	3,73
485,588	3,81
486,08	3,8
486,571	3,75
487,063	3,65
487,554	3,94
488,045	3,68
488,536	3,77
489,027	3,78
489,518	4,02
490,008	3,94
490,499	3,93
490,989	3,89
491,48	3,98
491,97	3,95
492,46	3,86
492,95	4,11
493,44	4,11
493,93	4,06
494,419	4,03
494,909	4,13
495,398	4,01
495,888	4,13
496,377	4,16
496,866	4,15
497,355	4,12
497,844	4,36
498,333	4,34
498,821	4,15
499,31	4,48
499,798	4,46
500,287	4,54
500,775	4,56
501,263	4,54
501,751	4,66
502,239	4,71
502,727	4,97
503,215	4,98
503,702	5,03
504,19	5,03
504,677	5,14
505,164	5,24
505,651	5,26
506,139	5,26
506,625	5,5
507,112	5,66
507,599	5,59
508,086	5,68
508,572	5,95
509,058	6,07
509,545	6,05
510,031	6,34
510,517	6,28
511,003	6,61
511,489	6,5
511,974	6,58
512,46	6,81
512,946	7,02
513,431	7,32
513,916	7,5
514,401	7,67
514,887	7,72
515,371	7,79
515,856	8,12
516,341	8,39
516,826	8,33
517,31	8,71
517,795	8,76
518,279	8,89
518,763	9,29
519,247	9,3
519,731	9,62
520,215	9,92
520,699	10,25
521,182	10,28
521,666	10,38
522,149	10,75
522,633	10,82
523,116	11,15
523,599	10,99
524,082	11,31
524,565	11,66
525,048	11,82
525,53	12,17
526,013	12,31
526,495	12,46
526,978	12,55
527,46	12,63
527,942	12,97
528,424	12,97
528,906	13,19
529,388	13,07
529,87	13,35
530,351	13,41
530,833	13,81
531,314	14,23
531,795	14,02
532,277	13,91
532,758	14,07
533,238	14,5
533,719	14,46
534,2	14,55
534,681	14,85
535,161	14,59
535,642	14,69
536,122	14,65
536,602	14,82
537,082	15,02
537,562	14,87
538,042	15
538,522	14,88
539,001	15,11
539,481	15,13
539,96	15,1
540,44	15,08
540,919	15,4
541,398	15,37
541,877	15,39
542,356	15,14
542,835	15,35
543,313	15,22
543,792	15,69
544,27	15,14
544,749	15,46
545,227	15,52
545,705	15,67
546,183	15,54
546,661	15,62
547,139	15,75
547,616	15,6
548,094	15,84
548,571	15,6
549,049	15,85
549,526	15,72
550,003	15,53
550,48	15,56
550,957	15,83
551,434	15,85
551,911	15,93
552,387	15,95
552,864	15,89
553,34	15,99
553,817	15,92
554,293	15,88
554,769	16,03
555,245	15,83
555,721	15,97
556,197	15,6
556,672	15,97
557,148	15,76
557,623	15,89
558,099	15,66
558,574	15,64
559,049	15,78
559,524	15,86
559,999	15,82
560,474	15,44
560,948	15,62
561,423	15,37
561,897	15,37
562,372	15,57
562,846	15,31
563,32	15,35
563,794	15,16
564,268	14,92
564,742	14,94
565,216	14,79
565,69	14,87
566,163	14,67
566,636	14,74
567,11	14,37
567,583	14,28
568,056	14,39
568,529	14,18
569,002	14,08
569,475	13,83
569,947	14,07
570,42	13,74
570,892	13,5
571,365	13,6
571,837	13,16
572,309	13,24
572,781	13
573,253	12,91
573,725	12,77
574,197	12,89
574,668	12,61
575,14	12,5
575,611	12,5
576,082	12,34
576,554	12,39
577,025	12,11
577,496	12,05
577,967	12,17
578,437	11,83
578,908	11,69
579,379	11,6
579,849	11,62
580,319	11,6
580,79	11,36
581,26	11,31
581,73	11,22
582,2	11,29
582,669	11,28
583,139	11,14
583,609	11,09
584,078	10,99
584,548	10,83
585,017	10,78
585,486	10,68
585,955	10,76
586,424	10,83
586,893	10,54
587,362	10,54
587,83	10,65
588,299	10,56
588,767	10,45
589,236	10,38
589,704	10,37
590,172	10,39
590,64	10,2
591,108	9,94
591,576	10,36
592,043	10,11
592,511	10,09
592,978	9,8
593,446	9,99
593,913	9,9
594,38	9,78
594,847	9,9
595,314	9,86
595,781	9,89
596,248	9,69
596,715	9,67
597,181	9,64
597,647	9,88
598,114	9,67
598,58	9,62
599,046	9,73
599,512	9,68
599,978	9,67
600,444	9,56
600,91	9,63
601,375	9,7
601,841	9,64
602,306	9,6
602,771	9,46
603,236	9,47
603,702	9,39
604,167	9,26
604,631	9,39
605,096	9,21
605,561	9,31
606,025	9,25
606,49	9,19
606,954	8,92
607,418	9,01
607,882	9
608,347	8,94
608,81	8,81
609,274	8,84
609,738	8,83
610,202	8,7
610,665	8,78
611,128	8,7
611,592	8,73
612,055	8,59
612,518	8,5
612,981	8,42
613,444	8,23
613,907	8,19
614,369	8,12
614,832	8,15
615,294	8,05
615,757	8,08
616,219	7,96
616,681	7,91
617,143	7,9
617,605	7,74
618,067	7,89
618,529	7,77
618,99	7,56
619,452	7,67
619,913	7,66
620,375	7,5
620,836	7,42
621,297	7,51
621,758	7,52
622,219	7,39
622,68	7,29
623,14	7,41
623,601	7,3
624,061	7,29
624,522	7,25
624,982	7,22
625,442	7,33
625,902	7,27
626,362	7,15
626,822	7,16
627,282	7,13
627,742	7,15
628,201	7,2
628,661	7
629,12	7,1
629,579	7,01
630,038	7,18
630,497	6,95
630,956	7,22
631,415	7,12
631,874	7,04
632,332	7,03
632,791	7,03
633,249	7,01
633,708	7,01
634,166	6,81
634,624	6,83
635,082	6,87
635,54	6,9
635,998	6,83
636,455	6,8
636,913	6,75
637,37	6,62
637,828	6,48
638,285	6,4
638,742	6,41
639,199	6,49
639,656	6,37
640,113	6,15
640,57	6,15
641,027	6,1
641,483	6,06
641,94	5,81
642,396	5,98
642,852	5,76
643,309	5,84
643,765	5,65
644,221	5,59
644,676	5,65
645,132	5,41
645,588	5,54
646,043	5,34
646,499	5,25
646,954	5,27
647,409	5,26
647,864	5,14
648,319	5,03
648,774	4,96
649,229	4,98
649,684	4,93
650,139	4,89
650,593	4,83
651,047	4,82
651,502	4,77
651,956	4,68
652,41	4,7
652,864	4,8
653,318	4,65
653,772	4,66
654,225	4,67
654,679	4,64
655,133	4,63
655,586	4,6
656,039	4,54
656,492	4,43
656,946	4,42
657,399	4,43
657,851	4,42
658,304	4,43
658,757	4,32
659,209	4,26
659,662	4,18
660,114	4,22
660,567	4,17
661,019	4,19
661,471	4,06
661,923	3,99
662,375	4,11
662,826	3,98
663,278	3,97
663,73	3,89
664,181	3,97
664,632	3,84
665,084	3,85
665,535	3,84
665,986	3,83
666,437	3,87
666,888	3,81
667,338	3,82
667,789	3,9
668,24	3,8
668,69	3,78
669,14	3,84
669,591	3,77
670,041	3,85
670,491	3,86
670,941	3,89
671,391	3,93
671,84	3,93
672,29	3,98
672,74	3,96
673,189	4,01
673,638	4,04
674,088	4,06
674,537	4,03
674,986	4,17
675,435	4,27
675,883	4,26
676,332	4,33
676,781	4,31
677,229	4,33
677,678	4,47
678,126	4,53
678,574	4,57
679,022	4,65
679,47	4,73
679,918	4,8
680,366	4,83
680,814	4,81
681,261	4,93
681,709	5,05
682,156	5,13
682,604	5,16
683,051	5,22
683,498	5,22
683,945	5,3
684,392	5,33
684,839	5,52
685,286	5,51
685,732	5,73
686,179	5,72
686,625	5,74
687,071	5,85
687,518	5,96
687,964	6,04
688,41	6,16
688,856	6,32
689,301	6,42
689,747	6,68
690,193	6,78
690,638	6,96
691,084	7,22
691,529	7,46
691,974	7,61
692,419	7,93
692,864	8,22
693,309	8,59
693,754	8,76
694,199	9,17
694,643	9,46
695,088	9,65
695,532	10,15
695,977	10,53
696,421	10,78
696,865	11,13
697,309	11,69
697,753	11,77
698,197	12,15
698,64	12,71
699,084	13,01
699,527	13,41
699,971	13,83
700,414	14,09
700,857	14,36
701,3	14,81
701,743	15,1
702,186	15,52
702,629	15,86
703,072	16,05
703,515	16,49
703,957	16,88
704,399	17,15
704,842	17,5
705,284	17,76
705,726	18,13
706,168	18,46
706,61	18,56
707,052	19,05
707,494	19,36
707,935	19,64
708,377	19,94
708,818	20,09
709,26	20,41
709,701	20,61
710,142	21,1
710,583	21,26
711,024	21,5
711,465	21,73
711,905	22,01
712,346	22,25
712,787	22,51
713,227	22,93
713,667	23,02
714,108	23,18
714,548	23,5
714,988	23,77
715,428	23,99
715,868	24,14
716,307	24,44
716,747	24,7
717,186	24,84
717,626	25,04
718,065	25,11
718,504	25,19
718,944	25,59
719,383	25,75
719,822	25,77
720,261	26,29
720,699	26,42
721,138	26,58
721,576	26,76
722,015	26,86
722,453	26,92
722,892	27,43
723,33	27,23
723,768	27,55
724,206	27,47
724,644	27,99
725,081	27,92
725,519	28,03
725,957	28,1
726,394	28,45
726,832	28,61
727,269	28,59
727,706	28,76
728,143	29,01
728,58	28,81
729,017	28,88
729,454	28,84
729,89	29,02
730,327	29,38
730,764	29,26
731,2	29,39
731,636	29,4
732,072	29,44
732,509	29,57
732,945	29,89
733,38	29,83
733,816	29,75
734,252	30,03
734,688	29,98
735,123	29,94
735,559	29,98
735,994	30,19
736,429	30,16
736,864	30,16
737,299	30,19
737,734	30,14
738,169	30,26
738,604	30,32
739,038	30,29
739,473	30,42
739,907	30,55
740,342	30,52
740,776	30,34
741,21	30,51
741,644	30,48
742,078	30,35
742,512	30,6
742,946	30,3
743,379	30,53
743,813	30,35
744,246	30,56
744,68	30,42
745,113	30,55
745,546	30,55
745,979	30,53
746,412	30,38
746,845	30,56
747,278	30,38
747,711	30,5
748,143	30,42
748,576	30,44
749,008	30,53
749,441	30,53
749,873	30,4
750,305	30,37
750,737	30,01
751,169	30,32
751,601	30,65
752,032	30,32
752,464	30,31
752,896	30,23
753,327	29,96
753,758	30,29
754,19	30,22
754,621	30,27
755,052	30,15
755,483	30,16
755,914	30,19
756,344	30,32
756,775	30,1
757,206	30,21
757,636	30,17
758,066	30,03
758,497	30,02
758,927	29,86
759,357	30
759,787	29,97
760,217	29,96
760,647	30,01
761,076	30,13
761,506	29,95
761,935	29,97
762,365	29,76
762,794	29,85
763,223	29,72
763,653	29,96
764,082	29,67
764,51	29,96
764,939	29,67
765,368	29,6
765,797	29,67
766,225	29,64
766,654	29,62
767,082	29,85
767,51	29,59
767,938	29,73
768,367	29,57
768,795	29,44
769,222	29,73
769,65	29,45
770,078	29,55
770,505	29,49
770,933	29,39
771,36	29,34
771,788	29,43
772,215	29,42
772,642	29,55
773,069	29,49
773,496	29,27
773,923	29,33
774,349	29,3
774,776	29,31
775,203	29,03
775,629	29,32
776,055	29,34
776,482	29,41
776,908	29,18
777,334	29,36
777,76	29,35
778,186	29,32
778,611	29,12
779,037	29,37
779,463	29,41
779,888	29,11
780,314	29,2
780,739	29,36
781,164	29,05
781,589	29,39
782,014	29,41
782,439	29,07
782,864	29,31
783,289	29,09
783,713	29,01
784,138	28,97
784,562	29,2
784,987	29,09
785,411	28,89
785,835	29,25
786,259	28,91
786,683	29,07
787,107	29,01
787,531	29,03
787,954	29,05
788,378	29,17
788,802	28,92
789,225	28,74
789,648	28,92
790,071	29
790,495	29,11
790,918	28,78
791,34	29
791,763	28,93
792,186	29,11
792,609	29,14
793,031	29,05
793,454	29,1
793,876	29,22
794,298	28,88
794,721	28,85
795,143	28,94
795,565	28,74
795,986	29,08
796,408	28,95
796,83	28,79
797,252	28,68
797,673	28,9
798,094	29,21
798,516	28,89
798,937	28,8
799,358	28,99
799,779	28,74
800,2	28,83
800,621	28,85
801,042	28,99
801,462	28,81
801,883	28,78
802,303	28,94
802,724	28,72
803,144	28,95
803,564	28,79
803,984	28,71
804,404	28,79
804,824	28,83
805,244	28,82
805,664	28,95
806,084	28,69
806,503	28,77
806,923	28,96
807,342	28,81
807,761	28,73
808,18	28,72
808,599	28,66
809,018	28,71
809,437	28,76
809,856	28,68
810,275	28,93
810,693	28,84
811,112	28,87
811,53	28,88
811,949	29,06
812,367	28,55
812,785	28,8
813,203	28,75
813,621	28,96
814,039	28,58
814,457	28,56
814,874	28,76
815,292	28,81
815,709	28,9
816,127	28,55
816,544	28,8
816,961	28,62
817,378	28,68
817,795	28,64
818,212	28,89
818,629	28,74
819,046	28,77
819,462	28,59
819,879	28,59
820,295	28,57
820,712	28,75
821,128	28,7
821,544	28,7
821,96	28,5
822,376	28,58
822,792	28,65
823,208	28,48
823,624	28,72
824,039	28,67
824,455	28,75
824,87	28,8
825,286	28,67
825,701	28,78
826,116	28,87
826,531	28,55
826,946	28,69
827,361	28,7
827,776	28,65
828,19	28,65
828,605	28,48
829,02	28,61
829,434	28,66
829,848	28,45
830,263	28,64
830,677	28,5
831,091	28,66
831,505	28,4
831,919	28,67
832,332	28,44
832,746	28,55
833,16	28,58
833,573	28,34
833,987	28,49
834,4	28,47
834,813	28,74
835,226	28,42
835,639	28,48
836,052	28,7
836,465	28,74
836,878	28,56
837,29	28,3
837,703	28,53
838,116	28,36
838,528	28,52
838,94	28,7
839,352	28,69
839,765	28,32
840,177	28,39
840,589	28,5
841	28,57
841,412	28,46
841,824	28,44
842,235	28,38
842,647	28,48
843,058	28,35
843,47	28,53
843,881	28,39
844,292	28,3
844,703	28,44
845,114	28,43
845,525	28,6
845,935	28,61
846,346	28,23
846,757	28,34
847,167	28,65
847,577	28,52
847,988	28,55
848,398	28,48
848,808	28,36
849,218	28,69
849,628	28,44
850,038	28,52
850,448	28,45
850,857	28,52
851,267	28,3
851,676	28,76
852,086	28,44
852,495	28,47
852,904	28,31
853,313	28,47
853,722	28,39
854,131	28,36
854,54	28,38
854,949	28,54
855,357	28,44
855,766	28,36
856,174	28,1
856,583	28,45
856,991	28,39
857,399	28,54
857,807	28,29
858,215	28,66
858,623	28,31
859,031	28,24
859,439	28,28
859,846	28,38
860,254	28,34
860,661	28,37
861,069	28,46
861,476	28,43
861,883	28,32
862,29	28,34
862,697	28,29
863,104	28,13
863,511	28,39
863,918	28,13
864,325	28,15
864,731	28,37
865,138	28,31
865,544	28,21
865,95	28,48
866,357	28,41
866,763	28,29
867,169	28,07
867,575	28,1
867,98	28,15
868,386	28,37
868,792	28,46
869,197	28,5
869,603	28,13
870,008	28,43
870,414	28,18
870,819	28,43
871,224	28,02
871,629	28,1
872,034	28,26
872,439	28,44
872,844	28,19
873,248	28,38
873,653	28,16
874,057	28,29
874,462	28,28
874,866	28,15
875,27	28,37
875,674	28,41
876,078	28,14
876,482	28,21
876,886	28,28
877,29	28,48
877,694	28,17
878,097	28,45
878,501	28,44
878,904	28,41
879,308	28,39
879,711	28,42
880,114	28,17
880,517	28,02
880,92	28,32
881,323	28,36
881,726	28,38
882,128	28,55
882,531	28,35
882,934	28,55
883,336	28,22
883,738	28,17
884,141	28,31
884,543	28,35
884,945	28,32
885,347	28,1
885,749	28,33
886,151	28,21
886,552	28,51
886,954	28,3
887,355	28,5
887,757	28,2
888,158	28,22
888,56	28,4
888,961	28,27
889,362	28,26
889,763	27,99
890,164	28,55
890,565	28,23
890,965	28,5
891,366	27,88
891,767	28,26
892,167	28,43
892,567	28,18
892,968	28,19
893,368	28,17
893,768	28,19
894,168	28,12
894,568	28,51
894,968	28,07
895,368	28,25
895,767	28,26
896,167	28,2
896,566	28,34
896,966	28,11
897,365	28,22
897,764	28,31
898,164	28,38
898,563	28,15
898,962	28,2
899,361	28,19
899,759	28,22
900,158	28,48
900,557	28,47
900,955	27,91
901,354	28,47
901,752	28,42
902,15	28,68
902,548	28,19
902,947	28,05
903,345	28,47
903,742	28,39
904,14	28,42
904,538	28,23
904,936	28,26
905,333	28,14
905,731	28,2
906,128	28,09
906,525	28,28
906,923	28,22
907,32	28,16
907,717	28,23
908,114	27,97
908,511	28,16
908,907	28,15
909,304	28,35
909,701	27,97
910,097	28,3
910,494	28,22
910,89	28,14
911,286	28,25
911,682	28,23
912,078	28,33
912,474	28,04
912,87	28,09
913,266	28,26
913,662	28
914,058	28,22
914,453	28,16
914,849	28,03
915,244	28,24
915,639	28,36
916,034	28,44
916,43	28,29
916,825	28,19
917,22	28,3
917,614	28,38
918,009	28,06
918,404	28,24
918,798	28,36
919,193	28,12
919,587	28,21
919,982	28,15
920,376	28,19
920,77	28,41
921,164	28,23
921,558	28,35
921,952	28,45
922,346	28,17
922,74	28,61
923,133	28,25
923,527	28,2
923,92	28,05
924,314	28,33
924,707	28,36
925,1	28,02
925,493	28,22
925,886	27,96
926,279	28,28
926,672	28,07
927,065	28,22
927,457	28,24
927,85	28,35
928,243	28,01
928,635	28,11
929,027	27,97
929,42	28,18
929,812	28,2
930,204	28,06
930,596	28,11
930,988	28,19
931,379	28,3
931,771	28,21
932,163	28,1
932,554	27,94
932,946	27,91
933,337	27,82
933,729	28,13
934,12	27,9
934,511	27,79
934,902	27,91
935,293	28,27
935,684	27,96
936,075	28,13
936,465	27,79
936,856	27,74
937,246	28,12
937,637	28,25
938,027	27,6
938,417	28,35
938,808	28,2
939,198	28,07
939,588	28,11
939,978	28,01
940,368	28,39
940,757	27,96
941,147	27,82
941,537	27,67
941,926	27,74
942,315	27,98
942,705	28,19
943,094	28,06
943,483	27,99
943,872	27,94
944,261	27,84
944,65	27,58
945,039	27,89
945,428	28,42
945,816	27,84
946,205	27,68
946,593	28,02
946,982	28,1
947,37	28,33
947,758	27,31
948,146	27,68
948,534	27,84
948,922	27,6
949,31	27,9
949,698	27,85
950,086	27,59
950,473	27,94
950,861	27,24
951,248	27,34
951,636	27,5
952,023	27,67
952,41	27,54
952,797	27,75
953,184	27,82
953,571	27,62
953,958	27,59
954,345	27,4
954,731	27,18
955,118	27,47
955,505	27,27
955,891	27,58
956,277	27,54
956,664	27,63
957,05	27,26
957,436	27,54
957,822	27,59
958,208	27,45
958,594	27,26
958,979	27,21
959,365	27,36
959,751	27,98
960,136	27,49
960,522	27,25
960,907	27,34
961,292	26,98
961,677	27,3
962,062	27,12
962,447	27,52
962,832	27,07
963,217	27,03
963,602	27,28
963,986	27,6
964,371	27,05
964,756	27,61
965,14	27,25
965,524	27,2
965,908	27,09
966,293	27,42
966,677	27,68
967,061	27,52
967,445	27,16
967,828	27,35
968,212	27,55
968,596	26,79
968,979	26,97
969,363	27,53
969,746	27,75
970,129	27,3
970,513	27,04
970,896	27,64
971,279	27,56
971,662	27,2
972,045	27,97
972,428	27,28
972,81	27,05
973,193	27,53
973,575	27,07
973,958	27,46
974,34	27,48
974,723	27,33
975,105	27,38
975,487	27,52
975,869	27,33
976,251	27,25
976,633	27,73
977,015	27,55
977,396	27,37
977,778	27,36
978,16	27,35
978,541	27
978,922	27,62
979,304	27,57
979,685	27,51
980,066	27,47
980,447	27,55
980,828	27,75
981,209	27,72
981,59	27
981,97	27,65
982,351	27,42
982,732	27,7
983,112	27,68
983,493	27,63
983,873	27,23
984,253	27,54
984,633	27,56
985,013	27,27
985,393	27,32
985,773	27,34
986,153	27,46
986,533	27,41
986,912	27,68
987,292	27,29
987,671	27,34
988,051	27,64
988,43	27,28
988,809	27,28
989,188	27,28
989,567	27,63
989,946	27,25
990,325	27,37
990,704	27,41
991,083	27,72
991,461	27,88
991,84	27,61
992,218	27,94
992,597	27,46
992,975	27,67
993,353	27,65
993,732	27,85
994,11	28,03
994,488	27,1
994,866	27,83
995,243	27,2
995,621	27,73
995,999	27,48
996,376	27,63
996,754	27,67
997,131	27,93
997,509	27,79
997,886	27,78
998,263	27,47
998,64	27,68
999,017	27,56
999,394	27,7
999,771	27,62
1000,148	27,03
1000,524	27,8
1000,901	27,61
1001,277	27,71
1001,654	27,42
1002,03	27,65
1002,406	27,72
1002,783	27,65
1003,159	27,79
1003,535	27,35
1003,911	27,57
1004,286	27,68
1004,662	27,59
1005,038	27,43
1005,414	27,74
1005,789	27,83
1006,164	28,22
1006,54	27,65
1006,915	27,64
1007,29	27,86
1007,665	27,53
1008,04	27,61
1008,415	27,75
1008,79	28,18
1009,165	27,88
1009,54	27,78
1009,914	27,96
1010,289	27,72
1010,663	27,55
1011,038	27,5
1011,412	27,53
1011,786	27,77
1012,16	27,89
1012,535	27,6
1012,909	27,65
1013,282	27,65
1013,656	27,75
1014,03	27,84
1014,404	28,2
1014,777	28,21
1015,151	27,96
1015,524	28,01
1015,897	28,33
1016,271	28,17
1016,644	27,65
1017,017	28
1017,39	27,96
1017,763	27,55
1018,136	27,62
1018,508	28,48
1018,881	27,78
1019,254	28,02
1019,626	27,96
1019,999	28,09
1020,371	27,64
1020,743	27,84
1021,116	27,82
1021,488	27,94
1021,86	28,04
1022,232	28,04
1022,604	27,55
1022,975	27,57
1023,347	27,56
1023,719	27,69
1024,09	27,78
1024,462	26,97
1024,833	27,27
1025,204	28,14
1025,576	28,67
1025,947	28,24
1026,318	27,86
1026,689	27,78
1027,06	28,2
1027,431	27,87
1027,801	28,51
1028,172	28,56
1028,543	28,06
1028,913	27,17
1029,284	27,61
1029,654	27,78
1030,024	27,88
1030,394	27,72
1030,764	28,96
1031,135	27,81
1031,504	28,43
1031,874	27,9
1032,244	28,07
1032,614	28,06
1032,983	27,28
1033,353	27,76
1033,722	27,54
1034,092	28
1034,461	27,71
1034,83	28,06
1035,2	27,35
1035,569	27,63
1035,938	27,99
1036,307	27,91
1036,675	28,07
1037,044	28,33
1037,413	27,56
1037,781	28,08
1038,15	27,86
1038,518	28,08
1038,887	27,99
1039,255	27,98
1039,623	27,91
1039,991	28,72
1040,359	27,65
1040,727	27,74
1041,095	27,8
1041,463	28,97
1041,831	28,15
1042,198	28,28
1042,566	27,7
1042,933	28,53
1043,301	27,82
1043,668	28,42
1044,035	27,64
1044,402	27,87
1044,77	28,62
1045,137	28,53
1045,503	27,87
1045,87	28,17
1046,237	28,02
1046,604	28,24
1046,97	27,88
1047,337	28,05
1047,703	27,68
1048,07	27,92
1048,436	28,07
1048,802	27,75
1049,168	28,86
1049,534	28,44
1049,9	28,08
1050,266	28,11
1050,632	28,83
1050,998	28,36
1051,364	28,02
1051,729	28,56
1052,095	28,12
1052,46	27,87
1052,825	27,82
1053,191	27,76
1053,556	28,94
1053,921	28,22
1054,286	28,49
1054,651	28,52
1055,016	28,24
1055,381	27,98
1055,745	28,49
1056,11	28,39
1056,475	27,66
1056,839	29,08
1057,203	27,99
1057,568	29
1057,932	27,75
1058,296	27,66
1058,66	28,3
1059,024	28,18
1059,388	28,42
1059,752	28,15
1060,116	28,47
1060,48	28,5
1060,843	28,35
1061,207	28,91
1061,57	28,57
1061,934	28,18
1062,297	28,77
1062,66	29,33
1063,023	28,38
1063,386	28,43
1063,749	28,7
1064,112	28,59
1064,475	28,13
1064,838	28,78
1065,201	28,26
1065,563	28,23
1065,926	28,45
1066,288	27,94
1066,651	27,99
1067,013	27,81
1067,375	27,96
1067,737	28,09
1068,099	28,55
1068,461	28,38
1068,823	27,99
1069,185	28,49
1069,547	27,84
1069,909	28,49
1070,27	28,56
1070,632	28,23
1070,993	27,83
1071,355	29,35
1071,716	28,61
1072,077	28,18
1072,438	28,53
1072,799	29,28
1073,16	28,52
1073,521	29,26
1073,882	28,32
1074,243	27,81
1074,603	27,87
1074,964	28,51
1075,325	29,11
1075,685	29,12
1076,045	27,89
1076,406	28,54
1076,766	28,23
1077,126	29,36
1077,486	28,87
1077,846	28,84
1078,206	28,43
1078,566	28,14
1078,925	27,87
1079,285	28,45
1079,645	29,1
1080,004	29,58
1080,364	28,21
1080,723	28,89
1081,082	28,88
1081,442	28,69
1081,801	28,47
1082,16	28,74
1082,519	28,91
1082,878	28,47
1083,237	28,46
1083,595	28,81
1083,954	29,3
1084,313	28
1084,671	29,41
1085,03	27,68
1085,388	28,74
1085,746	28,92
1086,104	28,34
1086,463	28,32
1086,821	27,84
1087,179	29,58
1087,537	28,68
1087,894	28,72
1088,252	28,08
1088,61	28,74
1088,967	28,56
1089,325	28,59
1089,682	29,54
1090,04	28,05
1090,397	27,18
1090,754	29,27
1091,111	29,19
1091,469	28,36
1091,826	28,54
1092,182	29,18
1092,539	29,31
1092,896	29,8
1093,253	28,39
1093,609	29,47
1093,966	28,95
1094,322	27,71
1094,679	29,03
1095,035	28,04
1095,391	28,32
1095,748	30,15
1096,104	27,8
1096,46	29,63
1096,816	27,82
1097,171	29,72
1097,527	30,07
1097,883	28,08
1098,239	29,78
1098,594	27,33
1098,95	29,07
1099,305	28,67
1099,66	29,46
1100,016	28,84
1100,371	30,16
1100,726	28,12
1101,081	28,99
1101,436	29,33
1101,791	28,56
1102,146	27,29
1102,5	27,05
1102,855	28,88
1103,21	29,13
1103,564	28,88
1103,918	28,45
1104,273	29,31
1104,627	30,89
1104,981	27,69
1105,335	31,15
1105,69	27,76
1106,043	31,06
1106,397	29,53
1106,751	28,3
1107,105	29,89
1107,459	28,96
1107,812	26,25
1108,166	28,9
1108,519	29,08
1108,873	30,53
1109,226	28,93
1109,579	28,88
1109,932	29,5
1110,285	28,2
1110,638	31,01
1110,991	31,7
1111,344	28,85
1111,697	31,09
1112,05	31,62
1112,402	30,16
1112,755	29,22
1113,107	32,58
1113,46	31,4
1113,812	31,16
1114,164	29,58
1114,517	29,77
1114,869	47,01
1115,221	49,19
1115,573	45,28
1115,924	44,53
