Data from E2__Relative__3__00003.txt Node

Date: Fri Feb 02 12:31:18 CET 2024
User: diatiterra
Spectrometer: HDX00911
Trigger mode: 0
Integration Time (sec): 6,000000E-3
Scans to average: 2
Nonlinearity correction enabled: false
Boxcar width: 0
Storing dark spectrum: false
XAxis mode: Wavelengths
Number of Pixels in Spectrum: 2068
>>>>>Begin Spectral Data<<<<<
194,468	73,02
195,025	68,97
195,581	73,58
196,138	69,7
196,694	66,83
197,251	70,49
197,807	71,96
198,363	57,19
198,919	59,18
199,474	70,61
200,03	55,59
200,586	61,51
201,141	61,9
201,696	63,35
202,251	66,77
202,806	65,71
203,361	58,13
203,916	54,73
204,471	63,02
205,025	60,65
205,58	56,8
206,134	60,67
206,688	63,14
207,242	54,32
207,796	60,14
208,35	59,27
208,904	61,47
209,457	62,99
210,011	66,23
210,564	59,87
211,117	62,07
211,67	62,87
212,223	57,74
212,776	67,4
213,329	59,49
213,881	66,44
214,434	57,19
214,986	63,58
215,538	61,56
216,09	61,17
216,642	54,64
217,194	57,62
217,746	59,6
218,297	70,65
218,849	60,33
219,4	66,43
219,951	63,36
220,502	59,26
221,053	72,86
221,604	70,7
222,155	60,65
222,705	60,76
223,256	68,17
223,806	56,03
224,356	67,02
224,906	54,11
225,456	63,79
226,006	61,39
226,556	60,26
227,106	57,59
227,655	58,64
228,204	54,14
228,754	55,52
229,303	58,67
229,852	64,03
230,401	61,51
230,949	61,06
231,498	61,25
232,047	64,86
232,595	54,46
233,143	64,67
233,691	59,94
234,239	57,14
234,787	64,6
235,335	56,54
235,883	63,67
236,43	60,78
236,978	68,75
237,525	55,97
238,072	60,68
238,619	61,56
239,166	60,52
239,713	65,97
240,26	65,84
240,806	65,27
241,353	65,02
241,899	61,54
242,445	55,48
242,991	65,26
243,537	56,84
244,083	60,13
244,629	60,31
245,174	64,74
245,72	61,24
246,265	63,42
246,81	61,06
247,355	60,94
247,9	58,36
248,445	58,39
248,99	61,44
249,534	62,33
250,079	61,84
250,623	57,58
251,168	66,33
251,712	64,61
252,256	62,08
252,8	59,69
253,343	60,57
253,887	62,15
254,43	59,93
254,974	59,21
255,517	60,33
256,06	67,67
256,603	63,51
257,146	59,48
257,689	61,02
258,232	76,59
258,774	63,7
259,317	61,04
259,859	67,67
260,401	65,46
260,943	64,16
261,485	68,68
262,027	59,35
262,569	67,99
263,11	56,17
263,652	67,92
264,193	63,14
264,734	68,88
265,275	56,75
265,816	61,49
266,357	54,45
266,898	63,09
267,438	66,09
267,979	66,43
268,519	64,94
269,059	61,59
269,6	73
270,14	69,62
270,68	63,38
271,219	63,09
271,759	68,11
272,298	65,18
272,838	68,17
273,377	62,5
273,916	70,65
274,455	68,64
274,994	70
275,533	67,14
276,072	71,54
276,61	68,84
277,149	73,14
277,687	60,47
278,225	67,25
278,763	61,59
279,301	61,15
279,839	64,67
280,377	65,05
280,914	68,2
281,452	56,76
281,989	65,78
282,526	59,93
283,064	73,48
283,601	56,52
284,137	61,3
284,674	66,23
285,211	56,84
285,747	66,32
286,284	68,49
286,82	67,58
287,356	69,04
287,892	66,91
288,428	60,92
288,964	64,98
289,5	62,85
290,035	63,51
290,571	63,7
291,106	64,55
291,641	64,63
292,176	64,6
292,711	63,42
293,246	60,83
293,781	60,42
294,315	63,98
294,85	58,36
295,384	58,42
295,918	59,12
296,453	65,62
296,987	54,33
297,52	58,76
298,054	61,84
298,588	67,47
299,121	59,51
299,655	59,93
300,188	57,86
300,721	63,97
301,254	69,32
301,787	65,28
302,32	56,36
302,853	66,55
303,385	65,11
303,918	62,24
304,45	65,27
304,982	57,45
305,514	63,88
306,046	57,86
306,578	63,96
307,11	58,3
307,641	65,31
308,173	62,04
308,704	65,08
309,236	55,97
309,767	63,7
310,298	53,33
310,829	60,65
311,359	59,8
311,89	60
312,421	57,05
312,951	57,1
313,481	63,3
314,012	58,91
314,542	64,14
315,072	55,26
315,601	54,81
316,131	56,01
316,661	58,39
317,19	55,26
317,72	57,19
318,249	61,46
318,778	60,78
319,307	54,52
319,836	62,68
320,365	63,37
320,893	65,72
321,422	62,33
321,95	56,9
322,479	58,54
323,007	60,07
323,535	60,84
324,063	61,02
324,591	68,53
325,118	63,02
325,646	63,31
326,173	57,53
326,701	68,66
327,228	65,89
327,755	63,61
328,282	61,97
328,809	52,08
329,336	59,03
329,862	56,74
330,389	57,57
330,915	64,77
331,441	56,21
331,968	54,03
332,494	62,3
333,02	59,86
333,545	56,88
334,071	53,77
334,597	54,17
335,122	52,22
335,648	58,12
336,173	50,49
336,698	53,97
337,223	56,13
337,748	62,18
338,272	53,12
338,797	57,84
339,322	56,57
339,846	58,21
340,37	53,14
340,894	50,31
341,419	60,19
341,942	61,78
342,466	62,27
342,99	50,3
343,514	53,89
344,037	48,31
344,56	54,68
345,084	50,84
345,607	53,16
346,13	57,73
346,653	52,3
347,175	48,63
347,698	58,26
348,221	55,87
348,743	48,66
349,265	47,47
349,787	43,94
350,309	53,37
350,831	45,54
351,353	47,96
351,875	47,79
352,397	47,59
352,918	49,18
353,439	43,95
353,961	50,37
354,482	48,47
355,003	48,1
355,524	51,66
356,044	49,3
356,565	51,74
357,086	54,12
357,606	48,27
358,126	51,88
358,646	54,52
359,167	41,47
359,687	38,53
360,206	44,55
360,726	44,32
361,246	41,56
361,765	54,87
362,285	42,13
362,804	48,51
363,323	44,54
363,842	38,43
364,361	47,07
364,88	47,34
365,398	45,38
365,917	42,01
366,435	40,85
366,954	40,99
367,472	42,37
367,99	45,74
368,508	41,94
369,026	44,26
369,544	41,2
370,061	40,21
370,579	41,31
371,096	41,62
371,613	40,83
372,131	42,22
372,648	38,82
373,165	43,74
373,681	40,97
374,198	38,05
374,715	39,11
375,231	37,95
375,747	39,38
376,264	37,71
376,78	41,3
377,296	39,6
377,812	39,58
378,327	41,29
378,843	37,82
379,359	39,19
379,874	38,59
380,389	39,24
380,905	38,04
381,42	35,06
381,935	38,48
382,449	37,59
382,964	35,63
383,479	35,47
383,993	37
384,508	38,72
385,022	36,56
385,536	35,21
386,05	35,36
386,564	35,47
387,078	36,87
387,592	36,42
388,105	36,24
388,619	36,68
389,132	34,06
389,645	33,1
390,158	32,51
390,671	33,62
391,184	32,42
391,697	33,06
392,21	32,09
392,722	33,68
393,235	29,53
393,747	33,39
394,259	30,6
394,771	32,12
395,283	31,74
395,795	32,6
396,307	32,56
396,818	32,54
397,33	32,69
397,841	31,75
398,353	32,41
398,864	31,25
399,375	32,42
399,886	29,46
400,397	28,86
400,907	30,07
401,418	27,4
401,928	29,19
402,439	30,34
402,949	27,72
403,459	28,62
403,969	28,78
404,479	27,85
404,989	27,28
405,498	27,64
406,008	28,03
406,517	27,37
407,027	26,9
407,536	26,47
408,045	26,18
408,554	26,88
409,063	26,36
409,572	25,3
410,08	24,93
410,589	25,6
411,097	24,35
411,606	24,32
412,114	24,52
412,622	23,52
413,13	23,95
413,638	23,9
414,145	23,22
414,653	23,51
415,16	22,66
415,668	23,18
416,175	22,94
416,682	22,25
417,189	22,17
417,696	22,41
418,203	22,15
418,71	21,19
419,216	20,73
419,723	21,2
420,229	22,2
420,735	21,87
421,242	21,17
421,748	21,94
422,254	21,71
422,759	21,24
423,265	21,86
423,771	21,39
424,276	21,32
424,781	20,92
425,287	20,98
425,792	21,01
426,297	20,82
426,802	20,33
427,306	21,09
427,811	20,72
428,316	20,98
428,82	20,52
429,324	21,24
429,829	20,74
430,333	21,57
430,837	20,63
431,34	20,77
431,844	20,63
432,348	20,12
432,851	20,54
433,355	21,2
433,858	20,88
434,361	20,53
434,864	20,51
435,367	20,55
435,87	20,2
436,373	20,49
436,876	20,45
437,378	20,8
437,88	20,52
438,383	20,62
438,885	21,16
439,387	20,83
439,889	20,58
440,391	20,58
440,892	19,91
441,394	20,3
441,896	21,03
442,397	20,91
442,898	20,66
443,399	20,64
443,9	20,34
444,401	20,56
444,902	21,02
445,403	20,3
445,903	20,69
446,404	20,55
446,904	21,05
447,405	20,07
447,905	20,59
448,405	20,56
448,905	21,07
449,404	20,86
449,904	20,84
450,404	20,28
450,903	20,8
451,403	20,19
451,902	21,29
452,401	20,33
452,9	20,41
453,399	20,5
453,898	20,37
454,396	20,76
454,895	20,68
455,393	20,92
455,892	20,6
456,39	20,88
456,888	20,81
457,386	20,37
457,884	20,26
458,382	21,22
458,879	21,06
459,377	20,7
459,874	21,13
460,372	20,65
460,869	20,71
461,366	20,64
461,863	20,91
462,36	21,25
462,857	20,83
463,353	20,45
463,85	21,35
464,346	20,96
464,843	20,26
465,339	21,18
465,835	20,61
466,331	21,21
466,827	20,69
467,323	20,79
467,818	20,31
468,314	20,91
468,809	21
469,305	20,54
469,8	20,87
470,295	21,03
470,79	20,51
471,285	20,68
471,78	20,5
472,274	20,6
472,769	20,98
473,263	20,67
473,758	21,3
474,252	20,71
474,746	20,74
475,24	20,63
475,734	20,86
476,228	20,43
476,721	20,44
477,215	20,63
477,708	20,87
478,202	20,69
478,695	20,46
479,188	21,1
479,681	20,75
480,174	20,92
480,667	20,68
481,159	20,89
481,652	21,18
482,144	20,86
482,637	21,25
483,129	21,01
483,621	20,66
484,113	21,24
484,605	21,14
485,097	20,95
485,588	21,07
486,08	21,01
486,571	20,92
487,063	21,25
487,554	20,93
488,045	21,25
488,536	21,4
489,027	21,02
489,518	21,04
490,008	21,12
490,499	21,04
490,989	21,3
491,48	21,51
491,97	21,19
492,46	21,46
492,95	21,39
493,44	20,88
493,93	21,66
494,419	21,31
494,909	20,97
495,398	21,33
495,888	21,79
496,377	21,44
496,866	21,26
497,355	21,75
497,844	21,65
498,333	21,77
498,821	21,65
499,31	21,45
499,798	21,52
500,287	22,06
500,775	21,76
501,263	22,19
501,751	21,99
502,239	21,65
502,727	21,82
503,215	22,06
503,702	22,16
504,19	22,24
504,677	22,29
505,164	22,57
505,651	22,53
506,139	22,52
506,625	22,39
507,112	22,68
507,599	22,76
508,086	22,6
508,572	22,7
509,058	23,25
509,545	23,39
510,031	23,17
510,517	23,43
511,003	23,23
511,489	23,64
511,974	23,74
512,46	23,97
512,946	24,14
513,431	23,83
513,916	24,09
514,401	24,49
514,887	24,63
515,371	24,29
515,856	24,94
516,341	25,1
516,826	24,77
517,31	25,2
517,795	25,39
518,279	25,32
518,763	25,45
519,247	25,75
519,731	25,68
520,215	26,18
520,699	26,67
521,182	26,62
521,666	26,49
522,149	26,54
522,633	27,06
523,116	27,03
523,599	27,59
524,082	27,68
524,565	27,8
525,048	27,79
525,53	28,11
526,013	28,19
526,495	28,52
526,978	28,37
527,46	28,46
527,942	28,67
528,424	28,63
528,906	29,04
529,388	29,3
529,87	29,48
530,351	29,36
530,833	29,66
531,314	29,45
531,795	29,74
532,277	29,87
532,758	29,66
533,238	30,59
533,719	30,16
534,2	30,14
534,681	30,19
535,161	30,25
535,642	30,22
536,122	30,5
536,602	30,48
537,082	30,49
537,562	30,03
538,042	30,74
538,522	30,65
539,001	30,89
539,481	30,28
539,96	30,76
540,44	31,03
540,919	30,91
541,398	30,55
541,877	30,7
542,356	31,06
542,835	30,9
543,313	30,98
543,792	31,11
544,27	30,76
544,749	31,34
545,227	31,04
545,705	31,04
546,183	30,95
546,661	31,13
547,139	31,38
547,616	31,13
548,094	31,46
548,571	31,16
549,049	31,43
549,526	31,61
550,003	31,11
550,48	31,82
550,957	31,31
551,434	31,28
551,911	31,5
552,387	31,54
552,864	31,5
553,34	31,49
553,817	31,05
554,293	31,73
554,769	31,82
555,245	31,74
555,721	31,07
556,197	31,52
556,672	31,24
557,148	31,78
557,623	31,61
558,099	31,42
558,574	31,4
559,049	31,19
559,524	31,33
559,999	31,52
560,474	31,08
560,948	31,45
561,423	31,05
561,897	30,92
562,372	31,18
562,846	30,92
563,32	30,9
563,794	30,6
564,268	30,77
564,742	30,75
565,216	30,68
565,69	30,19
566,163	30,49
566,636	30,43
567,11	30,2
567,583	29,95
568,056	30,32
568,529	30,02
569,002	30,32
569,475	29,67
569,947	29,79
570,42	29,81
570,892	29,46
571,365	29,57
571,837	29,28
572,309	28,96
572,781	29,23
573,253	28,95
573,725	28,8
574,197	28,81
574,668	28,53
575,14	28,75
575,611	28,68
576,082	28,53
576,554	28,41
577,025	28,33
577,496	28,25
577,967	28,27
578,437	28,16
578,908	28,09
579,379	27,84
579,849	28,1
580,319	27,85
580,79	27,89
581,26	27,68
581,73	27,42
582,2	27,45
582,669	27,31
583,139	27,3
583,609	27,31
584,078	27,39
584,548	27,19
585,017	27,1
585,486	27,39
585,955	27,06
586,424	26,92
586,893	27,19
587,362	27,05
587,83	26,84
588,299	27,01
588,767	26,91
589,236	26,96
589,704	26,77
590,172	26,63
590,64	26,58
591,108	26,69
591,576	26,57
592,043	26,39
592,511	26,33
592,978	26,47
593,446	26,51
593,913	26,5
594,38	26,41
594,847	26,1
595,314	26,57
595,781	26,41
596,248	26,08
596,715	26,16
597,181	26,4
597,647	26,39
598,114	26,04
598,58	26,2
599,046	26,24
599,512	26,35
599,978	26,32
600,444	26,18
600,91	26,02
601,375	26,19
601,841	26,54
602,306	26,4
602,771	26,07
603,236	26,36
603,702	26,01
604,167	25,84
604,631	25,95
605,096	26,14
605,561	26
606,025	26,06
606,49	25,9
606,954	25,6
607,418	25,76
607,882	25,84
608,347	25,9
608,81	25,84
609,274	25,46
609,738	25,69
610,202	25,63
610,665	25,54
611,128	25,6
611,592	25,47
612,055	25,46
612,518	25,63
612,981	25,23
613,444	25,27
613,907	25,34
614,369	25,21
614,832	25,16
615,294	24,85
615,757	25,13
616,219	24,83
616,681	25,11
617,143	25,16
617,605	24,84
618,067	25,06
618,529	24,99
618,99	24,91
619,452	24,62
619,913	24,82
620,375	24,94
620,836	24,78
621,297	24,86
621,758	24,56
622,219	24,67
622,68	24,61
623,14	24,46
623,601	24,42
624,061	24,65
624,522	24,7
624,982	24,43
625,442	24,52
625,902	24,65
626,362	24,72
626,822	24,27
627,282	24,6
627,742	24,52
628,201	24,35
628,661	24,67
629,12	24,6
629,579	24,5
630,038	24,41
630,497	24,33
630,956	24,66
631,415	24,48
631,874	24,5
632,332	24,31
632,791	24,34
633,249	24,11
633,708	24,17
634,166	24,19
634,624	24,09
635,082	24,27
635,54	24,05
635,998	24,37
636,455	23,96
636,913	24,14
637,37	23,8
637,828	23,64
638,285	23,75
638,742	23,98
639,199	23,84
639,656	23,84
640,113	23,72
640,57	23,69
641,027	23,56
641,483	23,48
641,94	23,48
642,396	23,59
642,852	23,36
643,309	23,26
643,765	23,2
644,221	23,11
644,676	22,91
645,132	22,99
645,588	23,05
646,043	22,8
646,499	22,74
646,954	23,03
647,409	22,78
647,864	22,85
648,319	22,65
648,774	22,62
649,229	22,49
649,684	22,73
650,139	22,63
650,593	22,46
651,047	22,53
651,502	22,33
651,956	22,48
652,41	22,38
652,864	22,43
653,318	22,55
653,772	22,63
654,225	22,53
654,679	22,57
655,133	22,22
655,586	22,46
656,039	22,38
656,492	22,33
656,946	22,25
657,399	22,35
657,851	22,31
658,304	22,21
658,757	22,32
659,209	22,32
659,662	22,12
660,114	22,24
660,567	22,25
661,019	22,27
661,471	21,81
661,923	22,12
662,375	22,01
662,826	22,06
663,278	22,04
663,73	22
664,181	21,97
664,632	22,01
665,084	21,92
665,535	21,91
665,986	21,9
666,437	21,92
666,888	21,89
667,338	22,06
667,789	21,99
668,24	21,78
668,69	21,82
669,14	21,72
669,591	21,99
670,041	21,94
670,491	22,17
670,941	21,97
671,391	22,05
671,84	22,02
672,29	21,96
672,74	22,17
673,189	22,26
673,638	22,19
674,088	22,49
674,537	22,25
674,986	22,49
675,435	22,25
675,883	22,54
676,332	22,44
676,781	22,73
677,229	22,72
677,678	22,82
678,126	22,79
678,574	22,95
679,022	22,83
679,47	23,09
679,918	23,16
680,366	23,14
680,814	23,24
681,261	23,29
681,709	23,3
682,156	23,37
682,604	23,59
683,051	23,51
683,498	23,81
683,945	23,64
684,392	23,94
684,839	23,93
685,286	23,93
685,732	23,91
686,179	23,94
686,625	24,34
687,071	24,34
687,518	24,45
687,964	24,41
688,41	24,4
688,856	24,64
689,301	24,7
689,747	24,78
690,193	24,84
690,638	25,23
691,084	25,25
691,529	25,44
691,974	25,64
692,419	25,92
692,864	26,18
693,309	26,45
693,754	26,71
694,199	26,78
694,643	27,3
695,088	27,46
695,532	27,81
695,977	28,11
696,421	28,36
696,865	28,89
697,309	29,25
697,753	29,51
698,197	29,89
698,64	30,22
699,084	30,63
699,527	30,87
699,971	31,2
700,414	31,77
700,857	32,31
701,3	32,42
701,743	33,05
702,186	33,34
702,629	33,73
703,072	34,12
703,515	34,68
703,957	35
704,399	35,4
704,842	35,75
705,284	36,24
705,726	36,77
706,168	37,06
706,61	37,28
707,052	37,9
707,494	38,25
707,935	38,85
708,377	38,97
708,818	39,46
709,26	39,92
709,701	40,4
710,142	40,62
710,583	41,29
711,024	41,35
711,465	41,89
711,905	42,21
712,346	42,99
712,787	43,17
713,227	43,89
713,667	44,01
714,108	44,49
714,548	44,87
714,988	45,88
715,428	45,93
715,868	46,18
716,307	46,63
716,747	47,23
717,186	47,48
717,626	48,01
718,065	48,14
718,504	49,14
718,944	49,44
719,383	49,63
719,822	50,18
720,261	50,74
720,699	50,85
721,138	51,55
721,576	51,73
722,015	52,01
722,453	52,78
722,892	52,78
723,33	53,4
723,768	53,43
724,206	54,05
724,644	54,29
725,081	54,95
725,519	54,57
725,957	54,94
726,394	55,68
726,832	56,2
727,269	56,57
727,706	56,63
728,143	57,36
728,58	57,63
729,017	57,66
729,454	57,91
729,89	58,23
730,327	58,95
730,764	59,07
731,2	59,42
731,636	59,33
732,072	59,64
732,509	59,82
732,945	59,86
733,38	60,27
733,816	60,35
734,252	60,82
734,688	61,15
735,123	60,9
735,559	61,58
735,994	61,62
736,429	61,77
736,864	61,71
737,299	62,13
737,734	62,23
738,169	62,38
738,604	62,73
739,038	62,7
739,473	63,24
739,907	62,92
740,342	63,27
740,776	63,37
741,21	63,51
741,644	63,4
742,078	63,43
742,512	63,82
742,946	63,71
743,379	64,33
743,813	63,89
744,246	64,22
744,68	64,2
745,113	64,11
745,546	64,25
745,979	64,67
746,412	64,39
746,845	64,86
747,278	64,35
747,711	64,46
748,143	64,73
748,576	64,62
749,008	64,79
749,441	64,94
749,873	64,85
750,305	64,96
750,737	64,58
751,169	64,85
751,601	64,76
752,032	64,67
752,464	64,78
752,896	64,99
753,327	64,61
753,758	64,83
754,19	65,2
754,621	64,95
755,052	65,19
755,483	65,19
755,914	64,62
756,344	64,88
756,775	64,82
757,206	64,76
757,636	65,03
758,066	64,79
758,497	64,73
758,927	65,13
759,357	65,44
759,787	64,83
760,217	65,14
760,647	64,93
761,076	65,36
761,506	65,23
761,935	64,73
762,365	64,63
762,794	65,03
763,223	64,96
763,653	64,77
764,082	64,82
764,51	64,86
764,939	64,53
765,368	65,2
765,797	65,06
766,225	65,06
766,654	64,64
767,082	65,3
767,51	65,03
767,938	64,72
768,367	64,74
768,795	64,91
769,222	64,93
769,65	64,96
770,078	64,86
770,505	64,75
770,933	64,86
771,36	64,91
771,788	64,78
772,215	64,72
772,642	64,89
773,069	64,79
773,496	64,74
773,923	64,68
774,349	64,83
774,776	64,76
775,203	64,67
775,629	65,03
776,055	65,18
776,482	64,79
776,908	64,79
777,334	64,41
777,76	64,55
778,186	64,76
778,611	64,81
779,037	64,73
779,463	64,37
779,888	64,48
780,314	64,54
780,739	64,41
781,164	64,39
781,589	64,37
782,014	64,44
782,439	64,23
782,864	64,62
783,289	64,66
783,713	64,68
784,138	64,56
784,562	64,7
784,987	64,46
785,411	64,4
785,835	64,42
786,259	64,2
786,683	64,35
787,107	64,54
787,531	64,65
787,954	64,35
788,378	64,6
788,802	65,02
789,225	64,42
789,648	64,12
790,071	64,78
790,495	64,82
790,918	64,48
791,34	64,7
791,763	64,75
792,186	64,75
792,609	64,64
793,031	64,57
793,454	64,74
793,876	64,41
794,298	64,84
794,721	64,58
795,143	64,51
795,565	64,48
795,986	64,52
796,408	64,37
796,83	64,39
797,252	64,5
797,673	64,47
798,094	64,62
798,516	64,25
798,937	64,45
799,358	64,64
799,779	64,53
800,2	64,4
800,621	65,06
801,042	64,16
801,462	64,56
801,883	64,59
802,303	64,12
802,724	64,49
803,144	64,29
803,564	64,59
803,984	64,57
804,404	64,45
804,824	64,66
805,244	64,32
805,664	64,35
806,084	64,35
806,503	64,3
806,923	64,73
807,342	64,46
807,761	64,49
808,18	64,76
808,599	64,32
809,018	64,27
809,437	64,56
809,856	64,34
810,275	64,31
810,693	64,5
811,112	64,2
811,53	64,85
811,949	64,24
812,367	64,14
812,785	64,61
813,203	64,62
813,621	64,51
814,039	64,26
814,457	64,56
814,874	64,46
815,292	64,69
815,709	64,38
816,127	64,21
816,544	64,57
816,961	64,36
817,378	64,18
817,795	64,13
818,212	64,41
818,629	64,41
819,046	64,37
819,462	64,11
819,879	64,27
820,295	64,25
820,712	64,49
821,128	64,36
821,544	64,55
821,96	64,33
822,376	64,6
822,792	64,4
823,208	64,68
823,624	64,21
824,039	64,35
824,455	64,64
824,87	64,11
825,286	64,36
825,701	64,18
826,116	64,2
826,531	64,54
826,946	64,06
827,361	64,48
827,776	64,33
828,19	64,67
828,605	64,46
829,02	64,17
829,434	64,33
829,848	64,27
830,263	64,55
830,677	64,13
831,091	64,21
831,505	64,34
831,919	64,22
832,332	64,17
832,746	64,22
833,16	64,21
833,573	64,43
833,987	64,26
834,4	64,51
834,813	64,6
835,226	64,42
835,639	64,62
836,052	64,08
836,465	64,54
836,878	64,39
837,29	64,2
837,703	64,2
838,116	64,4
838,528	64,48
838,94	64,47
839,352	64,3
839,765	64,15
840,177	64,47
840,589	64,32
841	64,12
841,412	64,49
841,824	64,06
842,235	64,27
842,647	64,4
843,058	64,09
843,47	64,5
843,881	64,52
844,292	64,55
844,703	64,27
845,114	64,03
845,525	64,31
845,935	64,54
846,346	64,64
846,757	64,52
847,167	64,39
847,577	64,3
847,988	64,41
848,398	64,79
848,808	64,17
849,218	64,17
849,628	64,14
850,038	64,09
850,448	64,2
850,857	64,26
851,267	64,3
851,676	64,49
852,086	64,18
852,495	64,04
852,904	64,42
853,313	64,38
853,722	64,45
854,131	64,46
854,54	64,29
854,949	64,04
855,357	63,94
855,766	64,06
856,174	64,33
856,583	64,11
856,991	64,23
857,399	64,48
857,807	64,72
858,215	64,28
858,623	64,56
859,031	64,5
859,439	64,09
859,846	64,29
860,254	64,43
860,661	64,38
861,069	64,29
861,476	64,49
861,883	64,74
862,29	64,48
862,697	64,45
863,104	64,58
863,511	63,98
863,918	64,56
864,325	64,2
864,731	64,12
865,138	64,18
865,544	64,56
865,95	64,81
866,357	64,16
866,763	64,55
867,169	64,14
867,575	63,98
867,98	64,44
868,386	64,36
868,792	64,59
869,197	64,68
869,603	64,37
870,008	64,26
870,414	64,62
870,819	64,14
871,224	64,84
871,629	64,39
872,034	64,21
872,439	64,31
872,844	63,89
873,248	64,31
873,653	64,43
874,057	64,33
874,462	64,39
874,866	64,91
875,27	64,63
875,674	64,21
876,078	64,14
876,482	64,66
876,886	64,74
877,29	64,54
877,694	64,26
878,097	64,13
878,501	64,62
878,904	64,24
879,308	64,16
879,711	64,34
880,114	64,53
880,517	64,41
880,92	65,12
881,323	64,24
881,726	64,35
882,128	64,63
882,531	64,48
882,934	64,59
883,336	64,55
883,738	64,4
884,141	64,52
884,543	64,86
884,945	64,12
885,347	64,7
885,749	64,33
886,151	64,7
886,552	64,36
886,954	64,47
887,355	64,31
887,757	64,29
888,158	64,43
888,56	64,6
888,961	64,35
889,362	64,46
889,763	64,43
890,164	64,55
890,565	64,22
890,965	64,3
891,366	64,37
891,767	64,33
892,167	64,4
892,567	64,3
892,968	64,47
893,368	64,35
893,768	64,29
894,168	64,74
894,568	64,34
894,968	64,54
895,368	64,25
895,767	64,58
896,167	64,14
896,566	64,3
896,966	64,65
897,365	64,3
897,764	64,19
898,164	64,59
898,563	64,9
898,962	64,44
899,361	64,22
899,759	64,57
900,158	64,69
900,557	64,72
900,955	64,25
901,354	64,56
901,752	64,17
902,15	64,44
902,548	64,81
902,947	64,72
903,345	64,34
903,742	64,24
904,14	64,76
904,538	64,86
904,936	64,43
905,333	64,33
905,731	63,86
906,128	64,77
906,525	64,32
906,923	64,27
907,32	64,53
907,717	64,16
908,114	64,61
908,511	64,66
908,907	64,45
909,304	64,2
909,701	64,66
910,097	64,76
910,494	64,38
910,89	64,3
911,286	64,49
911,682	64,47
912,078	63,95
912,474	64,2
912,87	64,22
913,266	64,34
913,662	64,56
914,058	64,76
914,453	64,52
914,849	64,48
915,244	64,73
915,639	64,42
916,034	64,35
916,43	64,22
916,825	64,07
917,22	64,5
917,614	64,26
918,009	64,43
918,404	64,22
918,798	64,98
919,193	64,32
919,587	64,63
919,982	64,77
920,376	64,4
920,77	64,3
921,164	64,81
921,558	64,74
921,952	64,27
922,346	64,38
922,74	64,09
923,133	64,02
923,527	63,65
923,92	63,88
924,314	64,31
924,707	63,96
925,1	63,79
925,493	64,78
925,886	63,89
926,279	63,89
926,672	64,14
927,065	64,76
927,457	64,16
927,85	64,02
928,243	64,45
928,635	64,44
929,027	63,84
929,42	64,58
929,812	64,61
930,204	63,65
930,596	64,04
930,988	63,9
931,379	64,04
931,771	64,14
932,163	63,97
932,554	64,02
932,946	64,23
933,337	64,57
933,729	63,69
934,12	64,33
934,511	63,92
934,902	63,75
935,293	64,67
935,684	64,18
936,075	63,59
936,465	64,53
936,856	64,23
937,246	64,13
937,637	63,86
938,027	64,53
938,417	63,7
938,808	63,78
939,198	64,48
939,588	64,2
939,978	63,91
940,368	63,46
940,757	64,46
941,147	64,03
941,537	63,89
941,926	64,39
942,315	64,29
942,705	63,93
943,094	63,31
943,483	64,57
943,872	63,28
944,261	63,32
944,65	63,23
945,039	63,33
945,428	63,31
945,816	64,08
946,205	63,68
946,593	63,16
946,982	63,34
947,37	63,07
947,758	64,53
948,146	63,04
948,534	63,41
948,922	63,75
949,31	62,88
949,698	63,44
950,086	62,46
950,473	63,45
950,861	62,72
951,248	62,55
951,636	63,94
952,023	63,63
952,41	63,14
952,797	63,36
953,184	63,71
953,571	62,85
953,958	62,91
954,345	63,29
954,731	63
955,118	63,18
955,505	62,43
955,891	62,96
956,277	63,06
956,664	62,56
957,05	62,44
957,436	62,43
957,822	62,81
958,208	62,49
958,594	62,64
958,979	62,35
959,365	61,93
959,751	62,12
960,136	62,9
960,522	63,1
960,907	62,83
961,292	62,94
961,677	62,02
962,062	62,28
962,447	62,24
962,832	62,38
963,217	62,98
963,602	62,42
963,986	62,34
964,371	62,44
964,756	62,58
965,14	62,77
965,524	62,59
965,908	61,96
966,293	63,09
966,677	62,26
967,061	62,93
967,445	61,64
967,828	62,64
968,212	62,66
968,596	62,31
968,979	62,06
969,363	62,24
969,746	62,01
970,129	62,83
970,513	62,42
970,896	62,52
971,279	62,45
971,662	62,01
972,045	62,54
972,428	62,06
972,81	63,19
973,193	63,16
973,575	62,85
973,958	62,92
974,34	63,05
974,723	62,55
975,105	62,7
975,487	62,29
975,869	62,32
976,251	62,25
976,633	63,22
977,015	62,13
977,396	63,37
977,778	62,03
978,16	62,23
978,541	61,99
978,922	63,07
979,304	62,17
979,685	62,62
980,066	62,25
980,447	63,28
980,828	62,64
981,209	62,52
981,59	62,71
981,97	62,62
982,351	62,1
982,732	62,67
983,112	62,51
983,493	62,42
983,873	62,21
984,253	62,78
984,633	62,18
985,013	62,73
985,393	63,3
985,773	62,34
986,153	62,96
986,533	62,84
986,912	62,72
987,292	61,95
987,671	62,59
988,051	62,73
988,43	62,72
988,809	62,85
989,188	62,88
989,567	62,58
989,946	62,17
990,325	62,89
990,704	62,63
991,083	62,6
991,461	62,33
991,84	63,19
992,218	63,24
992,597	61,7
992,975	62,38
993,353	63,48
993,732	62,64
994,11	63,59
994,488	62,68
994,866	62,74
995,243	62,52
995,621	62,69
995,999	62,63
996,376	62,67
996,754	63,4
997,131	63,16
997,509	62,73
997,886	62,55
998,263	62,55
998,64	62,97
999,017	62,79
999,394	63,51
999,771	62,67
1000,148	62,28
1000,524	62,92
1000,901	62,82
1001,277	62,8
1001,654	63,19
1002,03	63,43
1002,406	63,75
1002,783	63,16
1003,159	62,86
1003,535	62,71
1003,911	63,52
1004,286	63,27
1004,662	62,86
1005,038	63,16
1005,414	63,51
1005,789	63,55
1006,164	63,51
1006,54	62,94
1006,915	63,27
1007,29	63,89
1007,665	63,49
1008,04	63,39
1008,415	62,87
1008,79	63
1009,165	63,55
1009,54	62,98
1009,914	63,19
1010,289	62,76
1010,663	63,18
1011,038	63,1
1011,412	63,64
1011,786	63,16
1012,16	63,29
1012,535	62,74
1012,909	63,42
1013,282	64,22
1013,656	63,13
1014,03	63,2
1014,404	63,3
1014,777	62,87
1015,151	63,18
1015,524	62,99
1015,897	63,04
1016,271	63,79
1016,644	63,43
1017,017	63,82
1017,39	63,11
1017,763	62,66
1018,136	63,17
1018,508	63,46
1018,881	63,7
1019,254	63,58
1019,626	63,7
1019,999	62,67
1020,371	64
1020,743	63,49
1021,116	63,13
1021,488	63
1021,86	63,55
1022,232	62,88
1022,604	63,08
1022,975	63,77
1023,347	62,95
1023,719	63,3
1024,09	64,27
1024,462	64,65
1024,833	63,04
1025,204	63,68
1025,576	63,82
1025,947	63,71
1026,318	63,73
1026,689	63,54
1027,06	63,24
1027,431	63,29
1027,801	64,65
1028,172	64,2
1028,543	63,91
1028,913	64,43
1029,284	63,9
1029,654	63,42
1030,024	63,55
1030,394	63,39
1030,764	63,89
1031,135	62,77
1031,504	64,29
1031,874	63,9
1032,244	63,73
1032,614	63,46
1032,983	63,24
1033,353	64,6
1033,722	63
1034,092	64,32
1034,461	63,52
1034,83	63,27
1035,2	63,41
1035,569	63,77
1035,938	64,21
1036,307	63,48
1036,675	63,83
1037,044	63,88
1037,413	64,29
1037,781	63,87
1038,15	62,72
1038,518	63,64
1038,887	64,06
1039,255	64,03
1039,623	62,85
1039,991	63,65
1040,359	63,84
1040,727	63,74
1041,095	63,48
1041,463	63,88
1041,831	64,23
1042,198	63,97
1042,566	64,34
1042,933	63,86
1043,301	63,48
1043,668	63,88
1044,035	63,86
1044,402	63,68
1044,77	64,23
1045,137	65,22
1045,503	63,94
1045,87	62,88
1046,237	64,17
1046,604	64,37
1046,97	64,36
1047,337	63,26
1047,703	63,43
1048,07	62,93
1048,436	64,03
1048,802	64,83
1049,168	64,88
1049,534	64,63
1049,9	63,78
1050,266	64,08
1050,632	64,86
1050,998	64,24
1051,364	62,63
1051,729	64,61
1052,095	64,78
1052,46	64,45
1052,825	65,15
1053,191	64,72
1053,556	62,93
1053,921	65,11
1054,286	64,76
1054,651	63,52
1055,016	64,22
1055,381	64,3
1055,745	64,94
1056,11	65,37
1056,475	64,24
1056,839	62,48
1057,203	63,54
1057,568	64,38
1057,932	65,79
1058,296	63,62
1058,66	64,38
1059,024	63,35
1059,388	64,42
1059,752	64,28
1060,116	65,05
1060,48	64,28
1060,843	64,06
1061,207	64,51
1061,57	63,27
1061,934	66,28
1062,297	64,37
1062,66	63
1063,023	63,35
1063,386	64,32
1063,749	65,31
1064,112	64,65
1064,475	65,64
1064,838	65,14
1065,201	66,08
1065,563	64,26
1065,926	64,95
1066,288	63,53
1066,651	63,39
1067,013	64,93
1067,375	65,1
1067,737	65,05
1068,099	64,29
1068,461	63,94
1068,823	65,49
1069,185	63,49
1069,547	63,43
1069,909	64,45
1070,27	64,03
1070,632	65,08
1070,993	62,66
1071,355	64,3
1071,716	65,01
1072,077	63,51
1072,438	65,72
1072,799	63,9
1073,16	63,72
1073,521	63,34
1073,882	65,52
1074,243	65,11
1074,603	65,11
1074,964	65,51
1075,325	66,39
1075,685	64,09
1076,045	65,63
1076,406	63,81
1076,766	64,65
1077,126	64,82
1077,486	63,71
1077,846	64,59
1078,206	64,55
1078,566	62,97
1078,925	64,07
1079,285	65,25
1079,645	62,38
1080,004	64,74
1080,364	65,14
1080,723	64,92
1081,082	63,71
1081,442	63,72
1081,801	65,01
1082,16	63,23
1082,519	63,14
1082,878	62,67
1083,237	64,76
1083,595	63,13
1083,954	65,37
1084,313	62,68
1084,671	64,31
1085,03	63,56
1085,388	64,65
1085,746	62,83
1086,104	65,51
1086,463	64,99
1086,821	65,03
1087,179	62,62
1087,537	65,3
1087,894	67,49
1088,252	62,88
1088,61	64,93
1088,967	63,1
1089,325	64,46
1089,682	64,62
1090,04	62,73
1090,397	65,36
1090,754	64,91
1091,111	63,57
1091,469	65,07
1091,826	64,87
1092,182	62,92
1092,539	63,8
1092,896	66,04
1093,253	63,65
1093,609	62,96
1093,966	63,02
1094,322	66,88
1094,679	63,1
1095,035	66,55
1095,391	64,47
1095,748	65,27
1096,104	64,11
1096,46	61,76
1096,816	65,8
1097,171	63,65
1097,527	63,41
1097,883	64,17
1098,239	64,59
1098,594	64,83
1098,95	65,46
1099,305	66,27
1099,66	65,87
1100,016	65,61
1100,371	63,81
1100,726	62,45
1101,081	63,36
1101,436	64,91
1101,791	65,58
1102,146	64,21
1102,5	64,36
1102,855	62,42
1103,21	63,77
1103,564	64,23
1103,918	65,13
1104,273	63,06
1104,627	64,81
1104,981	64,27
1105,335	64,92
1105,69	62,98
1106,043	68,23
1106,397	66,06
1106,751	66,76
1107,105	63,97
1107,459	62,19
1107,812	62,18
1108,166	65,42
1108,519	64,78
1108,873	63,36
1109,226	63,85
1109,579	64,45
1109,932	63,17
1110,285	65,77
1110,638	64,09
1110,991	63,48
1111,344	64,08
1111,697	65,01
1112,05	63,43
1112,402	66,14
1112,755	64,3
1113,107	66,59
1113,46	63,13
1113,812	63,69
1114,164	63,87
1114,517	66,22
1114,869	68,22
1115,221	85,09
1115,573	85,58
1115,924	65,55
