Data from E4__Relative__1__00005.txt Node

Date: Fri Feb 02 12:32:04 CET 2024
User: diatiterra
Spectrometer: HDX00911
Trigger mode: 0
Integration Time (sec): 6,000000E-3
Scans to average: 2
Nonlinearity correction enabled: false
Boxcar width: 0
Storing dark spectrum: false
XAxis mode: Wavelengths
Number of Pixels in Spectrum: 2068
>>>>>Begin Spectral Data<<<<<
194,468	74,6
195,025	53,79
195,581	76,42
196,138	56,06
196,694	66,33
197,251	60,25
197,807	63,47
198,363	60,62
198,919	51,58
199,474	49,52
200,03	58,79
200,586	50,47
201,141	53,02
201,696	54,97
202,251	52,04
202,806	51,3
203,361	55,94
203,916	47,93
204,471	53,7
205,025	50,89
205,58	55,29
206,134	44,51
206,688	54,61
207,242	47,22
207,796	56,08
208,35	48,94
208,904	49,85
209,457	45,78
210,011	58,44
210,564	53,4
211,117	54,23
211,67	53,59
212,223	60,32
212,776	56,11
213,329	54,66
213,881	61,41
214,434	41,92
214,986	51,44
215,538	54,72
216,09	50,17
216,642	53,31
217,194	53,66
217,746	53,31
218,297	54,95
218,849	48,52
219,4	57,86
219,951	58,56
220,502	54,21
221,053	59,64
221,604	62,27
222,155	50,65
222,705	54,75
223,256	62,98
223,806	56,03
224,356	58,6
224,906	49,37
225,456	51,5
226,006	52,85
226,556	52,56
227,106	54,18
227,655	49,69
228,204	50,89
228,754	56,78
229,303	54
229,852	53,6
230,401	57,1
230,949	57,01
231,498	54,33
232,047	53,38
232,595	54,46
233,143	47,01
233,691	57,69
234,239	49,24
234,787	54,98
235,335	45,42
235,883	52,94
236,43	52,61
236,978	56,91
237,525	51,57
238,072	50,46
238,619	49,38
239,166	55,34
239,713	55,9
240,26	45,96
240,806	53,7
241,353	53,47
241,899	52,24
242,445	52,05
242,991	58,77
243,537	54,39
244,083	49,2
244,629	48,75
245,174	55,13
245,72	53,75
246,265	57,38
246,81	57,43
247,355	58,59
247,9	52,46
248,445	52,58
248,99	54,58
249,534	55,48
250,079	57,57
250,623	56,23
251,168	57,48
251,712	55,84
252,256	55,7
252,8	49,06
253,343	55,52
253,887	50,47
254,43	49,67
254,974	54,93
255,517	60
256,06	57,33
256,603	52,7
257,146	53,27
257,689	54,24
258,232	62,7
258,774	57,88
259,317	51,3
259,859	53,33
260,401	57,24
260,943	59,04
261,485	52,67
262,027	58,06
262,569	57,1
263,11	52,27
263,652	55,97
264,193	53,92
264,734	65,38
265,275	53,29
265,816	53,04
266,357	58,56
266,898	51,68
267,438	54,33
267,979	58,74
268,519	51,62
269,059	53,29
269,6	56,67
270,14	53,92
270,68	54,58
271,219	55,03
271,759	52,82
272,298	56,23
272,838	55,95
273,377	52,7
273,916	59,39
274,455	57,84
274,994	61,85
275,533	53,36
276,072	63,24
276,61	55,43
277,149	57,95
277,687	50,83
278,225	57,14
278,763	56,06
279,301	53,96
279,839	56
280,377	57,44
280,914	55,48
281,452	52,7
281,989	55,89
282,526	54,26
283,064	60,57
283,601	48,45
284,137	54,11
284,674	47,73
285,211	49,24
285,747	58,76
286,284	55,14
286,82	52,56
287,356	56,23
287,892	57,82
288,428	52,46
288,964	56,68
289,5	57,64
290,035	53,72
290,571	49,66
291,106	50,17
291,641	54,42
292,176	52,23
292,711	59,4
293,246	54,14
293,781	51,24
294,315	52,11
294,85	51,48
295,384	51,25
295,918	50,34
296,453	46,18
296,987	54,33
297,52	56,2
298,054	55,48
298,588	52,4
299,121	56,69
299,655	54,72
300,188	52,5
300,721	51,85
301,254	62,55
301,787	52,78
302,32	59,45
302,853	56,76
303,385	60,07
303,918	59,44
304,45	55,31
304,982	48,58
305,514	65,4
306,046	52,17
306,578	55,48
307,11	57,56
307,641	44,22
308,173	61,31
308,704	57,63
309,236	51,19
309,767	51,37
310,298	54,29
310,829	59,21
311,359	49,67
311,89	46,9
312,421	47,99
312,951	45,74
313,481	55,06
314,012	54,91
314,542	55,86
315,072	49,42
315,601	48,4
316,131	53,26
316,661	45,64
317,19	57,89
317,72	50,65
318,249	53,82
318,778	60,07
319,307	56,07
319,836	60,51
320,365	56,41
320,893	51,94
321,422	54,33
321,95	55,86
322,479	56,1
323,007	57,64
323,535	51,13
324,063	50,8
324,591	58,39
325,118	54,02
325,646	58,27
326,173	49,16
326,701	59,51
327,228	62,25
327,755	50,82
328,282	52,79
328,809	47,22
329,336	60,42
329,862	45,14
330,389	53,29
330,915	54,03
331,441	56,55
331,968	51,01
332,494	50,82
333,02	48,64
333,545	55,66
334,071	51,89
334,597	45,83
335,122	49,37
335,648	56,82
336,173	47,23
336,698	45,4
337,223	45,48
337,748	43,91
338,272	50,94
338,797	54,9
339,322	48,62
339,846	45,71
340,37	42,8
340,894	43,71
341,419	51,59
341,942	44,27
342,466	53,37
342,99	44,51
343,514	48,89
344,037	38,2
344,56	42,11
345,084	39,66
345,607	41,84
346,13	47,81
346,653	43,1
347,175	40,66
347,698	43,14
348,221	44,41
348,743	38,71
349,265	39,73
349,787	38,87
350,309	42,7
350,831	40,35
351,353	38,78
351,875	40,52
352,397	37,97
352,918	37,24
353,439	34,81
353,961	39,01
354,482	34,95
355,003	39,24
355,524	39,39
356,044	37,62
356,565	39,3
357,086	33,85
357,606	39,03
358,126	40,61
358,646	39,76
359,167	36,07
359,687	36,63
360,206	34,09
360,726	34,93
361,246	33,54
361,765	36,65
362,285	34,47
362,804	38,85
363,323	33,81
363,842	30,17
364,361	35,36
364,88	32,79
365,398	34,29
365,917	34,71
366,435	32,35
366,954	28,51
367,472	32,77
367,99	29,26
368,508	29,6
369,026	29,19
369,544	31,69
370,061	31,49
370,579	27,54
371,096	28,84
371,613	30,25
372,131	30,23
372,648	27,23
373,165	30,72
373,681	29,35
374,198	26,42
374,715	27,91
375,231	28,82
375,747	28,36
376,264	26,41
376,78	27,29
377,296	27,17
377,812	25,42
378,327	26,35
378,843	26,94
379,359	25,7
379,874	24,27
380,389	27,22
380,905	26,42
381,42	25,32
381,935	23,63
382,449	22,87
382,964	24,94
383,479	21,59
383,993	20,67
384,508	23,56
385,022	21,55
385,536	21,77
386,05	21,76
386,564	21,71
387,078	21,31
387,592	20,47
388,105	20,59
388,619	18,05
389,132	19,49
389,645	19,45
390,158	19,81
390,671	19,49
391,184	19,12
391,697	19,6
392,21	20,12
392,722	19,23
393,235	18,2
393,747	17,17
394,259	19,4
394,771	17,77
395,283	17,84
395,795	18,84
396,307	17,66
396,818	14,9
397,33	18,71
397,841	17,11
398,353	16,48
398,864	15,93
399,375	16,51
399,886	13,74
400,397	15,56
400,907	14,52
401,418	14,66
401,928	14,71
402,439	13,7
402,949	14,91
403,459	14,62
403,969	12,36
404,479	12,66
404,989	13,61
405,498	13,8
406,008	12,66
406,517	12,08
407,027	12,41
407,536	11,28
408,045	11,79
408,554	10,64
409,063	10,77
409,572	10,54
410,08	9,3
410,589	9,85
411,097	9,56
411,606	9,33
412,114	8,88
412,622	8,49
413,13	8,62
413,638	7,54
414,145	7,71
414,653	7,78
415,16	7,48
415,668	7,25
416,175	7,41
416,682	6,65
417,189	6,94
417,696	6,58
418,203	6,85
418,71	6,93
419,216	6,39
419,723	5,96
420,229	6,23
420,735	6,44
421,242	6,4
421,748	6,06
422,254	6,25
422,759	5,77
423,265	5,9
423,771	5,89
424,276	5,97
424,781	6,17
425,287	5,98
425,792	5,92
426,297	5,53
426,802	5,4
427,306	5,71
427,811	5,73
428,316	5,6
428,82	5,78
429,324	6,19
429,829	5,35
430,333	5,58
430,837	5,33
431,34	5,41
431,844	5,36
432,348	5,16
432,851	5,02
433,355	5,1
433,858	5,07
434,361	5,2
434,864	5,45
435,367	5,11
435,87	5,25
436,373	5,24
436,876	5,08
437,378	5,3
437,88	4,94
438,383	5,2
438,885	5,16
439,387	5,08
439,889	5,08
440,391	5,04
440,892	5,1
441,394	5,4
441,896	5,04
442,397	5,17
442,898	4,81
443,399	5,35
443,9	5,17
444,401	4,91
444,902	4,89
445,403	5,25
445,903	5,07
446,404	4,95
446,904	4,92
447,405	5,08
447,905	4,97
448,405	5,2
448,905	5,15
449,404	5,32
449,904	5,06
450,404	5,18
450,903	5
451,403	5,25
451,902	5,11
452,401	4,95
452,9	5,16
453,399	5,35
453,898	5,25
454,396	5,17
454,895	5,17
455,393	5,26
455,892	5,24
456,39	5,26
456,888	5,16
457,386	5,28
457,884	5,4
458,382	5,38
458,879	5,22
459,377	5,63
459,874	5,38
460,372	5,11
460,869	5,44
461,366	5,19
461,863	5,38
462,36	5,4
462,857	5,13
463,353	5,35
463,85	5,31
464,346	5,51
464,843	5,3
465,339	5,07
465,835	5,2
466,331	5,02
466,827	5,46
467,323	5,4
467,818	5,06
468,314	5,22
468,809	5,19
469,305	5,21
469,8	5,3
470,295	5,32
470,79	5,26
471,285	5,46
471,78	5,06
472,274	5,16
472,769	5,13
473,263	5,06
473,758	5,11
474,252	5,28
474,746	5,31
475,24	5,11
475,734	5,26
476,228	5,28
476,721	5,16
477,215	5,12
477,708	5,37
478,202	5,19
478,695	5,29
479,188	5,32
479,681	5,29
480,174	5,22
480,667	5,33
481,159	5,38
481,652	5,32
482,144	5,41
482,637	5,44
483,129	5,37
483,621	5,31
484,113	5,43
484,605	5,49
485,097	5,2
485,588	5,3
486,08	5,48
486,571	5,32
487,063	5,52
487,554	5,45
488,045	5,54
488,536	5,31
489,027	5,37
489,518	5,72
490,008	5,43
490,499	5,41
490,989	5,5
491,48	5,47
491,97	5,67
492,46	5,64
492,95	5,6
493,44	5,89
493,93	5,93
494,419	5,74
494,909	5,74
495,398	5,84
495,888	6,02
496,377	6,22
496,866	5,99
497,355	5,96
497,844	6,24
498,333	6,43
498,821	6,25
499,31	6,3
499,798	6,48
500,287	6,62
500,775	6,62
501,263	6,69
501,751	6,81
502,239	6,75
502,727	6,89
503,215	7,02
503,702	7,11
504,19	7,07
504,677	7,38
505,164	7,34
505,651	7,52
506,139	7,65
506,625	7,85
507,112	7,86
507,599	8,12
508,086	8,25
508,572	8,4
509,058	8,37
509,545	8,65
510,031	8,79
510,517	8,85
511,003	9,07
511,489	9,35
511,974	9,61
512,46	9,89
512,946	10,03
513,431	10,22
513,916	10,62
514,401	10,77
514,887	10,92
515,371	10,81
515,856	11,36
516,341	11,61
516,826	11,6
517,31	11,96
517,795	12,16
518,279	12,51
518,763	12,7
519,247	13,2
519,731	13,31
520,215	13,36
520,699	14,02
521,182	14,28
521,666	14,49
522,149	14,84
522,633	15,36
523,116	15,38
523,599	15,51
524,082	15,79
524,565	16,41
525,048	16,62
525,53	16,58
526,013	17,13
526,495	17,22
526,978	17,81
527,46	17,86
527,942	18,45
528,424	18,7
528,906	18,66
529,388	18,9
529,87	19,53
530,351	19,21
530,833	19,43
531,314	19,86
531,795	19,6
532,277	19,96
532,758	20,35
533,238	20,45
533,719	20,43
534,2	20,63
534,681	20,78
535,161	20,61
535,642	20,91
536,122	21,09
536,602	21,29
537,082	21,11
537,562	21,18
538,042	21,53
538,522	21,57
539,001	21,71
539,481	21,59
539,96	21,61
540,44	21,44
540,919	21,93
541,398	21,83
541,877	22,13
542,356	21,97
542,835	21,9
543,313	22,27
543,792	22,16
544,27	22,25
544,749	22,16
545,227	22,28
545,705	22,31
546,183	22,17
546,661	22,23
547,139	22,57
547,616	22,62
548,094	22,58
548,571	22,56
549,049	22,88
549,526	22,8
550,003	22,83
550,48	22,87
550,957	22,73
551,434	23,03
551,911	23,33
552,387	23,13
552,864	22,9
553,34	22,94
553,817	22,83
554,293	22,94
554,769	23,22
555,245	23,11
555,721	22,9
556,197	22,96
556,672	22,81
557,148	22,68
557,623	22,94
558,099	22,85
558,574	22,74
559,049	22,87
559,524	22,66
559,999	22,79
560,474	22,41
560,948	22,28
561,423	22,57
561,897	22,07
562,372	22,19
562,846	22,05
563,32	21,93
563,794	21,89
564,268	21,88
564,742	21,39
565,216	21,29
565,69	21,41
566,163	21,07
566,636	20,98
567,11	20,9
567,583	20,61
568,056	20,33
568,529	20,31
569,002	20,28
569,475	20,11
569,947	19,94
570,42	19,47
570,892	19,16
571,365	19,24
571,837	19,08
572,309	18,86
572,781	18,69
573,253	18,56
573,725	18,24
574,197	18,08
574,668	18,06
575,14	17,97
575,611	17,67
576,082	17,61
576,554	17,55
577,025	17,16
577,496	17,06
577,967	16,94
578,437	16,95
578,908	16,8
579,379	16,54
579,849	16,62
580,319	16,5
580,79	16,14
581,26	16,22
581,73	15,94
582,2	15,84
582,669	15,73
583,139	15,9
583,609	15,72
584,078	15,69
584,548	15,21
585,017	15,56
585,486	15,26
585,955	15,05
586,424	15,11
586,893	14,88
587,362	15,02
587,83	14,84
588,299	14,7
588,767	14,74
589,236	14,7
589,704	14,43
590,172	14,65
590,64	14,51
591,108	14,11
591,576	14,35
592,043	14,23
592,511	14,26
592,978	13,94
593,446	13,96
593,913	14,22
594,38	14,08
594,847	13,91
595,314	13,97
595,781	13,88
596,248	13,86
596,715	13,85
597,181	13,86
597,647	13,92
598,114	13,86
598,58	13,67
599,046	13,75
599,512	13,63
599,978	13,67
600,444	13,37
600,91	13,61
601,375	13,56
601,841	13,58
602,306	13,62
602,771	13,47
603,236	13,32
603,702	13,35
604,167	13,27
604,631	13,34
605,096	13,29
605,561	13,22
606,025	13,02
606,49	12,85
606,954	12,83
607,418	12,79
607,882	12,71
608,347	12,79
608,81	12,57
609,274	12,43
609,738	12,45
610,202	12,38
610,665	12,33
611,128	12,09
611,592	12,26
612,055	12,05
612,518	11,81
612,981	11,9
613,444	11,88
613,907	11,89
614,369	11,73
614,832	11,5
615,294	11,52
615,757	11,44
616,219	11,36
616,681	11,16
617,143	11,2
617,605	11,05
618,067	11,05
618,529	11,01
618,99	10,96
619,452	10,92
619,913	10,88
620,375	10,93
620,836	10,7
621,297	10,54
621,758	10,79
622,219	10,65
622,68	10,61
623,14	10,45
623,601	10,48
624,061	10,46
624,522	10,34
624,982	10,33
625,442	10,48
625,902	10,43
626,362	10,31
626,822	10,27
627,282	10,34
627,742	10,23
628,201	10,27
628,661	10,23
629,12	10,18
629,579	10,17
630,038	10,18
630,497	10,07
630,956	10,04
631,415	10,26
631,874	10,12
632,332	9,99
632,791	10,03
633,249	9,92
633,708	9,94
634,166	10,06
634,624	9,96
635,082	9,96
635,54	9,72
635,998	9,72
636,455	9,64
636,913	9,44
637,37	9,6
637,828	9,42
638,285	9,45
638,742	9,29
639,199	9,29
639,656	9,21
640,113	9,11
640,57	9
641,027	8,82
641,483	8,81
641,94	8,73
642,396	8,69
642,852	8,6
643,309	8,49
643,765	8,27
644,221	8,28
644,676	8,2
645,132	8,16
645,588	8,05
646,043	8,03
646,499	7,87
646,954	7,84
647,409	7,75
647,864	7,81
648,319	7,57
648,774	7,59
649,229	7,51
649,684	7,41
650,139	7,41
650,593	7,37
651,047	7,31
651,502	7,28
651,956	7,23
652,41	7,14
652,864	7,13
653,318	7,17
653,772	6,98
654,225	7,04
654,679	7,01
655,133	7,05
655,586	6,96
656,039	7,04
656,492	6,86
656,946	6,85
657,399	6,8
657,851	6,75
658,304	6,57
658,757	6,65
659,209	6,59
659,662	6,62
660,114	6,4
660,567	6,47
661,019	6,33
661,471	6,31
661,923	6,31
662,375	6,31
662,826	6,19
663,278	6,12
663,73	6,16
664,181	6,21
664,632	5,98
665,084	6,03
665,535	6,02
665,986	6
666,437	6,04
666,888	5,95
667,338	5,96
667,789	5,91
668,24	5,92
668,69	6,07
669,14	5,88
669,591	5,97
670,041	6
670,491	6,01
670,941	6,06
671,391	6,13
671,84	6,15
672,29	6,16
672,74	6,24
673,189	6,28
673,638	6,43
674,088	6,39
674,537	6,48
674,986	6,5
675,435	6,75
675,883	6,77
676,332	6,87
676,781	6,94
677,229	6,98
677,678	7,06
678,126	7,18
678,574	7,27
679,022	7,41
679,47	7,47
679,918	7,56
680,366	7,67
680,814	7,86
681,261	7,94
681,709	8,05
682,156	8,05
682,604	8,22
683,051	8,45
683,498	8,47
683,945	8,64
684,392	8,68
684,839	8,84
685,286	8,83
685,732	8,95
686,179	9,16
686,625	9,17
687,071	9,48
687,518	9,49
687,964	9,66
688,41	9,71
688,856	9,83
689,301	10,05
689,747	10,36
690,193	10,64
690,638	10,86
691,084	11,16
691,529	11,41
691,974	11,64
692,419	12,03
692,864	12,46
693,309	12,87
693,754	13,22
694,199	13,67
694,643	14,16
695,088	14,42
695,532	15,01
695,977	15,5
696,421	15,88
696,865	16,27
697,309	17,07
697,753	17,45
698,197	18,13
698,64	18,61
699,084	19,16
699,527	19,81
699,971	20,48
700,414	20,86
700,857	21,64
701,3	22,14
701,743	22,77
702,186	23,44
702,629	24,08
703,072	24,63
703,515	25,25
703,957	25,84
704,399	26,22
704,842	27,05
705,284	27,32
705,726	28,32
706,168	28,59
706,61	29,27
707,052	29,89
707,494	30,15
707,935	31,01
708,377	31,5
708,818	32,17
709,26	32,86
709,701	33,57
710,142	33,92
710,583	34,27
711,024	35,02
711,465	35,49
711,905	36,12
712,346	36,76
712,787	37,14
713,227	37,73
713,667	38,25
714,108	39,05
714,548	39,58
714,988	40,02
715,428	40,58
715,868	41,13
716,307	41,54
716,747	42,02
717,186	42,42
717,626	43,17
718,065	43,42
718,504	44,11
718,944	44,63
719,383	44,9
719,822	45,44
720,261	46,33
720,699	46,45
721,138	47,15
721,576	47,44
722,015	47,81
722,453	48,12
722,892	48,5
723,33	49,11
723,768	49,36
724,206	49,77
724,644	50,22
725,081	50,69
725,519	50,84
725,957	51,38
726,394	51,74
726,832	52,48
727,269	52,44
727,706	52,69
728,143	53,32
728,58	53,33
729,017	53,79
729,454	54,21
729,89	54,41
730,327	54,73
730,764	54,99
731,2	55,07
731,636	55,36
732,072	55,7
732,509	55,58
732,945	56,09
733,38	56,07
733,816	56,09
734,252	56,69
734,688	56,83
735,123	56,95
735,559	57,66
735,994	57,14
736,429	57,53
736,864	57,63
737,299	58,04
737,734	57,96
738,169	58,14
738,604	58,4
739,038	58,61
739,473	58,88
739,907	58,91
740,342	58,65
740,776	59,13
741,21	58,87
741,644	58,81
742,078	58,94
742,512	59,09
742,946	59,12
743,379	59,7
743,813	59,42
744,246	59,23
744,68	59,44
745,113	59,38
745,546	59,45
745,979	59,98
746,412	59,77
746,845	59,98
747,278	59,56
747,711	59,35
748,143	60,1
748,576	59,69
749,008	59,77
749,441	59,67
749,873	59,55
750,305	59,91
750,737	59,5
751,169	59,56
751,601	59,78
752,032	59,75
752,464	59,42
752,896	59,66
753,327	59,49
753,758	59,44
754,19	59,76
754,621	59,61
755,052	59,81
755,483	59,41
755,914	59,51
756,344	59,41
756,775	59,83
757,206	59,27
757,636	59,55
758,066	59,76
758,497	59,55
758,927	59,57
759,357	59,67
759,787	59,29
760,217	59,37
760,647	59,31
761,076	59,11
761,506	59,15
761,935	59,17
762,365	59,04
762,794	59,29
763,223	59,28
763,653	59,2
764,082	59,38
764,51	59,19
764,939	58,8
765,368	59,23
765,797	59,38
766,225	58,8
766,654	58,87
767,082	59,07
767,51	59,17
767,938	58,71
768,367	58,95
768,795	58,76
769,222	58,79
769,65	58,76
770,078	58,57
770,505	58,39
770,933	58,72
771,36	58,71
771,788	58,75
772,215	58,57
772,642	58,87
773,069	58,61
773,496	58,87
773,923	58,41
774,349	58,73
774,776	58,59
775,203	58,51
775,629	58,34
776,055	58,68
776,482	58,34
776,908	58,09
777,334	58,75
777,76	58,38
778,186	58,6
778,611	58,66
779,037	58,7
779,463	58,02
779,888	58,3
780,314	58,23
780,739	58,46
781,164	58,19
781,589	57,9
782,014	58,07
782,439	58,27
782,864	58,32
783,289	58,02
783,713	58,45
784,138	57,83
784,562	58,18
784,987	58,24
785,411	58,17
785,835	58,02
786,259	57,98
786,683	57,87
787,107	57,85
787,531	58,24
787,954	58,54
788,378	58,24
788,802	58,12
789,225	58,15
789,648	57,97
790,071	58,3
790,495	58,14
790,918	58,39
791,34	58,37
791,763	58,16
792,186	58,33
792,609	58,21
793,031	58,14
793,454	58,13
793,876	57,92
794,298	58,18
794,721	58,18
795,143	57,96
795,565	58,24
795,986	57,95
796,408	57,93
796,83	57,81
797,252	58,21
797,673	58,16
798,094	58,07
798,516	58,14
798,937	58,19
799,358	57,72
799,779	58,12
800,2	57,86
800,621	58,13
801,042	57,79
801,462	57,82
801,883	57,87
802,303	57,87
802,724	57,83
803,144	57,93
803,564	57,77
803,984	58,01
804,404	58,01
804,824	58,02
805,244	58,15
805,664	57,95
806,084	57,98
806,503	57,96
806,923	57,8
807,342	57,6
807,761	58,19
808,18	57,87
808,599	57,69
809,018	57,73
809,437	57,87
809,856	57,8
810,275	57,58
810,693	57,87
811,112	57,69
811,53	57,95
811,949	57,92
812,367	57,73
812,785	57,98
813,203	58,07
813,621	58,12
814,039	57,84
814,457	58,04
814,874	58,03
815,292	57,9
815,709	57,64
816,127	57,69
816,544	57,73
816,961	57,89
817,378	57,47
817,795	57,6
818,212	57,92
818,629	57,52
819,046	57,83
819,462	57,68
819,879	57,69
820,295	57,68
820,712	58,19
821,128	57,69
821,544	57,74
821,96	57,81
822,376	57,7
822,792	57,64
823,208	57,48
823,624	57,9
824,039	57,5
824,455	57,78
824,87	57,68
825,286	57,79
825,701	57,93
826,116	57,53
826,531	57,44
826,946	57,77
827,361	57,58
827,776	58,12
828,19	58,1
828,605	57,56
829,02	57,31
829,434	57,89
829,848	57,98
830,263	57,76
830,677	57,48
831,091	57,52
831,505	57,6
831,919	57,94
832,332	57,85
832,746	57,57
833,16	57,37
833,573	57,56
833,987	57,59
834,4	57,75
834,813	57,86
835,226	57,79
835,639	57,82
836,052	57,96
836,465	57,88
836,878	57,67
837,29	57,73
837,703	58,15
838,116	57,72
838,528	57,59
838,94	57,69
839,352	57,87
839,765	57,63
840,177	58,01
840,589	57,55
841	57,21
841,412	57,7
841,824	57,98
842,235	57,51
842,647	57,65
843,058	57,89
843,47	57,88
843,881	57,58
844,292	57,98
844,703	57,64
845,114	57,21
845,525	57,42
845,935	57,64
846,346	58
846,757	57,77
847,167	57,6
847,577	57,75
847,988	57,67
848,398	57,6
848,808	57,68
849,218	57,69
849,628	57,73
850,038	57,67
850,448	57,49
850,857	57,58
851,267	57,45
851,676	57,87
852,086	57,58
852,495	57,67
852,904	57,45
853,313	57,74
853,722	57,97
854,131	57,83
854,54	57,56
854,949	57,84
855,357	57,37
855,766	57,73
856,174	57,58
856,583	57,28
856,991	57,87
857,399	57,8
857,807	57,74
858,215	57,61
858,623	57,9
859,031	57,66
859,439	57,88
859,846	57,55
860,254	57,57
860,661	57,47
861,069	57,65
861,476	57,52
861,883	57,71
862,29	57,6
862,697	57,4
863,104	57,48
863,511	57,67
863,918	57,78
864,325	57,42
864,731	57,4
865,138	57,66
865,544	57,9
865,95	58,14
866,357	57,12
866,763	58,04
867,169	57,61
867,575	57,66
867,98	57,96
868,386	57,34
868,792	57,41
869,197	57,65
869,603	57,61
870,008	57,3
870,414	57,81
870,819	57,56
871,224	58,12
871,629	57,73
872,034	57,66
872,439	57,78
872,844	57,9
873,248	57,64
873,653	57,35
874,057	57,36
874,462	57,23
874,866	57,63
875,27	57,81
875,674	57,4
876,078	57,51
876,482	57,79
876,886	57,83
877,29	57,88
877,694	57,58
878,097	57,73
878,501	57,51
878,904	57,24
879,308	57,13
879,711	57,87
880,114	57,86
880,517	57,66
880,92	58,24
881,323	57,06
881,726	57,39
882,128	57,79
882,531	57,35
882,934	58,14
883,336	57,36
883,738	57,75
884,141	58,12
884,543	57,88
884,945	57,5
885,347	57,66
885,749	57,69
886,151	57,81
886,552	57,81
886,954	57,57
887,355	57,49
887,757	57,31
888,158	57,72
888,56	57,63
888,961	57,73
889,362	57,7
889,763	57,53
890,164	57,69
890,565	57,65
890,965	57,69
891,366	57,62
891,767	57,48
892,167	57,33
892,567	57,85
892,968	57,66
893,368	57,82
893,768	57,58
894,168	57,72
894,568	57,97
894,968	57,7
895,368	57,46
895,767	57,7
896,167	57,56
896,566	57,31
896,966	57,85
897,365	57,53
897,764	58,05
898,164	57,94
898,563	57,69
898,962	57,73
899,361	57,8
899,759	57,58
900,158	57,73
900,557	57,7
900,955	57,55
901,354	57,31
901,752	57,65
902,15	57,94
902,548	57,89
902,947	57,78
903,345	57,71
903,742	57,61
904,14	57,92
904,538	57,7
904,936	57,61
905,333	57,61
905,731	57,48
906,128	57,96
906,525	57,42
906,923	57,46
907,32	57,57
907,717	57,84
908,114	57,72
908,511	57,78
908,907	57,72
909,304	57,44
909,701	57,72
910,097	58,05
910,494	57,44
910,89	58,04
911,286	57,62
911,682	57,81
912,078	57,47
912,474	57,34
912,87	57,41
913,266	57,6
913,662	58,1
914,058	58,07
914,453	57,68
914,849	57,94
915,244	58,23
915,639	58,03
916,034	57,45
916,43	57,03
916,825	57,39
917,22	57,66
917,614	57,96
918,009	57,69
918,404	57,62
918,798	58,32
919,193	57,72
919,587	57,62
919,982	58
920,376	57,56
920,77	57,64
921,164	58,36
921,558	57,79
921,952	57,5
922,346	57,71
922,74	57,72
923,133	57,36
923,527	57,6
923,92	57,16
924,314	57,13
924,707	57,62
925,1	57,57
925,493	58,23
925,886	57,38
926,279	57,43
926,672	57,34
927,065	57,75
927,457	57,4
927,85	56,9
928,243	57,75
928,635	57,44
929,027	57,37
929,42	57,7
929,812	57,28
930,204	57,56
930,596	57,33
930,988	57,87
931,379	57,48
931,771	57,72
932,163	57,61
932,554	57,23
932,946	57,5
933,337	57,86
933,729	57,02
934,12	57,14
934,511	57,48
934,902	57,12
935,293	57,3
935,684	57,26
936,075	57,06
936,465	57,64
936,856	56,98
937,246	57,58
937,637	56,91
938,027	57,12
938,417	57,28
938,808	57,02
939,198	57,28
939,588	57,26
939,978	56,87
940,368	56,44
940,757	57,86
941,147	57,12
941,537	57,19
941,926	57,1
942,315	57,56
942,705	57,23
943,094	56,43
943,483	57,49
943,872	56,66
944,261	56,89
944,65	56,76
945,039	57,28
945,428	56,87
945,816	57,3
946,205	57,4
946,593	56,76
946,982	56,79
947,37	57,04
947,758	57,21
948,146	57,5
948,534	56,55
948,922	56,35
949,31	57,01
949,698	57,24
950,086	57
950,473	56,8
950,861	56,58
951,248	56,93
951,636	56,95
952,023	56,67
952,41	57,06
952,797	56,26
953,184	56,53
953,571	57,41
953,958	57,09
954,345	56,74
954,731	56,78
955,118	57,33
955,505	56,34
955,891	56,52
956,277	56,88
956,664	56,47
957,05	56,51
957,436	56,4
957,822	56,65
958,208	56
958,594	56,79
958,979	56,61
959,365	56,35
959,751	56,56
960,136	56,69
960,522	56,42
960,907	56,36
961,292	57,1
961,677	56,34
962,062	56,18
962,447	56,49
962,832	56,21
963,217	56,73
963,602	56,13
963,986	56,58
964,371	56,4
964,756	56,37
965,14	56,63
965,524	56,08
965,908	56,37
966,293	57,08
966,677	55,92
967,061	56,99
967,445	56,19
967,828	56,33
968,212	57,02
968,596	56,67
968,979	56,24
969,363	56,55
969,746	56,25
970,129	56,99
970,513	56,53
970,896	56,84
971,279	56,09
971,662	56,6
972,045	56,47
972,428	56,08
972,81	56,85
973,193	56,93
973,575	56,99
973,958	56,58
974,34	56,67
974,723	56,51
975,105	56,34
975,487	55,94
975,869	55,83
976,251	56,44
976,633	56,93
977,015	56,43
977,396	56,97
977,778	56,25
978,16	56,13
978,541	55,89
978,922	56,69
979,304	56,2
979,685	56,18
980,066	56,12
980,447	56,84
980,828	56,64
981,209	56,06
981,59	57,12
981,97	56,47
982,351	56,44
982,732	57,26
983,112	56,73
983,493	56,43
983,873	56,22
984,253	56,9
984,633	56,4
985,013	56,65
985,393	56,82
985,773	56,68
986,153	57,01
986,533	56,59
986,912	57,1
987,292	56,06
987,671	56,95
988,051	56,56
988,43	56,69
988,809	56,92
989,188	56,44
989,567	57,03
989,946	56,33
990,325	57,19
990,704	56,22
991,083	56,16
991,461	56,85
991,84	56,48
992,218	56,47
992,597	56,36
992,975	55,83
993,353	57,18
993,732	57,02
994,11	57
994,488	56,59
994,866	56,59
995,243	56,15
995,621	56,93
995,999	56,54
996,376	56,65
996,754	56,55
997,131	57,04
997,509	56,54
997,886	56,73
998,263	55,96
998,64	56,83
999,017	57,1
999,394	57,2
999,771	56,27
1000,148	56,91
1000,524	56,21
1000,901	56,17
1001,277	56,95
1001,654	56,58
1002,03	57,22
1002,406	56,64
1002,783	57,19
1003,159	56,7
1003,535	56,84
1003,911	56,68
1004,286	57,16
1004,662	57,47
1005,038	56,59
1005,414	56,87
1005,789	56,9
1006,164	56,77
1006,54	57,12
1006,915	56,75
1007,29	57,52
1007,665	56,79
1008,04	57,11
1008,415	56,56
1008,79	56,99
1009,165	56,87
1009,54	57,18
1009,914	57,13
1010,289	56,31
1010,663	56,73
1011,038	56,72
1011,412	57,08
1011,786	56,95
1012,16	56,75
1012,535	56,26
1012,909	56,86
1013,282	57,67
1013,656	56,32
1014,03	56,55
1014,404	57,1
1014,777	57,09
1015,151	57,7
1015,524	57,3
1015,897	57,06
1016,271	57,31
1016,644	57,76
1017,017	57,84
1017,39	56,99
1017,763	56,89
1018,136	56,17
1018,508	57,06
1018,881	57,39
1019,254	56,72
1019,626	57,08
1019,999	56,92
1020,371	58,46
1020,743	56,96
1021,116	56,71
1021,488	57,08
1021,86	56,98
1022,232	56,6
1022,604	56,69
1022,975	57,26
1023,347	57,05
1023,719	57,15
1024,09	57,63
1024,462	57,34
1024,833	57,24
1025,204	57,58
1025,576	57,47
1025,947	57,52
1026,318	57,55
1026,689	57,5
1027,06	57,43
1027,431	57,21
1027,801	56,31
1028,172	57,77
1028,543	57,83
1028,913	57,75
1029,284	56,95
1029,654	57,06
1030,024	57,55
1030,394	56,24
1030,764	56,5
1031,135	56,81
1031,504	57,89
1031,874	57,8
1032,244	57,57
1032,614	57
1032,983	57,29
1033,353	57,1
1033,722	57,14
1034,092	57,96
1034,461	57,34
1034,83	57,46
1035,2	57,3
1035,569	57,74
1035,938	57,63
1036,307	57,65
1036,675	56,72
1037,044	57,39
1037,413	57,6
1037,781	57,71
1038,15	57,31
1038,518	56,96
1038,887	56,83
1039,255	57,57
1039,623	57,13
1039,991	57,51
1040,359	57,83
1040,727	57,48
1041,095	57,49
1041,463	58,09
1041,831	58,12
1042,198	58,02
1042,566	57,66
1042,933	56,92
1043,301	57,47
1043,668	57,38
1044,035	56,73
1044,402	57,84
1044,77	57
1045,137	57,89
1045,503	57,76
1045,87	56,84
1046,237	57,57
1046,604	58,16
1046,97	57,68
1047,337	58,55
1047,703	57,16
1048,07	56,84
1048,436	57,92
1048,802	57,53
1049,168	57,91
1049,534	57,91
1049,9	57,09
1050,266	57,14
1050,632	57,96
1050,998	57,51
1051,364	57
1051,729	58,13
1052,095	58,02
1052,46	57,83
1052,825	57,96
1053,191	57,44
1053,556	57,86
1053,921	57,56
1054,286	56,86
1054,651	56,89
1055,016	57,9
1055,381	57,19
1055,745	58,52
1056,11	57,78
1056,475	58,29
1056,839	56,91
1057,203	58,05
1057,568	58,46
1057,932	58,48
1058,296	58,01
1058,66	58,61
1059,024	57,27
1059,388	57,59
1059,752	56,66
1060,116	57,99
1060,48	57,11
1060,843	57,46
1061,207	57,75
1061,57	57,13
1061,934	59,27
1062,297	58,89
1062,66	56,58
1063,023	57,27
1063,386	57,73
1063,749	58,57
1064,112	57,18
1064,475	58,03
1064,838	57,84
1065,201	56,84
1065,563	59,15
1065,926	57,93
1066,288	57,27
1066,651	57,38
1067,013	58,57
1067,375	57,54
1067,737	59,08
1068,099	58,57
1068,461	58,95
1068,823	58,22
1069,185	57,63
1069,547	57,2
1069,909	57,74
1070,27	56,88
1070,632	58,68
1070,993	57,94
1071,355	57,97
1071,716	57,52
1072,077	57,43
1072,438	58,19
1072,799	57,95
1073,16	57,96
1073,521	57,8
1073,882	57,52
1074,243	58,21
1074,603	58,35
1074,964	59,13
1075,325	58,94
1075,685	57,46
1076,045	57,77
1076,406	56,89
1076,766	58,78
1077,126	57,94
1077,486	58,14
1077,846	58,73
1078,206	57,81
1078,566	56,27
1078,925	58,38
1079,285	58,74
1079,645	58,15
1080,004	57,57
1080,364	56,59
1080,723	57,99
1081,082	56,68
1081,442	58,77
1081,801	57,48
1082,16	57,7
1082,519	56,43
1082,878	57,47
1083,237	57,6
1083,595	57,6
1083,954	58,55
1084,313	56,9
1084,671	57,71
1085,03	55,68
1085,388	57,5
1085,746	57,87
1086,104	55,71
1086,463	57,65
1086,821	59,61
1087,179	57,63
1087,537	58,39
1087,894	59,31
1088,252	58,2
1088,61	58,46
1088,967	58,1
1089,325	57,42
1089,682	58,44
1090,04	60,34
1090,397	58,14
1090,754	57,26
1091,111	60,23
1091,469	58,9
1091,826	57,66
1092,182	58,21
1092,539	58,27
1092,896	59,48
1093,253	57,21
1093,609	56,77
1093,966	57,01
1094,322	60,57
1094,679	56,69
1095,035	60,03
1095,391	60,12
1095,748	60,44
1096,104	58,76
1096,46	58,04
1096,816	56,22
1097,171	58,01
1097,527	57,28
1097,883	55,33
1098,239	59,12
1098,594	58,36
1098,95	57,47
1099,305	57,4
1099,66	58,62
1100,016	57,52
1100,371	56,92
1100,726	56,99
1101,081	59,42
1101,436	58,32
1101,791	55,65
1102,146	57,09
1102,5	55,68
1102,855	57,21
1103,21	56,93
1103,564	59,23
1103,918	59,86
1104,273	57,25
1104,627	58,19
1104,981	60,42
1105,335	57,89
1105,69	57,54
1106,043	56,38
1106,397	56,72
1106,751	58,72
1107,105	58,45
1107,459	57,1
1107,812	59,65
1108,166	58,76
1108,519	57,99
1108,873	58,31
1109,226	58,52
1109,579	56,61
1109,932	56,87
1110,285	61,81
1110,638	56,48
1110,991	60,25
1111,344	57,12
1111,697	58,23
1112,05	59,23
1112,402	59,25
1112,755	58,21
1113,107	61,82
1113,46	59,28
1113,812	55,51
1114,164	55,83
1114,517	60,46
1114,869	61,68
1115,221	68,42
1115,573	75,96
1115,924	63,03
