Data from C2___Relative__6__00031.txt Node

Date: Wed Jan 31 18:19:39 CET 2024
User: diatiterra
Spectrometer: HDX00911
Trigger mode: 0
Integration Time (sec): 6,000000E-3
Scans to average: 2
Nonlinearity correction enabled: false
Boxcar width: 0
Storing dark spectrum: false
XAxis mode: Wavelengths
Number of Pixels in Spectrum: 2068
>>>>>Begin Spectral Data<<<<<
194,468	216,04
195,025	157,27
195,581	220,73
196,138	212,82
196,694	138,89
197,251	118,69
197,807	98,43
198,363	97,6
198,919	90
199,474	95,22
200,03	102,05
200,586	112,5
201,141	88,06
201,696	91,28
202,251	95,08
202,806	86,01
203,361	97,04
203,916	92,36
204,471	89,78
205,025	108,87
205,58	98,21
206,134	106,4
206,688	96,54
207,242	110,18
207,796	96,99
208,35	100,72
208,904	105,86
209,457	89,24
210,011	86,88
210,564	101,06
211,117	94,36
211,67	101,87
212,223	97,6
212,776	104,44
213,329	89,33
213,881	121,08
214,434	94,08
214,986	108,26
215,538	99,63
216,09	90,14
216,642	114,05
217,194	100,76
217,746	106,77
218,297	100,38
218,849	103,68
219,4	110,08
219,951	98,79
220,502	98,65
221,053	105,73
221,604	95,97
222,155	98,41
222,705	91,54
223,256	95,52
223,806	102,36
224,356	105
224,906	116,13
225,456	105,04
226,006	100
226,556	84,09
227,106	114,11
227,655	94,79
228,204	101,25
228,754	97,18
229,303	93,21
229,852	92,45
230,401	92,16
230,949	94,6
231,498	91,2
232,047	80,19
232,595	90
233,143	108,27
233,691	98,45
234,239	85,36
234,787	95,6
235,335	97,76
235,883	89,16
236,43	101,14
236,978	102,31
237,525	97,45
238,072	91,13
238,619	96,97
239,166	94,33
239,713	86,5
240,26	85,36
240,806	99,65
241,353	92,06
241,899	93,01
242,445	98,54
242,991	103,44
243,537	96,21
244,083	98,47
244,629	99,62
245,174	113,27
245,72	99,26
246,265	88,89
246,81	97,2
247,355	103,97
247,9	101,87
248,445	98,41
248,99	96,97
249,534	114,78
250,079	90,6
250,623	96,3
251,168	112,4
251,712	92,19
252,256	102,46
252,8	101,54
253,343	100,71
253,887	103,63
254,43	102,29
254,974	101,91
255,517	95,89
256,06	113,85
256,603	91,48
257,146	102,33
257,689	103,54
258,232	110,17
258,774	99,65
259,317	102,97
259,859	110,09
260,401	102,71
260,943	94,33
261,485	92,55
262,027	99,6
262,569	102,61
263,11	98,85
263,652	109,84
264,193	105,79
264,734	99,64
265,275	114,34
265,816	95,42
266,357	105,04
266,898	101,54
267,438	109,06
267,979	98,92
268,519	95,52
269,059	113,08
269,6	100,75
270,14	112,9
270,68	110,14
271,219	111,44
271,759	93,98
272,298	94,36
272,838	96,54
273,377	103,97
273,916	89,21
274,455	98,54
274,994	100,4
275,533	96,74
276,072	104,88
276,61	92,75
277,149	104,17
277,687	97,74
278,225	99
278,763	110,09
279,301	103,33
279,839	97,98
280,377	106,56
280,914	90,56
281,452	105,56
281,989	100
282,526	102,76
283,064	101,68
283,601	87,16
284,137	96,28
284,674	103,75
285,211	117,98
285,747	89,39
286,284	117,12
286,82	102,89
287,356	89,14
287,892	95,74
288,428	99,17
288,964	109,24
289,5	112,81
290,035	103,6
290,571	103,78
291,106	112,6
291,641	107,59
292,176	98,44
292,711	100
293,246	97,69
293,781	98,76
294,315	83,8
294,85	113,89
295,384	95,49
295,918	92,65
296,453	83,96
296,987	93,39
297,52	97,93
298,054	96,56
298,588	100,83
299,121	89,18
299,655	98,18
300,188	98,33
300,721	105,28
301,254	93,55
301,787	91,41
302,32	99,19
302,853	95,2
303,385	97,86
303,918	91,09
304,45	96,92
304,982	91,84
305,514	94,57
306,046	91,32
306,578	95,35
307,11	101,55
307,641	103,02
308,173	91,32
308,704	94,21
309,236	100,75
309,767	93,26
310,298	90,32
310,829	104,78
311,359	103,63
311,89	103,78
312,421	101,35
312,951	106,5
313,481	87,24
314,012	99,25
314,542	108,05
315,072	96,95
315,601	96,8
316,131	104,33
316,661	96,67
317,19	91,11
317,72	103,31
318,249	107,54
318,778	92,97
319,307	90,62
319,836	103,98
320,365	95,65
320,893	95,45
321,422	113,41
321,95	101,5
322,479	97,71
323,007	103,64
323,535	92,14
324,063	100
324,591	106
325,118	95,62
325,646	98,74
326,173	96,67
326,701	103,25
327,228	109,05
327,755	94,74
328,282	95,04
328,809	102,97
329,336	98,03
329,862	94,12
330,389	91,8
330,915	95,28
331,441	98,85
331,968	107,21
332,494	93,18
333,02	92,5
333,545	86,57
334,071	113,64
334,597	88,38
335,122	88,15
335,648	102,16
336,173	92,8
336,698	78,48
337,223	95,22
337,748	88,54
338,272	88,36
338,797	88,77
339,322	82,12
339,846	81,62
340,37	106,85
340,894	79,86
341,419	98,12
341,942	88,81
342,466	73,08
342,99	78,52
343,514	84,86
344,037	80,06
344,56	92,96
345,084	84,25
345,607	81,6
346,13	79,93
346,653	86,33
347,175	76,28
347,698	73,58
348,221	76,79
348,743	80,12
349,265	83,45
349,787	79,45
350,309	79,11
350,831	70,99
351,353	77,44
351,875	76,32
352,397	88,11
352,918	77,3
353,439	87,75
353,961	68,31
354,482	75,44
355,003	75,58
355,524	75
356,044	63,64
356,565	77,11
357,086	72,03
357,606	63,74
358,126	66,22
358,646	63,01
359,167	73,51
359,687	68,93
360,206	71,58
360,726	63,98
361,246	72,34
361,765	74,58
362,285	61,5
362,804	71,84
363,323	58,05
363,842	65,38
364,361	61,69
364,88	61,33
365,398	57,42
365,917	61,32
366,435	63,54
366,954	62,05
367,472	57,55
367,99	64,69
368,508	57,29
369,026	67,27
369,544	60,53
370,061	59,45
370,579	57,99
371,096	60,78
371,613	55,82
372,131	52,36
372,648	56,3
373,165	55,66
373,681	56,12
374,198	61,33
374,715	59,02
375,231	58,52
375,747	51,9
376,264	48,47
376,78	54,5
377,296	55,58
377,812	52,49
378,327	51,49
378,843	56,48
379,359	55,63
379,874	55,88
380,389	51,89
380,905	47,91
381,42	48,18
381,935	50,15
382,449	48,67
382,964	50,29
383,479	48,42
383,993	48,48
384,508	46,19
385,022	44,82
385,536	45,92
386,05	44,49
386,564	46,89
387,078	43,18
387,592	41,85
388,105	45,86
388,619	39,4
389,132	40,9
389,645	42,87
390,158	38,73
390,671	38,8
391,184	36,03
391,697	36,17
392,21	34,34
392,722	37,1
393,235	36,68
393,747	37,55
394,259	34,18
394,771	34,1
395,283	31,96
395,795	34,14
396,307	39,63
396,818	36,05
397,33	30,44
397,841	31,42
398,353	32,79
398,864	32,09
399,375	32,89
399,886	31,74
400,397	29,07
400,907	31,46
401,418	29,31
401,928	26,04
402,439	27,42
402,949	26,06
403,459	26,54
403,969	25,84
404,479	25
404,989	21,75
405,498	24,23
406,008	24,04
406,517	22,85
407,027	22,01
407,536	20,08
408,045	20,08
408,554	19,24
409,063	18,16
409,572	17,85
410,08	18,36
410,589	17,49
411,097	15,84
411,606	16,5
412,114	15,44
412,622	14,34
413,13	16,19
413,638	14,53
414,145	13,48
414,653	13,19
415,16	13,47
415,668	13,07
416,175	12,28
416,682	12,09
417,189	11,09
417,696	11,89
418,203	11,93
418,71	11,8
419,216	10,79
419,723	10,81
420,229	10,44
420,735	10,14
421,242	10,47
421,748	10,28
422,254	10,48
422,759	9,9
423,265	10,08
423,771	10,09
424,276	9,68
424,781	9,28
425,287	9,93
425,792	9,64
426,297	9,27
426,802	9,44
427,306	9,67
427,811	9,21
428,316	8,76
428,82	8,76
429,324	9,13
429,829	8,48
430,333	8,46
430,837	8,66
431,34	8,39
431,844	8,45
432,348	8,48
432,851	7,89
433,355	8,43
433,858	7,78
434,361	8
434,864	8,57
435,367	8,34
435,87	8,67
436,373	8,04
436,876	8,05
437,378	7,91
437,88	8,03
438,383	7,87
438,885	7,72
439,387	7,65
439,889	8,01
440,391	7,94
440,892	7,96
441,394	7,99
441,896	7,81
442,397	7,72
442,898	7,07
443,399	7,51
443,9	7,79
444,401	7,73
444,902	7,56
445,403	7,73
445,903	7,86
446,404	7,81
446,904	8
447,405	7,75
447,905	8,04
448,405	8,08
448,905	7,96
449,404	8,29
449,904	8,05
450,404	7,43
450,903	8,19
451,403	7,69
451,902	8,04
452,401	8,34
452,9	8,47
453,399	8,36
453,898	8,08
454,396	8,35
454,895	8,28
455,393	8,14
455,892	8,29
456,39	8,51
456,888	8,2
457,386	8,18
457,884	8,49
458,382	8,63
458,879	8,57
459,377	8,66
459,874	8,47
460,372	8,25
460,869	8,34
461,366	8,14
461,863	8,06
462,36	8,37
462,857	8,39
463,353	8,15
463,85	8,39
464,346	7,87
464,843	8,24
465,339	8,34
465,835	8,4
466,331	8,41
466,827	8,35
467,323	8,33
467,818	8,17
468,314	8,14
468,809	8,2
469,305	8,07
469,8	8,57
470,295	8,12
470,79	8,54
471,285	8,57
471,78	7,75
472,274	8,02
472,769	8,04
473,263	8,19
473,758	8,52
474,252	8,11
474,746	8,22
475,24	8,28
475,734	7,97
476,228	8,57
476,721	8,21
477,215	7,82
477,708	7,98
478,202	8,33
478,695	8,28
479,188	8,24
479,681	8,24
480,174	8,43
480,667	8,52
481,159	8,27
481,652	8,56
482,144	8,42
482,637	8,76
483,129	8,38
483,621	8,49
484,113	8,7
484,605	8,43
485,097	8,65
485,588	8,19
486,08	8,68
486,571	8,55
487,063	8,61
487,554	8,83
488,045	8,59
488,536	8,65
489,027	8,66
489,518	8,76
490,008	8,5
490,499	8,99
490,989	8,67
491,48	8,94
491,97	8,98
492,46	9,07
492,95	9,34
493,44	9,5
493,93	9,32
494,419	9,31
494,909	9,51
495,398	9,58
495,888	9,67
496,377	9,63
496,866	9,85
497,355	10,19
497,844	9,96
498,333	10,43
498,821	10,37
499,31	10,56
499,798	10,93
500,287	10,99
500,775	11,2
501,263	11,22
501,751	11,03
502,239	11,56
502,727	11,7
503,215	11,87
503,702	11,9
504,19	12,05
504,677	12,59
505,164	12,65
505,651	13,07
506,139	12,88
506,625	13,09
507,112	13,77
507,599	13,84
508,086	13,83
508,572	14,48
509,058	14,58
509,545	14,78
510,031	14,99
510,517	15,61
511,003	15,55
511,489	16,35
511,974	16,49
512,46	16,16
512,946	16,9
513,431	17,52
513,916	17,69
514,401	17,68
514,887	17,83
515,371	18,43
515,856	18,9
516,341	19,04
516,826	19,32
517,31	19,74
517,795	20,28
518,279	20,19
518,763	21,32
519,247	21,02
519,731	21,95
520,215	21,61
520,699	22,09
521,182	22,5
521,666	22,91
522,149	23,19
522,633	23,63
523,116	24,12
523,599	24,77
524,082	24,51
524,565	25,06
525,048	25,44
525,53	25,75
526,013	25,77
526,495	26,55
526,978	26,3
527,46	26,91
527,942	27,09
528,424	27,96
528,906	27,65
529,388	27,73
529,87	28,59
530,351	27,96
530,833	28,43
531,314	28,88
531,795	28,71
532,277	29,68
532,758	29,5
533,238	29,44
533,719	29,29
534,2	29,42
534,681	30,03
535,161	29,83
535,642	30,71
536,122	29,77
536,602	30,59
537,082	30,3
537,562	30,12
538,042	30,52
538,522	30,23
539,001	30,52
539,481	30,53
539,96	30,52
540,44	30,67
540,919	30,72
541,398	31,14
541,877	30,49
542,356	31,03
542,835	30,68
543,313	31,09
543,792	31,57
544,27	31,18
544,749	31,24
545,227	31,41
545,705	31,9
546,183	32
546,661	31,4
547,139	31,23
547,616	31,26
548,094	31,39
548,571	31,64
549,049	31,96
549,526	31,77
550,003	32,1
550,48	31,87
550,957	31,77
551,434	31,7
551,911	31,93
552,387	31,64
552,864	31,96
553,34	32,12
553,817	31,99
554,293	32,15
554,769	31,9
555,245	31,67
555,721	32,12
556,197	32,06
556,672	31,61
557,148	32,13
557,623	31,99
558,099	31,71
558,574	31,58
559,049	31,69
559,524	31,99
559,999	31,66
560,474	31,46
560,948	31,36
561,423	31,66
561,897	31,27
562,372	31,75
562,846	31,23
563,32	31,22
563,794	30,85
564,268	31,08
564,742	30,58
565,216	30,59
565,69	30,12
566,163	30,56
566,636	30,2
567,11	30,14
567,583	29,68
568,056	29,6
568,529	29,71
569,002	29,47
569,475	29,28
569,947	28,64
570,42	29,04
570,892	28,35
571,365	28,26
571,837	28,38
572,309	28,01
572,781	28,02
573,253	27,85
573,725	27,7
574,197	27,48
574,668	27,33
575,14	27,06
575,611	26,95
576,082	26,64
576,554	26,33
577,025	26,24
577,496	25,98
577,967	26,03
578,437	25,89
578,908	25,7
579,379	25,32
579,849	25,34
580,319	25,13
580,79	25
581,26	24,46
581,73	24,55
582,2	24,54
582,669	24,5
583,139	24,19
583,609	24,16
584,078	24,49
584,548	23,93
585,017	23,81
585,486	23,43
585,955	24
586,424	23,48
586,893	23,21
587,362	23,57
587,83	23,36
588,299	23,35
588,767	23,15
589,236	23,14
589,704	23,03
590,172	23,12
590,64	22,86
591,108	22,77
591,576	22,7
592,043	22,46
592,511	22,54
592,978	22,64
593,446	22,36
593,913	22,53
594,38	22,27
594,847	22,01
595,314	22,33
595,781	21,94
596,248	22,01
596,715	22,18
597,181	21,92
597,647	21,74
598,114	22,03
598,58	21,51
599,046	21,89
599,512	21,79
599,978	21,54
600,444	21,6
600,91	21,6
601,375	21,7
601,841	21,72
602,306	21,41
602,771	21,31
603,236	21,44
603,702	21,55
604,167	21,27
604,631	21,18
605,096	21,26
605,561	21,14
606,025	20,99
606,49	20,91
606,954	21,09
607,418	20,61
607,882	20,55
608,347	20,58
608,81	20,52
609,274	20,3
609,738	20,24
610,202	20,18
610,665	19,97
611,128	20,01
611,592	19,61
612,055	19,58
612,518	19,56
612,981	19,61
613,444	19,62
613,907	19,17
614,369	19,18
614,832	19
615,294	18,98
615,757	18,88
616,219	18,87
616,681	18,31
617,143	18,73
617,605	18,57
618,067	18,51
618,529	18,14
618,99	18,36
619,452	17,96
619,913	17,97
620,375	18,04
620,836	18,01
621,297	18,05
621,758	17,86
622,219	17,63
622,68	17,73
623,14	17,64
623,601	17,68
624,061	17,54
624,522	17,34
624,982	17,52
625,442	17,6
625,902	17,24
626,362	17,43
626,822	17,18
627,282	17,48
627,742	17,55
628,201	17,18
628,661	17,21
629,12	17,13
629,579	17,21
630,038	17,23
630,497	17,22
630,956	17,06
631,415	17,13
631,874	16,95
632,332	16,74
632,791	16,97
633,249	16,8
633,708	17,12
634,166	16,62
634,624	16,75
635,082	16,71
635,54	16,52
635,998	16,44
636,455	16,32
636,913	16,19
637,37	16,02
637,828	16,09
638,285	15,72
638,742	15,6
639,199	15,53
639,656	15,51
640,113	15,31
640,57	15,09
641,027	15,19
641,483	15,1
641,94	14,77
642,396	14,72
642,852	14,59
643,309	14,15
643,765	14,12
644,221	13,91
644,676	13,8
645,132	13,66
645,588	13,52
646,043	13,25
646,499	13,23
646,954	12,79
647,409	12,88
647,864	12,74
648,319	12,49
648,774	12,55
649,229	12,41
649,684	12,18
650,139	12,2
650,593	11,98
651,047	11,9
651,502	12,01
651,956	11,86
652,41	11,84
652,864	11,63
653,318	11,66
653,772	11,6
654,225	11,46
654,679	11,57
655,133	11,45
655,586	11,38
656,039	11,31
656,492	11,28
656,946	11,1
657,399	10,96
657,851	11
658,304	10,76
658,757	10,68
659,209	10,65
659,662	10,48
660,114	10,31
660,567	10,19
661,019	10,07
661,471	10,04
661,923	9,89
662,375	9,85
662,826	9,72
663,278	9,56
663,73	9,31
664,181	9,29
664,632	9,2
665,084	9,17
665,535	9,16
665,986	9,03
666,437	8,98
666,888	8,8
667,338	8,87
667,789	8,88
668,24	8,65
668,69	8,7
669,14	8,71
669,591	8,71
670,041	8,65
670,491	8,58
670,941	8,54
671,391	8,77
671,84	8,58
672,29	8,62
672,74	8,64
673,189	8,8
673,638	8,65
674,088	8,92
674,537	8,85
674,986	8,79
675,435	8,99
675,883	9,12
676,332	9,05
676,781	9,14
677,229	9,32
677,678	9,46
678,126	9,44
678,574	9,64
679,022	9,74
679,47	9,94
679,918	10,06
680,366	10,12
680,814	10,18
681,261	10,39
681,709	10,51
682,156	10,47
682,604	10,79
683,051	10,95
683,498	11,31
683,945	11,2
684,392	11,47
684,839	11,77
685,286	11,98
685,732	12,17
686,179	12,47
686,625	12,7
687,071	12,99
687,518	13,36
687,964	13,77
688,41	13,86
688,856	14,21
689,301	14,98
689,747	15,21
690,193	15,78
690,638	15,92
691,084	16,7
691,529	17,16
691,974	17,74
692,419	18,34
692,864	18,9
693,309	19,5
693,754	20,02
694,199	20,81
694,643	21,12
695,088	21,91
695,532	22,49
695,977	22,98
696,421	23,76
696,865	24,19
697,309	25
697,753	25,35
698,197	26,18
698,64	26,87
699,084	27,37
699,527	27,89
699,971	28,35
700,414	29,06
700,857	29,43
701,3	29,77
701,743	30,61
702,186	31,08
702,629	31,59
703,072	32,35
703,515	32,45
703,957	33,14
704,399	33,82
704,842	34,19
705,284	34,52
705,726	35,39
706,168	35,53
706,61	36,2
707,052	36,22
707,494	36,87
707,935	37,35
708,377	37,97
708,818	38,13
709,26	38,75
709,701	39,14
710,142	39,47
710,583	39,51
711,024	40,17
711,465	40,4
711,905	40,82
712,346	40,84
712,787	41,22
713,227	41,73
713,667	42,22
714,108	42,62
714,548	42,76
714,988	43,25
715,428	43,51
715,868	44,1
716,307	43,95
716,747	44,21
717,186	44,58
717,626	44,86
718,065	45,52
718,504	45,47
718,944	45,91
719,383	46,14
719,822	46,17
720,261	46,41
720,699	46,97
721,138	46,75
721,576	47,49
722,015	47,75
722,453	47,62
722,892	47,75
723,33	48,47
723,768	48,81
724,206	48,68
724,644	48,74
725,081	48,89
725,519	49,3
725,957	49,03
726,394	49,5
726,832	49,87
727,269	49,92
727,706	49,85
728,143	49,91
728,58	50,44
729,017	50,05
729,454	50,34
729,89	50,68
730,327	50,58
730,764	51,08
731,2	50,9
731,636	51,04
732,072	51,65
732,509	51,52
732,945	51,51
733,38	51,29
733,816	51,84
734,252	51,79
734,688	51,64
735,123	51,69
735,559	51,91
735,994	51,88
736,429	52,26
736,864	52,13
737,299	52,07
737,734	52,43
738,169	52,39
738,604	52,28
739,038	52,12
739,473	52,24
739,907	52,46
740,342	52,41
740,776	52,66
741,21	52,35
741,644	52,69
742,078	52,69
742,512	52,31
742,946	52,9
743,379	52,11
743,813	52,46
744,246	52,52
744,68	52,53
745,113	52,34
745,546	52,34
745,979	52,48
746,412	52,38
746,845	52,38
747,278	52,55
747,711	52,2
748,143	52,64
748,576	52,57
749,008	52,64
749,441	52,29
749,873	52,05
750,305	52,29
750,737	52,33
751,169	52
751,601	52,04
752,032	52,06
752,464	52
752,896	51,66
753,327	52,37
753,758	52,05
754,19	51,94
754,621	51,95
755,052	51,87
755,483	52,14
755,914	52,11
756,344	51,93
756,775	52,14
757,206	51,68
757,636	52,01
758,066	51,86
758,497	51,79
758,927	52,11
759,357	51,88
759,787	51,64
760,217	51,68
760,647	51,64
761,076	51,59
761,506	51,33
761,935	51,28
762,365	51,64
762,794	51,07
763,223	51,6
763,653	51,76
764,082	51,05
764,51	51,39
764,939	51,47
765,368	51,25
765,797	51,45
766,225	51
766,654	51,31
767,082	50,68
767,51	51,32
767,938	50,82
768,367	50,99
768,795	50,94
769,222	51,15
769,65	51,33
770,078	50,87
770,505	50,9
770,933	50,88
771,36	51,32
771,788	50,78
772,215	50,81
772,642	50,82
773,069	50,67
773,496	50,61
773,923	50,54
774,349	50,82
774,776	50,73
775,203	50,48
775,629	51,03
776,055	50,44
776,482	50,37
776,908	50,59
777,334	50,48
777,76	50,73
778,186	50,45
778,611	50,64
779,037	50,36
779,463	50,68
779,888	50,55
780,314	50,31
780,739	50,65
781,164	50,53
781,589	50,23
782,014	50,26
782,439	50,37
782,864	50,46
783,289	50,58
783,713	50,28
784,138	50,21
784,562	50,1
784,987	50,31
785,411	50,19
785,835	50,34
786,259	50,3
786,683	50,59
787,107	50,64
787,531	50,41
787,954	50,42
788,378	50,35
788,802	50,23
789,225	49,85
789,648	50,42
790,071	49,78
790,495	50,19
790,918	50,09
791,34	50,18
791,763	50,13
792,186	50,04
792,609	50,16
793,031	49,9
793,454	50,07
793,876	50,4
794,298	50,05
794,721	50,13
795,143	50,16
795,565	49,78
795,986	49,83
796,408	50,11
796,83	49,97
797,252	50,26
797,673	50,22
798,094	50,25
798,516	50,18
798,937	50,32
799,358	49,86
799,779	49,67
800,2	50,14
800,621	49,94
801,042	49,9
801,462	50,14
801,883	50,03
802,303	49,56
802,724	50,25
803,144	49,77
803,564	49,98
803,984	50,28
804,404	50,37
804,824	49,89
805,244	50,03
805,664	50,39
806,084	50,53
806,503	49,99
806,923	50,12
807,342	49,91
807,761	49,65
808,18	49,53
808,599	49,67
809,018	49,92
809,437	49,76
809,856	49,47
810,275	49,99
810,693	50,06
811,112	50,12
811,53	50,45
811,949	49,97
812,367	50,11
812,785	49,85
813,203	49,95
813,621	50,06
814,039	50,05
814,457	49,75
814,874	49,84
815,292	49,81
815,709	49,66
816,127	49,92
816,544	50,14
816,961	49,91
817,378	50,23
817,795	50,08
818,212	49,82
818,629	50,24
819,046	49,98
819,462	49,95
819,879	50,01
820,295	49,65
820,712	49,95
821,128	49,91
821,544	49,6
821,96	49,7
822,376	49,69
822,792	49,64
823,208	50
823,624	50,01
824,039	49,98
824,455	49,84
824,87	49,44
825,286	49,97
825,701	49,73
826,116	49,61
826,531	49,67
826,946	49,61
827,361	49,68
827,776	49,52
828,19	49,54
828,605	49,18
829,02	49,57
829,434	49,58
829,848	49,58
830,263	49,81
830,677	49,75
831,091	49,55
831,505	49,71
831,919	49,99
832,332	49,83
832,746	49,9
833,16	49,13
833,573	49,61
833,987	49,9
834,4	49,53
834,813	49,13
835,226	49,43
835,639	49,74
836,052	49,49
836,465	49,86
836,878	49,56
837,29	49,33
837,703	49,43
838,116	49,88
838,528	49,56
838,94	49,61
839,352	49,64
839,765	49,56
840,177	49,54
840,589	49,48
841	49,05
841,412	49,26
841,824	49,55
842,235	49,44
842,647	49,6
843,058	49,75
843,47	49,62
843,881	49,71
844,292	49,53
844,703	49,93
845,114	49,38
845,525	49,69
845,935	49,48
846,346	49,93
846,757	49,49
847,167	49,38
847,577	49,37
847,988	49,51
848,398	49,25
848,808	49,35
849,218	49,61
849,628	49,4
850,038	49,78
850,448	49,71
850,857	49,54
851,267	49,51
851,676	49,99
852,086	49,67
852,495	49,46
852,904	49,41
853,313	49,27
853,722	49,5
854,131	49,68
854,54	49,5
854,949	48,85
855,357	49,39
855,766	49,42
856,174	49,33
856,583	49,14
856,991	49,23
857,399	49,84
857,807	49,29
858,215	49,5
858,623	50,03
859,031	49,35
859,439	49,7
859,846	49,5
860,254	49,53
860,661	49,86
861,069	49,54
861,476	49,46
861,883	49,14
862,29	48,95
862,697	49,77
863,104	49,46
863,511	49,05
863,918	49,25
864,325	49,7
864,731	49,53
865,138	49,28
865,544	48,98
865,95	49,49
866,357	49,2
866,763	49,25
867,169	49,68
867,575	49,23
867,98	49,44
868,386	49,44
868,792	49,23
869,197	49,36
869,603	49,29
870,008	49,34
870,414	50,08
870,819	49,13
871,224	49,2
871,629	49,33
872,034	49,32
872,439	49,08
872,844	49,46
873,248	49,17
873,653	49,86
874,057	49,66
874,462	49,6
874,866	49,57
875,27	49,42
875,674	49,94
876,078	49,56
876,482	49,57
876,886	49,1
877,29	49,28
877,694	49,54
878,097	49,23
878,501	48,91
878,904	48,83
879,308	48,89
879,711	49,39
880,114	49,46
880,517	49,25
880,92	49,83
881,323	49,83
881,726	49,88
882,128	49,4
882,531	49,51
882,934	49,08
883,336	49,69
883,738	49,51
884,141	49,28
884,543	49,44
884,945	49,18
885,347	48,99
885,749	49,48
886,151	49,46
886,552	49,54
886,954	49,05
887,355	49,55
887,757	49,16
888,158	48,99
888,56	49,12
888,961	49,69
889,362	49,62
889,763	49,34
890,164	49,76
890,565	48,98
890,965	49,49
891,366	49,78
891,767	49,69
892,167	49,26
892,567	49,39
892,968	49,64
893,368	49,21
893,768	49,24
894,168	48,74
894,568	49,14
894,968	49,03
895,368	49,18
895,767	49,29
896,167	49,1
896,566	49,36
896,966	49,62
897,365	49,67
897,764	49,52
898,164	49,39
898,563	49,58
898,962	49,6
899,361	50
899,759	49,4
900,158	49,32
900,557	49,19
900,955	48,97
901,354	49,59
901,752	49,36
902,15	49,1
902,548	49,31
902,947	49,47
903,345	49,38
903,742	49,6
904,14	49,33
904,538	49,44
904,936	49,61
905,333	49,04
905,731	49,25
906,128	49,48
906,525	49,69
906,923	49,35
907,32	49,47
907,717	49,54
908,114	49,24
908,511	49,44
908,907	49,99
909,304	49,29
909,701	49,26
910,097	49,72
910,494	49,19
910,89	50,09
911,286	49,04
911,682	49,79
912,078	49,57
912,474	49,76
912,87	49,43
913,266	49,53
913,662	49,05
914,058	49,07
914,453	48,9
914,849	49,15
915,244	48,9
915,639	49,74
916,034	49,31
916,43	49,73
916,825	49,19
917,22	49,56
917,614	49,61
918,009	49,5
918,404	48,82
918,798	49,25
919,193	49,38
919,587	49,46
919,982	49,57
920,376	48,78
920,77	49,01
921,164	49,42
921,558	49,42
921,952	49,19
922,346	49,38
922,74	49,39
923,133	49,32
923,527	49,42
923,92	49,33
924,314	49,62
924,707	49,05
925,1	49,23
925,493	49,64
925,886	49,01
926,279	49,02
926,672	48,97
927,065	48,99
927,457	48,77
927,85	48,96
928,243	49,08
928,635	49,53
929,027	49,41
929,42	49,63
929,812	49,34
930,204	49,75
930,596	49,6
930,988	49,2
931,379	49,27
931,771	49,41
932,163	49,56
932,554	49,01
932,946	48,65
933,337	48,64
933,729	49,75
934,12	49,18
934,511	49,47
934,902	49,62
935,293	48,46
935,684	49,6
936,075	49,54
936,465	49,66
936,856	48,6
937,246	49,86
937,637	48,96
938,027	49,41
938,417	48,36
938,808	49,71
939,198	48,5
939,588	49,95
939,978	48,88
940,368	48,8
940,757	49,97
941,147	49,89
941,537	49,25
941,926	49,89
942,315	50,04
942,705	49,1
943,094	49,07
943,483	49,16
943,872	49,04
944,261	49
944,65	49,27
945,039	49,92
945,428	49,43
945,816	49,42
946,205	49,3
946,593	49,51
946,982	49,82
947,37	49,39
947,758	49,18
948,146	49,62
948,534	49,34
948,922	48,63
949,31	48,66
949,698	49,5
950,086	49,14
950,473	48,82
950,861	49,24
951,248	48,71
951,636	48,82
952,023	48,7
952,41	48,67
952,797	48,6
953,184	49,35
953,571	48,85
953,958	48,82
954,345	47,93
954,731	48,67
955,118	49,12
955,505	48,46
955,891	48,83
956,277	49,37
956,664	48,88
957,05	48,63
957,436	47,58
957,822	47,97
958,208	48,35
958,594	48,39
958,979	47,95
959,365	47,9
959,751	48,22
960,136	48,54
960,522	48,31
960,907	48,61
961,292	48,03
961,677	48,8
962,062	48,1
962,447	48,84
962,832	47,64
963,217	48,81
963,602	48,75
963,986	48,83
964,371	48
964,756	48,12
965,14	48,18
965,524	48,86
965,908	48,52
966,293	47,75
966,677	48,18
967,061	48,98
967,445	47,93
967,828	48,28
968,212	48,39
968,596	47,89
968,979	48,26
969,363	48,52
969,746	48,68
970,129	48,69
970,513	48,42
970,896	49,27
971,279	48,24
971,662	48,18
972,045	48,41
972,428	49,18
972,81	48,54
973,193	48,68
973,575	48,73
973,958	48,11
974,34	48,62
974,723	48,56
975,105	47,96
975,487	48,28
975,869	48,26
976,251	48,88
976,633	48,54
977,015	48,86
977,396	48,6
977,778	48,17
978,16	48,64
978,541	48,1
978,922	49,52
979,304	48,68
979,685	49,21
980,066	48,53
980,447	48,61
980,828	48,66
981,209	48,98
981,59	48,78
981,97	48,04
982,351	48,99
982,732	48,99
983,112	48,66
983,493	49,19
983,873	49,01
984,253	48,56
984,633	49,17
985,013	48,35
985,393	48,98
985,773	48,97
986,153	49,17
986,533	48,68
986,912	48,98
987,292	49,15
987,671	48,29
988,051	49,13
988,43	48,41
988,809	48,68
989,188	49,45
989,567	48,67
989,946	49,01
990,325	49,16
990,704	48,92
991,083	49,19
991,461	48,61
991,84	48,75
992,218	48,31
992,597	48,99
992,975	49,49
993,353	49,4
993,732	49,36
994,11	49,55
994,488	49,06
994,866	49,11
995,243	49,23
995,621	48,93
995,999	49,03
996,376	49,14
996,754	49,32
997,131	49,21
997,509	48,96
997,886	48,64
998,263	49,52
998,64	48,64
999,017	49,26
999,394	49,18
999,771	50,2
1000,148	49,29
1000,524	49,28
1000,901	49,19
1001,277	49,89
1001,654	49,82
1002,03	49,83
1002,406	49,62
1002,783	49,56
1003,159	49,37
1003,535	49,22
1003,911	50,11
1004,286	49,49
1004,662	49,79
1005,038	49,91
1005,414	50,32
1005,789	48,95
1006,164	49,46
1006,54	50,06
1006,915	49,87
1007,29	49,19
1007,665	49,48
1008,04	49,48
1008,415	49,41
1008,79	49,65
1009,165	49,17
1009,54	49,71
1009,914	49,73
1010,289	50,15
1010,663	49,56
1011,038	49,96
1011,412	49,66
1011,786	49,53
1012,16	50,2
1012,535	49,39
1012,909	50,25
1013,282	50,88
1013,656	49,86
1014,03	49,82
1014,404	49,69
1014,777	49,76
1015,151	50,46
1015,524	50,69
1015,897	49,44
1016,271	49,99
1016,644	50,75
1017,017	50,09
1017,39	50,37
1017,763	50,24
1018,136	49,99
1018,508	50,4
1018,881	49,49
1019,254	49,78
1019,626	49,67
1019,999	49,76
1020,371	49,87
1020,743	50,72
1021,116	50,06
1021,488	51,45
1021,86	51,12
1022,232	51,4
1022,604	50,19
1022,975	50,4
1023,347	49,99
1023,719	51,26
1024,09	51,7
1024,462	51,38
1024,833	51,41
1025,204	51,52
1025,576	50,6
1025,947	50,46
1026,318	50,76
1026,689	52,22
1027,06	51,01
1027,431	51,47
1027,801	50,89
1028,172	50,36
1028,543	50,69
1028,913	51,99
1029,284	50,75
1029,654	50,97
1030,024	50,55
1030,394	51,24
1030,764	50,63
1031,135	51,59
1031,504	50,94
1031,874	51,71
1032,244	49,96
1032,614	51,14
1032,983	50,61
1033,353	51,22
1033,722	51,1
1034,092	51,49
1034,461	51,06
1034,83	50,86
1035,2	51,29
1035,569	51,91
1035,938	51,71
1036,307	52,13
1036,675	50,97
1037,044	52,29
1037,413	52,04
1037,781	51,5
1038,15	53,41
1038,518	52,41
1038,887	52
1039,255	51,66
1039,623	52,15
1039,991	52,32
1040,359	51,28
1040,727	51,86
1041,095	52,38
1041,463	51,02
1041,831	51,18
1042,198	51,75
1042,566	52,77
1042,933	52,61
1043,301	51,73
1043,668	52,07
1044,035	51,2
1044,402	53,1
1044,77	51,59
1045,137	53,05
1045,503	52,46
1045,87	52,06
1046,237	52,68
1046,604	51,58
1046,97	51,92
1047,337	52,67
1047,703	52,42
1048,07	52,92
1048,436	53,15
1048,802	53,97
1049,168	52,71
1049,534	52,12
1049,9	53,84
1050,266	53,61
1050,632	52,34
1050,998	54,47
1051,364	52,92
1051,729	53,66
1052,095	52,93
1052,46	52,78
1052,825	53,81
1053,191	53,57
1053,556	52,74
1053,921	52,56
1054,286	53,95
1054,651	53,69
1055,016	53,88
1055,381	52,96
1055,745	51,71
1056,11	52,7
1056,475	54,66
1056,839	52,56
1057,203	53,21
1057,568	53,23
1057,932	53,55
1058,296	54,17
1058,66	54,55
1059,024	54,35
1059,388	55,16
1059,752	53,18
1060,116	54,49
1060,48	56,54
1060,843	53,34
1061,207	54,23
1061,57	54,47
1061,934	53,77
1062,297	54,57
1062,66	54,62
1063,023	54,57
1063,386	55,4
1063,749	55,71
1064,112	54,75
1064,475	55,18
1064,838	54,76
1065,201	53,89
1065,563	54,61
1065,926	53,2
1066,288	54,79
1066,651	54,97
1067,013	55,01
1067,375	54,1
1067,737	56,14
1068,099	55,08
1068,461	55,04
1068,823	54,67
1069,185	54,73
1069,547	55,13
1069,909	53,2
1070,27	54,62
1070,632	54,95
1070,993	56,18
1071,355	56,11
1071,716	55,56
1072,077	56,58
1072,438	55,86
1072,799	54,67
1073,16	55,11
1073,521	54,54
1073,882	55,75
1074,243	56,65
1074,603	56,64
1074,964	54,01
1075,325	55,43
1075,685	53,13
1076,045	53,78
1076,406	54,85
1076,766	54,15
1077,126	54,68
1077,486	57,95
1077,846	55,58
1078,206	55,06
1078,566	56,34
1078,925	55,39
1079,285	56,57
1079,645	56,87
1080,004	54,86
1080,364	55,55
1080,723	55,16
1081,082	57,59
1081,442	54,97
1081,801	57,46
1082,16	55,32
1082,519	55,37
1082,878	57,34
1083,237	55,26
1083,595	58,06
1083,954	56,74
1084,313	55,6
1084,671	55,74
1085,03	55,84
1085,388	55,72
1085,746	56,67
1086,104	56,2
1086,463	56,69
1086,821	56,64
1087,179	57,75
1087,537	57,18
1087,894	56,34
1088,252	56,51
1088,61	54,38
1088,967	57,08
1089,325	57,21
1089,682	57,33
1090,04	59,14
1090,397	58,52
1090,754	58,12
1091,111	55,08
1091,469	61,23
1091,826	57,4
1092,182	59,88
1092,539	56,93
1092,896	57,24
1093,253	56,81
1093,609	60,69
1093,966	57,58
1094,322	57,56
1094,679	57,01
1095,035	59,81
1095,391	56,36
1095,748	58,89
1096,104	59,32
1096,46	59,52
1096,816	56,62
1097,171	58,49
1097,527	58,25
1097,883	60,74
1098,239	58,12
1098,594	58,2
1098,95	58,81
1099,305	59
1099,66	57,03
1100,016	56,73
1100,371	60,98
1100,726	58,26
1101,081	55,93
1101,436	59,78
1101,791	62,36
1102,146	61,24
1102,5	60,59
1102,855	58,13
1103,21	58,66
1103,564	59,29
1103,918	59,38
1104,273	60,28
1104,627	61,13
1104,981	56,53
1105,335	58,98
1105,69	63,67
1106,043	58,19
1106,397	60,38
1106,751	62,75
1107,105	59,71
1107,459	62,06
1107,812	61,43
1108,166	62,93
1108,519	61,01
1108,873	62,43
1109,226	66,43
1109,579	60,15
1109,932	64,88
1110,285	65,64
1110,638	64,13
1110,991	60,99
1111,344	60,21
1111,697	60,49
1112,05	63,95
1112,402	67,14
1112,755	63,33
1113,107	67,54
1113,46	64,21
1113,812	64,08
1114,164	69,93
1114,517	66,27
1114,869	135,19
1115,221	153,51
1115,573	128,79
1115,924	163,21
