Data from C6___Relative__3__00044.txt Node

Date: Wed Jan 31 18:22:02 CET 2024
User: diatiterra
Spectrometer: HDX00911
Trigger mode: 0
Integration Time (sec): 6,000000E-3
Scans to average: 2
Nonlinearity correction enabled: false
Boxcar width: 0
Storing dark spectrum: false
XAxis mode: Wavelengths
Number of Pixels in Spectrum: 2068
>>>>>Begin Spectral Data<<<<<
194,468	239,62
195,025	185,45
195,581	246,34
196,138	255,13
196,694	177,78
197,251	144,95
197,807	114,17
198,363	130
198,919	103,79
199,474	110,66
200,03	122,95
200,586	142,41
201,141	97,74
201,696	110,4
202,251	109,47
202,806	116,08
203,361	121,48
203,916	111,11
204,471	117,88
205,025	134,68
205,58	112,14
206,134	134,4
206,688	118,08
207,242	139,38
207,796	120,3
208,35	119,2
208,904	116,55
209,457	109,38
210,011	106,03
210,564	111,97
211,117	117,29
211,67	122,01
212,223	114,38
212,776	122,58
213,329	108,67
213,881	149,02
214,434	105,26
214,986	130,17
215,538	123,53
216,09	109,86
216,642	136,78
217,194	122,35
217,746	122,93
218,297	120,99
218,849	121,69
219,4	133,19
219,951	126,21
220,502	118,58
221,053	136,64
221,604	117,79
222,155	119,05
222,705	119,85
223,256	122,01
223,806	126,77
224,356	128,85
224,906	127,82
225,456	121,32
226,006	120,24
226,556	101,62
227,106	127,02
227,655	106,94
228,204	125,42
228,754	112,32
229,303	117,14
229,852	111,51
230,401	121,64
230,949	114,39
231,498	107,75
232,047	103,25
232,595	118,62
233,143	122,83
233,691	118,22
234,239	108,21
234,787	126,4
235,335	114,18
235,883	109,44
236,43	112,5
236,978	124,62
237,525	109,85
238,072	114,18
238,619	123,11
239,166	114,89
239,713	107,66
240,26	105
240,806	112,5
241,353	116,67
241,899	109,44
242,445	108,76
242,991	120,61
243,537	113,64
244,083	121,76
244,629	116,92
245,174	133,19
245,72	114,44
246,265	113,1
246,81	120
247,355	132,54
247,9	110,45
248,445	128,57
248,99	112,12
249,534	144,35
250,079	117,29
250,623	119,63
251,168	123,14
251,712	117,97
252,256	129,1
252,8	122,31
253,343	116,07
253,887	120,16
254,43	120,23
254,974	125,19
255,517	108,56
256,06	124,23
256,603	114,81
257,146	120,54
257,689	122,83
258,232	128,81
258,774	108,87
259,317	123,73
259,859	127,52
260,401	126,36
260,943	104,96
261,485	113,12
262,027	120
262,569	114,55
263,11	107,31
263,652	138,98
264,193	123,55
264,734	108,03
265,275	124,59
265,816	111,45
266,357	128,29
266,898	120,38
267,438	120,87
267,979	114,03
268,519	114,93
269,059	131,78
269,6	114,29
270,14	128,63
270,68	120,65
271,219	133,05
271,759	111,28
272,298	121,8
272,838	116,15
273,377	114,68
273,916	112,23
274,455	124,09
274,994	109,2
275,533	110,87
276,072	118,29
276,61	105,07
277,149	119,58
277,687	120,68
278,225	107,67
278,763	142,11
279,301	125
279,839	117,34
280,377	125,82
280,914	108,39
281,452	135,04
281,989	132,23
282,526	120,47
283,064	128,15
283,601	104,39
284,137	124,38
284,674	128,75
285,211	137,72
285,747	118,94
286,284	138,74
286,82	121,49
287,356	104,61
287,892	122,87
288,428	124,79
288,964	132,77
289,5	127,27
290,035	116
290,571	121,01
291,106	129,67
291,641	133,48
292,176	117,19
292,711	134,96
293,246	115,38
293,781	119,42
294,315	108,45
294,85	140,28
295,384	115,57
295,918	116,91
296,453	104,48
296,987	125,21
297,52	119,42
298,054	110,31
298,588	115,83
299,121	105,6
299,655	110,58
300,188	114,58
300,721	112,2
301,254	111,29
301,787	110,16
302,32	129,27
302,853	114,4
303,385	114,29
303,918	113,95
304,45	116,54
304,982	100,71
305,514	118,22
306,046	109,92
306,578	111,63
307,11	119,38
307,641	116,38
308,173	114,88
308,704	110,33
309,236	107,14
309,767	102,13
310,298	108,87
310,829	128,26
311,359	112,1
311,89	119,33
312,421	121,62
312,951	122,36
313,481	101,72
314,012	109,7
314,542	115,68
315,072	118,7
315,601	116,4
316,131	117,32
316,661	110,83
317,19	110
317,72	121,07
318,249	117,86
318,778	113,28
319,307	110,16
319,836	117,7
320,365	117,39
320,893	124,38
321,422	126,02
321,95	121,05
322,479	111,45
323,007	121,82
323,535	106,07
324,063	121,2
324,591	117,6
325,118	117,15
325,646	121,85
326,173	114,58
326,701	117,07
327,228	128,88
327,755	111,65
328,282	100,76
328,809	118,64
329,336	113,78
329,862	111,76
330,389	105,86
330,915	109,45
331,441	107,25
331,968	117,57
332,494	107,95
333,02	117,5
333,545	103,73
334,071	127,27
334,597	105,99
335,122	108,15
335,648	125,86
336,173	103,41
336,698	95,57
337,223	98,53
337,748	104,86
338,272	104,11
338,797	109,78
339,322	94,53
339,846	92,65
340,37	117,74
340,894	100
341,419	104,51
341,942	104,55
342,466	96,79
342,99	94,97
343,514	102,82
344,037	94,3
344,56	107,78
345,084	100,34
345,607	103,12
346,13	103,87
346,653	103,33
347,175	90,06
347,698	94,65
348,221	89,29
348,743	91,61
349,265	101,44
349,787	84,05
350,309	92,09
350,831	82,72
351,353	84,45
351,875	85,67
352,397	91,26
352,918	90,46
353,439	91,06
353,961	80,23
354,482	89,18
355,003	82,56
355,524	77,22
356,044	77,56
356,565	89,76
357,086	83,9
357,606	74,45
358,126	78,46
358,646	75,77
359,167	80,54
359,687	85,59
360,206	78,96
360,726	69,67
361,246	84,04
361,765	77,68
362,285	71,5
362,804	76,32
363,323	70,49
363,842	72,53
364,361	71,39
364,88	74,88
365,398	63,97
365,917	62,26
366,435	79,43
366,954	74,55
367,472	70,05
367,99	74,88
368,508	65,38
369,026	77,05
369,544	66,23
370,061	66,18
370,579	65,57
371,096	66,51
371,613	63,58
372,131	60,24
372,648	62,8
373,165	64,06
373,681	61,6
374,198	65,43
374,715	64,47
375,231	65,15
375,747	56,03
376,264	59,86
376,78	58,09
377,296	56,69
377,812	53,16
378,327	56,29
378,843	60,07
379,359	56,46
379,874	59,69
380,389	52,05
380,905	50,75
381,42	52,43
381,935	52,29
382,449	55,16
382,964	48,43
383,479	49,28
383,993	48,2
384,508	45,93
385,022	45,85
385,536	48,68
386,05	47,64
386,564	46,64
387,078	44,38
387,592	42,09
388,105	43,85
388,619	43,86
389,132	42,58
389,645	42,53
390,158	38,3
390,671	40,43
391,184	39,27
391,697	38,98
392,21	35,88
392,722	38,39
393,235	37,34
393,747	39,2
394,259	36,33
394,771	34,37
395,283	35,44
395,795	34,79
396,307	36,17
396,818	34,91
397,33	32,99
397,841	36,02
398,353	34,33
398,864	33,17
399,375	32,97
399,886	31,66
400,397	29
400,907	28,09
401,418	28,39
401,928	27,28
402,439	28,27
402,949	25,87
403,459	26,61
403,969	26,46
404,479	25,18
404,989	23,68
405,498	23,84
406,008	24,27
406,517	21,74
407,027	20,6
407,536	18,42
408,045	19,15
408,554	18,92
409,063	17,85
409,572	17,16
410,08	17,49
410,589	16,77
411,097	16,37
411,606	16,31
412,114	15,41
412,622	14,85
413,13	14,63
413,638	14,24
414,145	13,88
414,653	13,72
415,16	13,87
415,668	12,62
416,175	12,04
416,682	12,19
417,189	11,26
417,696	11,52
418,203	11,67
418,71	10,53
419,216	11,26
419,723	10,94
420,229	10,8
420,735	9,7
421,242	10,49
421,748	10,47
422,254	9,93
422,759	9,82
423,265	9,68
423,771	10,19
424,276	9,52
424,781	8,98
425,287	9,24
425,792	9,33
426,297	9,4
426,802	8,58
427,306	8,8
427,811	8,89
428,316	8,84
428,82	8,78
429,324	8,69
429,829	8,35
430,333	8,2
430,837	8,48
431,34	8,24
431,844	8,23
432,348	8,45
432,851	8,1
433,355	8,27
433,858	7,87
434,361	8,06
434,864	7,62
435,367	7,84
435,87	8,41
436,373	8,07
436,876	8,28
437,378	7,94
437,88	7,52
438,383	8
438,885	7,99
439,387	7,75
439,889	7,87
440,391	7,45
440,892	7,79
441,394	7,69
441,896	7,44
442,397	7,55
442,898	7,34
443,399	7,57
443,9	7,55
444,401	7,59
444,902	7,39
445,403	7,46
445,903	7,42
446,404	7,83
446,904	7,32
447,405	7,05
447,905	7,26
448,405	7,24
448,905	7,67
449,404	7,67
449,904	7,3
450,404	7,12
450,903	7,34
451,403	7,5
451,902	7,18
452,401	7,68
452,9	7,52
453,399	7,25
453,898	7,08
454,396	7,63
454,895	6,96
455,393	7,17
455,892	7,1
456,39	7,46
456,888	6,86
457,386	7,09
457,884	7,21
458,382	7,5
458,879	7,45
459,377	7,56
459,874	7,37
460,372	7,32
460,869	7,4
461,366	7,46
461,863	7,31
462,36	7,19
462,857	7,24
463,353	7,27
463,85	7,27
464,346	7,16
464,843	7,38
465,339	6,93
465,835	7,43
466,331	7,29
466,827	7,16
467,323	7,35
467,818	7,24
468,314	7,32
468,809	7,22
469,305	6,91
469,8	6,87
470,295	7,2
470,79	7,37
471,285	6,99
471,78	6,91
472,274	6,83
472,769	6,92
473,263	7,03
473,758	7,2
474,252	6,78
474,746	6,97
475,24	7,17
475,734	7,12
476,228	6,97
476,721	7,07
477,215	6,92
477,708	7,1
478,202	7,06
478,695	7,13
479,188	6,96
479,681	6,84
480,174	7,06
480,667	7,04
481,159	7,11
481,652	7,09
482,144	7,15
482,637	7,09
483,129	6,72
483,621	7,16
484,113	7,15
484,605	7,04
485,097	7,18
485,588	7,01
486,08	6,93
486,571	7,29
487,063	7,19
487,554	7,48
488,045	7,02
488,536	7,42
489,027	7,14
489,518	7,38
490,008	6,7
490,499	7,38
490,989	7,27
491,48	7,2
491,97	7,1
492,46	7,3
492,95	7,11
493,44	7,48
493,93	7,3
494,419	7,24
494,909	7,51
495,398	7,38
495,888	7,49
496,377	7,6
496,866	7,7
497,355	7,46
497,844	7,7
498,333	8,05
498,821	7,81
499,31	7,62
499,798	7,83
500,287	7,94
500,775	8,33
501,263	8,09
501,751	8,16
502,239	8,42
502,727	8,48
503,215	8,53
503,702	8,61
504,19	8,89
504,677	8,8
505,164	9,11
505,651	9,18
506,139	9,25
506,625	9,28
507,112	9,66
507,599	10,01
508,086	10
508,572	10,28
509,058	10,63
509,545	10,64
510,031	10,8
510,517	10,93
511,003	10,84
511,489	11,16
511,974	11,88
512,46	11,84
512,946	11,87
513,431	12,37
513,916	12,74
514,401	12,86
514,887	13,07
515,371	13,46
515,856	13,53
516,341	13,78
516,826	14,11
517,31	14,56
517,795	14,77
518,279	14,88
518,763	15,51
519,247	15,9
519,731	16,23
520,215	16,38
520,699	16,8
521,182	17,16
521,666	17,48
522,149	17,72
522,633	18,63
523,116	18,88
523,599	19,24
524,082	19,07
524,565	19,35
525,048	20,19
525,53	20,12
526,013	20,45
526,495	21
526,978	21,17
527,46	21,62
527,942	21,5
528,424	22,14
528,906	22,11
529,388	22,7
529,87	23,3
530,351	22,85
530,833	23,41
531,314	23,67
531,795	23,52
532,277	24,67
532,758	24,48
533,238	24,55
533,719	24,89
534,2	24,63
534,681	25,06
535,161	25,03
535,642	25,25
536,122	25,03
536,602	25,29
537,082	25,65
537,562	25,69
538,042	25,5
538,522	25,98
539,001	25,79
539,481	26,37
539,96	26,06
540,44	26,11
540,919	26,5
541,398	26,1
541,877	26,12
542,356	26,51
542,835	26,19
543,313	26,51
543,792	26,66
544,27	26,64
544,749	26,54
545,227	26,88
545,705	27,22
546,183	27,41
546,661	27,21
547,139	26,97
547,616	26,85
548,094	27,04
548,571	27,43
549,049	27,49
549,526	26,87
550,003	27,32
550,48	27,29
550,957	27,34
551,434	27,85
551,911	27,48
552,387	27,65
552,864	27,4
553,34	27,94
553,817	27,53
554,293	27,71
554,769	27,65
555,245	27,68
555,721	27,75
556,197	27,44
556,672	27,25
557,148	27,86
557,623	27,28
558,099	27,17
558,574	27,57
559,049	26,73
559,524	27,26
559,999	27,17
560,474	26,92
560,948	26,57
561,423	27,11
561,897	26,35
562,372	26,59
562,846	26,02
563,32	26,08
563,794	26,19
564,268	26,04
564,742	25,7
565,216	25,55
565,69	25,12
566,163	25,29
566,636	24,96
567,11	24,87
567,583	24,54
568,056	24,18
568,529	24,28
569,002	23,96
569,475	23,94
569,947	23,77
570,42	23,79
570,892	23,01
571,365	22,84
571,837	22,77
572,309	22,68
572,781	22,25
573,253	22,17
573,725	21,82
574,197	21,68
574,668	21,41
575,14	21,05
575,611	20,95
576,082	20,89
576,554	20,47
577,025	20,81
577,496	20,19
577,967	20,14
578,437	20,18
578,908	19,84
579,379	19,95
579,849	19,52
580,319	19,04
580,79	19,11
581,26	19,1
581,73	18,79
582,2	18,71
582,669	18,65
583,139	18,36
583,609	18,56
584,078	18,12
584,548	18,22
585,017	18,1
585,486	17,75
585,955	17,74
586,424	17,62
586,893	17,67
587,362	17,67
587,83	17,36
588,299	17,15
588,767	17,4
589,236	17,3
589,704	17,35
590,172	16,87
590,64	16,88
591,108	17,03
591,576	16,86
592,043	16,61
592,511	16,8
592,978	16,83
593,446	16,67
593,913	16,49
594,38	16,48
594,847	16,44
595,314	16,3
595,781	16,2
596,248	16,26
596,715	16,4
597,181	16,02
597,647	16,21
598,114	16,16
598,58	15,92
599,046	16,11
599,512	15,94
599,978	15,82
600,444	15,79
600,91	15,82
601,375	16,05
601,841	15,92
602,306	15,53
602,771	15,69
603,236	15,52
603,702	15,73
604,167	15,47
604,631	15,45
605,096	15,26
605,561	15,04
606,025	15,22
606,49	15,04
606,954	14,86
607,418	14,86
607,882	14,94
608,347	14,6
608,81	14,67
609,274	14,55
609,738	14,53
610,202	14,43
610,665	14,38
611,128	14,28
611,592	14,05
612,055	14,02
612,518	14,03
612,981	13,76
613,444	13,78
613,907	13,66
614,369	13,46
614,832	13,46
615,294	13,27
615,757	13,25
616,219	13,27
616,681	12,97
617,143	12,97
617,605	12,89
618,067	12,8
618,529	12,63
618,99	12,72
619,452	12,59
619,913	12,5
620,375	12,67
620,836	12,46
621,297	12,5
621,758	12,34
622,219	12,3
622,68	12,2
623,14	12,06
623,601	12,28
624,061	12,21
624,522	12,05
624,982	12,14
625,442	12,2
625,902	12,03
626,362	12,12
626,822	12
627,282	12,07
627,742	11,86
628,201	11,83
628,661	12,15
629,12	12
629,579	11,9
630,038	11,92
630,497	12,06
630,956	11,88
631,415	11,68
631,874	11,72
632,332	11,66
632,791	11,7
633,249	11,69
633,708	11,6
634,166	11,44
634,624	11,52
635,082	11,47
635,54	11,4
635,998	11,3
636,455	11,29
636,913	11,07
637,37	10,86
637,828	10,97
638,285	10,78
638,742	10,63
639,199	10,66
639,656	10,6
640,113	10,52
640,57	10,12
641,027	10,21
641,483	10,11
641,94	10,13
642,396	10,11
642,852	9,85
643,309	9,62
643,765	9,4
644,221	9,43
644,676	9,22
645,132	9,35
645,588	9,18
646,043	8,94
646,499	8,85
646,954	8,73
647,409	8,8
647,864	8,84
648,319	8,57
648,774	8,64
649,229	8,44
649,684	8,31
650,139	8,41
650,593	8,18
651,047	8,16
651,502	8,16
651,956	8,07
652,41	7,96
652,864	8,02
653,318	8,08
653,772	8,03
654,225	7,83
654,679	7,76
655,133	7,99
655,586	7,75
656,039	7,67
656,492	7,74
656,946	7,71
657,399	7,57
657,851	7,6
658,304	7,4
658,757	7,49
659,209	7,32
659,662	7,27
660,114	7,21
660,567	7,15
661,019	7,12
661,471	7,04
661,923	6,98
662,375	6,95
662,826	6,89
663,278	6,81
663,73	6,8
664,181	6,71
664,632	6,78
665,084	6,81
665,535	6,69
665,986	6,64
666,437	6,74
666,888	6,65
667,338	6,61
667,789	6,74
668,24	6,77
668,69	6,53
669,14	6,8
669,591	6,65
670,041	6,74
670,491	6,74
670,941	6,71
671,391	6,91
671,84	6,86
672,29	6,81
672,74	6,96
673,189	7,13
673,638	7,13
674,088	7,15
674,537	7,25
674,986	7,35
675,435	7,42
675,883	7,49
676,332	7,49
676,781	7,66
677,229	7,71
677,678	7,82
678,126	7,93
678,574	8
679,022	8,15
679,47	8,27
679,918	8,38
680,366	8,41
680,814	8,53
681,261	8,61
681,709	8,77
682,156	8,98
682,604	9,09
683,051	9,16
683,498	9,35
683,945	9,4
684,392	9,46
684,839	9,63
685,286	9,66
685,732	9,85
686,179	9,96
686,625	10,08
687,071	10,23
687,518	10,4
687,964	10,71
688,41	10,77
688,856	10,99
689,301	11,34
689,747	11,33
690,193	11,68
690,638	11,86
691,084	12,14
691,529	12,54
691,974	13,04
692,419	13,38
692,864	13,88
693,309	14,29
693,754	14,77
694,199	15,46
694,643	15,92
695,088	16,39
695,532	16,86
695,977	17,72
696,421	18,27
696,865	18,88
697,309	19,51
697,753	20,35
698,197	20,79
698,64	21,57
699,084	22,3
699,527	22,99
699,971	23,42
700,414	24,4
700,857	25,05
701,3	25,89
701,743	26,68
702,186	27,19
702,629	27,68
703,072	28,82
703,515	29,22
703,957	30,02
704,399	30,52
704,842	31,46
705,284	31,74
705,726	32,91
706,168	33,2
706,61	34,39
707,052	34,72
707,494	35,77
707,935	36,13
708,377	36,81
708,818	37,59
709,26	38,45
709,701	38,88
710,142	39,94
710,583	40,05
711,024	41,14
711,465	41,67
711,905	42,35
712,346	42,7
712,787	43,4
713,227	44,29
713,667	44,9
714,108	45,87
714,548	46,39
714,988	47,23
715,428	47,51
715,868	48,6
716,307	48,77
716,747	49,42
717,186	50,13
717,626	50,49
718,065	51,46
718,504	52,12
718,944	52,65
719,383	53,36
719,822	53,97
720,261	54,2
720,699	55,22
721,138	55,21
721,576	56,52
722,015	56,98
722,453	57,19
722,892	57,45
723,33	58,58
723,768	59,55
724,206	59,65
724,644	59,88
725,081	60,21
725,519	60,95
725,957	61,3
726,394	62,57
726,832	62,41
727,269	62,79
727,706	63,36
728,143	63,71
728,58	64,34
729,017	64,44
729,454	64,98
729,89	65,49
730,327	65,34
730,764	66,18
731,2	66,62
731,636	67,02
732,072	67,62
732,509	67,54
732,945	67,93
733,38	68,08
733,816	68,75
734,252	68,93
734,688	68,82
735,123	69,44
735,559	69,56
735,994	69,35
736,429	70,3
736,864	70,46
737,299	70,52
737,734	71,12
738,169	71,23
738,604	71,21
739,038	71,21
739,473	71,85
739,907	71,93
740,342	71,74
740,776	72,32
741,21	72,34
741,644	72,75
742,078	72,71
742,512	72,68
742,946	72,92
743,379	72,95
743,813	72,87
744,246	72,52
744,68	73,03
745,113	72,67
745,546	73,19
745,979	73,55
746,412	73,29
746,845	73,29
747,278	73,56
747,711	73,18
748,143	73,35
748,576	73,72
749,008	74,16
749,441	73,6
749,873	73,32
750,305	73,8
750,737	73,39
751,169	73,71
751,601	73,74
752,032	73,54
752,464	73,78
752,896	73,13
753,327	73,35
753,758	73,59
754,19	73,64
754,621	73,34
755,052	73,26
755,483	73,79
755,914	73,68
756,344	73,47
756,775	73,41
757,206	73,35
757,636	73,53
758,066	73,64
758,497	73,37
758,927	73,97
759,357	73,64
759,787	73,6
760,217	73,1
760,647	73,12
761,076	73,25
761,506	72,81
761,935	73,11
762,365	73,66
762,794	73,06
763,223	73,14
763,653	73,21
764,082	72,82
764,51	73,3
764,939	72,97
765,368	72,92
765,797	72,92
766,225	72,88
766,654	72,89
767,082	72,31
767,51	72,96
767,938	72,61
768,367	72,24
768,795	71,88
769,222	73,16
769,65	73,33
770,078	72,49
770,505	72,63
770,933	72,56
771,36	72,59
771,788	72,51
772,215	72,44
772,642	72,55
773,069	72,56
773,496	72,19
773,923	72,23
774,349	72
774,776	72,02
775,203	72,27
775,629	72,17
776,055	71,78
776,482	71,86
776,908	72,2
777,334	72,06
777,76	72,07
778,186	72,45
778,611	72,46
779,037	72,27
779,463	72,22
779,888	72,05
780,314	71,94
780,739	72,22
781,164	72,32
781,589	71,89
782,014	71,58
782,439	71,72
782,864	71,77
783,289	72,64
783,713	71,46
784,138	72,33
784,562	71,39
784,987	71,77
785,411	71,92
785,835	71,34
786,259	71,27
786,683	72,18
787,107	71,78
787,531	71,75
787,954	71,72
788,378	71,69
788,802	71,59
789,225	71,38
789,648	71,75
790,071	71,16
790,495	71,93
790,918	71,85
791,34	71,56
791,763	71,44
792,186	71,43
792,609	71,21
793,031	71,08
793,454	71,38
793,876	71,85
794,298	71,27
794,721	71,3
795,143	71,96
795,565	71,35
795,986	70,97
796,408	71,28
796,83	71,13
797,252	71,45
797,673	71,64
798,094	72,23
798,516	71,22
798,937	71,62
799,358	71
799,779	71,26
800,2	71,56
800,621	71,25
801,042	71,3
801,462	71,5
801,883	71,22
802,303	70,95
802,724	71,42
803,144	71,2
803,564	71,41
803,984	71,53
804,404	71,54
804,824	71,62
805,244	71,5
805,664	71,35
806,084	71,63
806,503	71,32
806,923	71,34
807,342	71,38
807,761	71,17
808,18	71,09
808,599	70,87
809,018	71,49
809,437	70,86
809,856	70,79
810,275	71,65
810,693	71,29
811,112	71,51
811,53	71,25
811,949	71,13
812,367	71,28
812,785	71,1
813,203	71,44
813,621	71,07
814,039	71,21
814,457	71,17
814,874	70,88
815,292	70,75
815,709	70,97
816,127	71,08
816,544	71,45
816,961	71,06
817,378	71,93
817,795	71,36
818,212	71,26
818,629	71,66
819,046	71,04
819,462	71,12
819,879	70,8
820,295	70,73
820,712	70,9
821,128	70,71
821,544	71,16
821,96	71,56
822,376	71,41
822,792	71,12
823,208	71,13
823,624	71,21
824,039	70,9
824,455	71,43
824,87	70,74
825,286	71,22
825,701	70,85
826,116	71,19
826,531	71,22
826,946	70,99
827,361	70,74
827,776	70,9
828,19	70,83
828,605	70,3
829,02	70,5
829,434	70,66
829,848	70,93
830,263	71,27
830,677	70,62
831,091	70,6
831,505	70,23
831,919	70,84
832,332	70,86
832,746	71,1
833,16	70,4
833,573	71,2
833,987	70,99
834,4	70,61
834,813	70,12
835,226	70,34
835,639	70,48
836,052	70,35
836,465	70,49
836,878	70,81
837,29	70,7
837,703	70,19
838,116	70,57
838,528	71,22
838,94	70,87
839,352	70,56
839,765	70,67
840,177	70,46
840,589	70,6
841	70,13
841,412	70,71
841,824	70,65
842,235	70,56
842,647	70,57
843,058	71,1
843,47	70,38
843,881	71,02
844,292	70,39
844,703	70,93
845,114	70,53
845,525	70,61
845,935	70,47
846,346	70,69
846,757	70,1
847,167	70,66
847,577	70,49
847,988	70,53
848,398	70,51
848,808	70,5
849,218	70,52
849,628	70,38
850,038	70,59
850,448	70,32
850,857	70,41
851,267	70,7
851,676	70,39
852,086	70,8
852,495	70,67
852,904	70,45
853,313	69,76
853,722	70,15
854,131	70,78
854,54	70,26
854,949	69,96
855,357	70,24
855,766	70,46
856,174	70,17
856,583	70,48
856,991	70,32
857,399	70,96
857,807	70,6
858,215	70,75
858,623	71,07
859,031	70,36
859,439	70,89
859,846	70,96
860,254	70,61
860,661	71,13
861,069	70,42
861,476	70,17
861,883	70,26
862,29	69,74
862,697	70,62
863,104	70,37
863,511	70,35
863,918	70,24
864,325	70,73
864,731	70,77
865,138	69,97
865,544	70,27
865,95	70,88
866,357	70,55
866,763	70,48
867,169	70,27
867,575	70,69
867,98	70,14
868,386	70,39
868,792	70,93
869,197	69,99
869,603	70,27
870,008	70,29
870,414	70,42
870,819	70,17
871,224	70,31
871,629	70,05
872,034	70,26
872,439	70,17
872,844	70,49
873,248	70,77
873,653	70,34
874,057	70,09
874,462	70,33
874,866	70,83
875,27	70,83
875,674	70,88
876,078	70,42
876,482	70,33
876,886	69,74
877,29	70,2
877,694	70,46
878,097	69,82
878,501	69,57
878,904	69,52
879,308	69,89
879,711	70,16
880,114	70,39
880,517	70,3
880,92	70,86
881,323	70,76
881,726	70,33
882,128	70,23
882,531	70,59
882,934	70,4
883,336	70,49
883,738	69,94
884,141	70,3
884,543	70,53
884,945	69,91
885,347	70,42
885,749	69,85
886,151	70,24
886,552	70,06
886,954	69,55
887,355	69,95
887,757	69,98
888,158	70,34
888,56	70,02
888,961	70,44
889,362	70,25
889,763	70,45
890,164	71
890,565	69,82
890,965	70,55
891,366	70,06
891,767	70,53
892,167	70,21
892,567	70,55
892,968	70,11
893,368	69,84
893,768	70,06
894,168	69,63
894,568	69,79
894,968	69,87
895,368	69,96
895,767	70,18
896,167	70
896,566	69,77
896,966	70,2
897,365	70,41
897,764	70,77
898,164	70,63
898,563	70,43
898,962	70,61
899,361	70,65
899,759	70,66
900,158	69,9
900,557	70,37
900,955	69,87
901,354	70,1
901,752	70,23
902,15	69,18
902,548	70,01
902,947	70,1
903,345	70,59
903,742	69,7
904,14	70,45
904,538	70,42
904,936	70,63
905,333	69,81
905,731	70,25
906,128	69,75
906,525	70,2
906,923	70,61
907,32	70,12
907,717	70,4
908,114	70,5
908,511	70,32
908,907	70,73
909,304	70,07
909,701	69,93
910,097	70,53
910,494	69,69
910,89	70,73
911,286	69,95
911,682	70,64
912,078	70,49
912,474	70,73
912,87	70,68
913,266	69,83
913,662	69,95
914,058	69,71
914,453	70,28
914,849	69,8
915,244	69,85
915,639	70,44
916,034	69,79
916,43	70,58
916,825	70,02
917,22	70,55
917,614	70,39
918,009	70,41
918,404	69,92
918,798	69,7
919,193	70
919,587	69,87
919,982	69,92
920,376	69,85
920,77	69,45
921,164	70,23
921,558	69,5
921,952	69,84
922,346	69,63
922,74	70,32
923,133	69,87
923,527	69,76
923,92	69,64
924,314	69,59
924,707	69,6
925,1	69,72
925,493	69,99
925,886	69,4
926,279	69,68
926,672	70,19
927,065	69,4
927,457	70,49
927,85	69,28
928,243	69,3
928,635	69,81
929,027	69,84
929,42	69,98
929,812	69,94
930,204	70,4
930,596	69,84
930,988	70,12
931,379	69,7
931,771	70,57
932,163	69,67
932,554	69,48
932,946	69,28
933,337	69,62
933,729	70,52
934,12	69,52
934,511	69,49
934,902	70,51
935,293	68,73
935,684	70,11
936,075	70,29
936,465	69,91
936,856	68,47
937,246	70,46
937,637	69,36
938,027	68,82
938,417	69,16
938,808	69,44
939,198	68,29
939,588	70,37
939,978	69,6
940,368	69
940,757	69,6
941,147	70,27
941,537	69,06
941,926	70,46
942,315	70,78
942,705	68,74
943,094	68,67
943,483	68,73
943,872	68,32
944,261	69,14
944,65	68,63
945,039	69,97
945,428	69,5
945,816	69,99
946,205	69,53
946,593	68,77
946,982	69,52
947,37	68,81
947,758	69,64
948,146	69,45
948,534	68,86
948,922	68,78
949,31	67,8
949,698	69,36
950,086	68,9
950,473	67,73
950,861	68,54
951,248	68,63
951,636	68,91
952,023	67,67
952,41	68,1
952,797	67,79
953,184	68,35
953,571	69,39
953,958	67,1
954,345	67,44
954,731	68,74
955,118	67,1
955,505	66,69
955,891	67,78
956,277	67,75
956,664	67,41
957,05	66,81
957,436	66,9
957,822	66,04
958,208	67,4
958,594	66,79
958,979	67,04
959,365	66,61
959,751	67,34
960,136	67,39
960,522	66,9
960,907	66,99
961,292	66,73
961,677	67,37
962,062	67,37
962,447	67,55
962,832	66,99
963,217	67,08
963,602	67,51
963,986	67,28
964,371	66,73
964,756	66,62
965,14	67,23
965,524	67,18
965,908	67,19
966,293	66,53
966,677	67
967,061	68,37
967,445	66,71
967,828	66,96
968,212	67,37
968,596	66,44
968,979	66,98
969,363	67,28
969,746	67,51
970,129	66,47
970,513	66,61
970,896	67,38
971,279	67,33
971,662	67,48
972,045	65,93
972,428	68,02
972,81	66,91
973,193	67,94
973,575	66,97
973,958	65,92
974,34	67,33
974,723	66,94
975,105	66,8
975,487	66,78
975,869	66,84
976,251	67,5
976,633	66,9
977,015	67,39
977,396	67,58
977,778	67
978,16	67,12
978,541	67,32
978,922	67,81
979,304	67,56
979,685	67,14
980,066	67,02
980,447	67,65
980,828	67,76
981,209	67,3
981,59	67,37
981,97	66,87
982,351	66,64
982,732	67,95
983,112	68,08
983,493	68,17
983,873	67,29
984,253	66,93
984,633	67,54
985,013	67,6
985,393	67,26
985,773	66,95
986,153	67,56
986,533	66,91
986,912	67,68
987,292	67,96
987,671	67,08
988,051	68,75
988,43	66,65
988,809	67,38
989,188	68,34
989,567	67,63
989,946	67,32
990,325	68
990,704	68,11
991,083	68,14
991,461	68,31
991,84	68,1
992,218	68,43
992,597	68,46
992,975	68,37
993,353	68,25
993,732	67,58
994,11	68,92
994,488	68,46
994,866	67,31
995,243	67,46
995,621	68,87
995,999	67,84
996,376	68,48
996,754	68,3
997,131	68,64
997,509	68,05
997,886	67,85
998,263	68,43
998,64	67,8
999,017	68,07
999,394	68,65
999,771	68,61
1000,148	67,8
1000,524	68,06
1000,901	67,84
1001,277	68,98
1001,654	68,15
1002,03	68,95
1002,406	68,75
1002,783	68,76
1003,159	68,55
1003,535	68,81
1003,911	69,11
1004,286	69,35
1004,662	68,99
1005,038	69,05
1005,414	69,55
1005,789	68,7
1006,164	68,84
1006,54	69,94
1006,915	69,26
1007,29	68,27
1007,665	69,6
1008,04	69,15
1008,415	69,16
1008,79	69,08
1009,165	68,9
1009,54	69,41
1009,914	69,38
1010,289	69,84
1010,663	69,18
1011,038	69,85
1011,412	69,33
1011,786	69,39
1012,16	70,4
1012,535	69,64
1012,909	70,51
1013,282	70,39
1013,656	69,77
1014,03	69,39
1014,404	70,36
1014,777	69,35
1015,151	69,78
1015,524	70,11
1015,897	69,9
1016,271	71,17
1016,644	70,13
1017,017	70,16
1017,39	68,52
1017,763	68,99
1018,136	69,97
1018,508	70,27
1018,881	68,85
1019,254	69,69
1019,626	68,95
1019,999	70,03
1020,371	70,27
1020,743	71,14
1021,116	70,45
1021,488	71,06
1021,86	71,78
1022,232	71,38
1022,604	70,58
1022,975	70,97
1023,347	70,44
1023,719	71,71
1024,09	71,4
1024,462	70,38
1024,833	71,4
1025,204	71,22
1025,576	70,63
1025,947	70,5
1026,318	70,57
1026,689	71,93
1027,06	70,69
1027,431	72,57
1027,801	72,21
1028,172	71,81
1028,543	72,49
1028,913	72,22
1029,284	72,2
1029,654	71,4
1030,024	71,25
1030,394	72,68
1030,764	71,76
1031,135	71,61
1031,504	70,93
1031,874	71,34
1032,244	71,14
1032,614	71,31
1032,983	71,31
1033,353	70,6
1033,722	71,57
1034,092	72,5
1034,461	71,85
1034,83	72,47
1035,2	71,64
1035,569	71,63
1035,938	72,19
1036,307	72,94
1036,675	72,52
1037,044	74,36
1037,413	73,62
1037,781	73,46
1038,15	73,59
1038,518	73,22
1038,887	72,77
1039,255	73,32
1039,623	73,86
1039,991	72,8
1040,359	71,42
1040,727	73,3
1041,095	73,24
1041,463	72,55
1041,831	73,99
1042,198	71,69
1042,566	74,24
1042,933	73,57
1043,301	71,94
1043,668	72,92
1044,035	72,06
1044,402	74,68
1044,77	72,25
1045,137	72,91
1045,503	74,2
1045,87	73,48
1046,237	73,83
1046,604	73,76
1046,97	73,75
1047,337	75,33
1047,703	74,51
1048,07	74,53
1048,436	75,25
1048,802	74,69
1049,168	75,13
1049,534	74,14
1049,9	76,28
1050,266	75,04
1050,632	74,38
1050,998	75,72
1051,364	74,86
1051,729	75,74
1052,095	74,9
1052,46	74,7
1052,825	75,66
1053,191	74,77
1053,556	73,76
1053,921	73,98
1054,286	75,88
1054,651	75,42
1055,016	75,68
1055,381	75,6
1055,745	74,09
1056,11	74,96
1056,475	77
1056,839	75,62
1057,203	73,48
1057,568	75,16
1057,932	76,57
1058,296	74,38
1058,66	77,27
1059,024	76,48
1059,388	77,02
1059,752	75,24
1060,116	77,66
1060,48	77,21
1060,843	74,41
1061,207	76,47
1061,57	75,05
1061,934	76,25
1062,297	75,88
1062,66	75,62
1063,023	78,13
1063,386	78,45
1063,749	75,62
1064,112	75,82
1064,475	78
1064,838	77,06
1065,201	76,88
1065,563	77,98
1065,926	74,18
1066,288	76,22
1066,651	78,04
1067,013	77,4
1067,375	75,97
1067,737	79,83
1068,099	77,85
1068,461	77,88
1068,823	76,49
1069,185	77,18
1069,547	75,61
1069,909	73,06
1070,27	76,25
1070,632	74,37
1070,993	77,26
1071,355	75,45
1071,716	75,83
1072,077	77,95
1072,438	77,69
1072,799	78,27
1073,16	78,52
1073,521	74,92
1073,882	78,62
1074,243	79,13
1074,603	78,21
1074,964	76,38
1075,325	75,41
1075,685	75,07
1076,045	76,13
1076,406	78,03
1076,766	76,87
1077,126	76,41
1077,486	76,73
1077,846	77,42
1078,206	77,33
1078,566	77,97
1078,925	75,79
1079,285	75,88
1079,645	80,27
1080,004	76,34
1080,364	77,12
1080,723	76,66
1081,082	80,09
1081,442	75,58
1081,801	78,31
1082,16	77,22
1082,519	76,89
1082,878	78,52
1083,237	76,49
1083,595	80,03
1083,954	76,08
1084,313	76,59
1084,671	76,94
1085,03	77,85
1085,388	76,98
1085,746	78,7
1086,104	77,05
1086,463	78,76
1086,821	79,9
1087,179	78,29
1087,537	80,97
1087,894	78,72
1088,252	80,86
1088,61	78,79
1088,967	79,01
1089,325	79,62
1089,682	79,72
1090,04	81,05
1090,397	79,02
1090,754	80,06
1091,111	77,58
1091,469	81,96
1091,826	80,57
1092,182	82,79
1092,539	78,36
1092,896	79,78
1093,253	79,87
1093,609	80,81
1093,966	79,88
1094,322	78,26
1094,679	81
1095,035	82,56
1095,391	76,81
1095,748	80,64
1096,104	78,63
1096,46	80,42
1096,816	80,61
1097,171	83,37
1097,527	80,3
1097,883	81,14
1098,239	80,07
1098,594	80,17
1098,95	83,42
1099,305	79,93
1099,66	79,65
1100,016	77,75
1100,371	81,03
1100,726	81,41
1101,081	77,51
1101,436	81,51
1101,791	83,37
1102,146	80,4
1102,5	83,06
1102,855	77,54
1103,21	81,74
1103,564	82,67
1103,918	80,27
1104,273	83,58
1104,627	81,23
1104,981	76,53
1105,335	79,58
1105,69	84,99
1106,043	78
1106,397	79,31
1106,751	82,71
1107,105	85,53
1107,459	83,96
1107,812	82,68
1108,166	83,24
1108,519	83,19
1108,873	82,91
1109,226	90,59
1109,579	82,81
1109,932	82,32
1110,285	86,22
1110,638	87,31
1110,991	85,62
1111,344	78,39
1111,697	84,04
1112,05	79,85
1112,402	90,21
1112,755	84,83
1113,107	89,92
1113,46	88,51
1113,812	82,98
1114,164	92,45
1114,517	85,57
1114,869	168,52
1115,221	164,91
1115,573	150,76
1115,924	157,55
