Data from D1___Relative__0__00045.txt Node

Date: Wed Jan 31 18:22:16 CET 2024
User: diatiterra
Spectrometer: HDX00911
Trigger mode: 0
Integration Time (sec): 6,000000E-3
Scans to average: 2
Nonlinearity correction enabled: false
Boxcar width: 0
Storing dark spectrum: false
XAxis mode: Wavelengths
Number of Pixels in Spectrum: 2068
>>>>>Begin Spectral Data<<<<<
194,468	223,58
195,025	138,18
195,581	208,54
196,138	200
196,694	140,12
197,251	119,19
197,807	94,88
198,363	94,4
198,919	94,48
199,474	93,01
200,03	93,03
200,586	107,14
201,141	84,84
201,696	84,23
202,251	95,83
202,806	88,81
203,361	99,63
203,916	92,71
204,471	95,62
205,025	102,82
205,58	92,5
206,134	107,6
206,688	97,31
207,242	109,73
207,796	98,87
208,35	98,19
208,904	93,45
209,457	83,68
210,011	84,4
210,564	90,85
211,117	101,13
211,67	103,36
212,223	95,55
212,776	102,02
213,329	92
213,881	127,45
214,434	92,43
214,986	104,96
215,538	101,1
216,09	84,15
216,642	105,79
217,194	95,08
217,746	104,14
218,297	97,71
218,849	106,62
219,4	110,92
219,951	95,97
220,502	97,97
221,053	98,09
221,604	97,32
222,155	97,22
222,705	85,29
223,256	94,4
223,806	104,33
224,356	96,92
224,906	99,6
225,456	102,33
226,006	100,79
226,556	79,55
227,106	103,63
227,655	90,28
228,204	99,58
228,754	86,27
229,303	90,36
229,852	88,85
230,401	93,66
230,949	96,4
231,498	83,8
232,047	81,49
232,595	91,72
233,143	102,36
233,691	98,06
234,239	89,29
234,787	97,2
235,335	98,13
235,883	91,61
236,43	101,52
236,978	100,38
237,525	90,88
238,072	87,23
238,619	94,7
239,166	93,26
239,713	89,78
240,26	88,21
240,806	97,92
241,353	94,44
241,899	84,27
242,445	89,42
242,991	98,47
243,537	92,05
244,083	105,34
244,629	101,54
245,174	103,54
245,72	94,44
246,265	89,29
246,81	97,6
247,355	107,94
247,9	86,57
248,445	105,95
248,99	89,39
249,534	116,52
250,079	96,24
250,623	94,44
251,168	105,79
251,712	93,36
252,256	102,46
252,8	101,92
253,343	95
253,887	95,16
254,43	91,98
254,974	100
255,517	93,84
256,06	110
256,603	87,04
257,146	106,2
257,689	96,85
258,232	113,98
258,774	95,74
259,317	111,86
259,859	120,18
260,401	107,36
260,943	93,62
261,485	96,1
262,027	102
262,569	100,75
263,11	91,92
263,652	109,45
264,193	98,35
264,734	95,26
265,275	102,87
265,816	95,42
266,357	96,12
266,898	95,38
267,438	102,76
267,979	94,96
268,519	91,79
269,059	117,29
269,6	99,62
270,14	110,08
270,68	100,72
271,219	107,2
271,759	89,47
272,298	103,76
272,838	96,54
273,377	102,78
273,916	96,76
274,455	101,82
274,994	102,4
275,533	95,65
276,072	103,66
276,61	93,12
277,149	102,5
277,687	98,5
278,225	89
278,763	110,53
279,301	105,42
279,839	99,19
280,377	104,1
280,914	89,86
281,452	113,25
281,989	107,44
282,526	100
283,064	110,92
283,601	91,55
284,137	98,76
284,674	102,92
285,211	107,46
285,747	96,21
286,284	123,87
286,82	107,44
287,356	90,13
287,892	98,45
288,428	97,93
288,964	112,18
289,5	103,72
290,035	100,4
290,571	99,16
291,106	104,88
291,641	104,02
292,176	103,91
292,711	101,63
293,246	90,38
293,781	105,37
294,315	83,45
294,85	116,2
295,384	98,77
295,918	87,13
296,453	92,16
296,987	93,39
297,52	95,04
298,054	98,09
298,588	101,25
299,121	93,28
299,655	94,89
300,188	92,92
300,721	104,07
301,254	94,76
301,787	94,14
302,32	105,28
302,853	90,8
303,385	85
303,918	95,35
304,45	95
304,982	89,01
305,514	94,57
306,046	97,52
306,578	87,21
307,11	98,06
307,641	100,86
308,173	97,52
308,704	93,8
309,236	89,47
309,767	92,2
310,298	96,37
310,829	97,83
311,359	104,03
311,89	97,06
312,421	103,15
312,951	102,03
313,481	85,52
314,012	93,28
314,542	103,39
315,072	93,13
315,601	96
316,131	93,7
316,661	92,08
317,19	90
317,72	102,07
318,249	104,37
318,778	103,91
319,307	101,56
319,836	107,96
320,365	100
320,893	102,48
321,422	99,19
321,95	101,88
322,479	97,33
323,007	112,27
323,535	93,93
324,063	106
324,591	98,8
325,118	97,45
325,646	111,34
326,173	95,83
326,701	110,16
327,228	104,74
327,755	92,11
328,282	96,18
328,809	106,36
329,336	100,79
329,862	101,84
330,389	96,88
330,915	98,43
331,441	90,08
331,968	101,8
332,494	102,27
333,02	103,75
333,545	94,03
334,071	107,85
334,597	85,21
335,122	92,96
335,648	104,31
336,173	90,53
336,698	82,91
337,223	95,96
337,748	88,54
338,272	91,44
338,797	93,84
339,322	84,67
339,846	87,87
340,37	100,81
340,894	85,76
341,419	94,36
341,942	83,57
342,466	83,65
342,99	82,89
343,514	89,79
344,037	76,27
344,56	100,74
345,084	84,93
345,607	90,28
346,13	85,92
346,653	89,67
347,175	87,5
347,698	80,5
348,221	82,86
348,743	80,12
349,265	82,73
349,787	75,46
350,309	80,38
350,831	73,77
351,353	79,57
351,875	82,46
352,397	86,36
352,918	79,93
353,439	88,74
353,961	73,26
354,482	78,95
355,003	79,36
355,524	79,44
356,044	74,72
356,565	84,04
357,086	79,38
357,606	67,86
358,126	70,74
358,646	64,8
359,167	75,14
359,687	77,68
360,206	72,4
360,726	63,51
361,246	74,73
361,765	70,9
362,285	67,75
362,804	72,11
363,323	68,29
363,842	77,47
364,361	67,16
364,88	70,2
365,398	68,78
365,917	66,98
366,435	71,61
366,954	62,28
367,472	62,03
367,99	76,78
368,508	62,15
369,026	68,41
369,544	64,69
370,061	63,66
370,579	63,73
371,096	69,95
371,613	63,58
372,131	57,87
372,648	59,06
373,165	57,81
373,681	60,55
374,198	63,87
374,715	60,34
375,231	58,14
375,747	59,31
376,264	56,12
376,78	57,19
377,296	57,62
377,812	53,49
378,327	58,94
378,843	59,73
379,359	53,97
379,874	61,25
380,389	53
380,905	47,31
381,42	50,76
381,935	52,59
382,449	54,42
382,964	47,57
383,479	46,55
383,993	47,78
384,508	47,77
385,022	45,21
385,536	47,89
386,05	47,64
386,564	47,51
387,078	46,89
387,592	46,59
388,105	45,98
388,619	41,07
389,132	44,27
389,645	44,37
390,158	41,63
390,671	42,46
391,184	39,17
391,697	39,78
392,21	37,8
392,722	40,87
393,235	39,49
393,747	38,23
394,259	38,95
394,771	34,55
395,283	37,36
395,795	36,57
396,307	39,35
396,818	36,4
397,33	33,08
397,841	34,87
398,353	34,07
398,864	34,49
399,375	32,8
399,886	32,04
400,397	31,9
400,907	27,95
401,418	28,26
401,928	28,71
402,439	31,54
402,949	25,81
403,459	27,85
403,969	28,02
404,479	26,53
404,989	26,14
405,498	24,83
406,008	23,82
406,517	22,64
407,027	22,5
407,536	22,08
408,045	19,64
408,554	20,34
409,063	18,95
409,572	18,33
410,08	17,74
410,589	18,49
411,097	17,83
411,606	17,3
412,114	16,83
412,622	16,66
413,13	15,83
413,638	16,11
414,145	15,05
414,653	15,47
415,16	14,27
415,668	14,54
416,175	13,6
416,682	13,2
417,189	12,69
417,696	13,18
418,203	13,08
418,71	12,78
419,216	11,7
419,723	11,78
420,229	11,93
420,735	10,97
421,242	11,55
421,748	11,65
422,254	11,54
422,759	11,05
423,265	11,05
423,771	10,91
424,276	10,88
424,781	10,49
425,287	11,01
425,792	10,39
426,297	10,58
426,802	10,23
427,306	10,16
427,811	10,11
428,316	10,14
428,82	9,68
429,324	9,83
429,829	9,71
430,333	9,49
430,837	10,2
431,34	9,24
431,844	8,9
432,348	8,83
432,851	9,44
433,355	9,28
433,858	9,42
434,361	9,35
434,864	9,19
435,367	9,44
435,87	9,7
436,373	9,1
436,876	9,12
437,378	9,36
437,88	9,35
438,383	8,84
438,885	9,4
439,387	8,93
439,889	8,59
440,391	8,69
440,892	8,75
441,394	8,75
441,896	8,46
442,397	8,6
442,898	8,61
443,399	8,95
443,9	8,6
444,401	8,42
444,902	8,59
445,403	9,1
445,903	8,84
446,404	8,9
446,904	8,64
447,405	8,43
447,905	8,61
448,405	8,94
448,905	8,86
449,404	8,96
449,904	8,62
450,404	8,49
450,903	8,86
451,403	8,8
451,902	9,11
452,401	8,95
452,9	8,78
453,399	8,63
453,898	8,6
454,396	8,65
454,895	8,34
455,393	8,78
455,892	8,51
456,39	8,62
456,888	8,68
457,386	8,97
457,884	8,59
458,382	8,62
458,879	8,63
459,377	8,91
459,874	8,81
460,372	8,58
460,869	8,52
461,366	8,79
461,863	8,37
462,36	8,51
462,857	8,78
463,353	8,36
463,85	8,67
464,346	8,5
464,843	8,55
465,339	8,48
465,835	8,93
466,331	8,76
466,827	8,26
467,323	8,85
467,818	8,83
468,314	8,8
468,809	8,99
469,305	8,4
469,8	8,54
470,295	8,44
470,79	8,75
471,285	8,47
471,78	8,57
472,274	8,5
472,769	8,42
473,263	8,5
473,758	8,15
474,252	8,63
474,746	8,5
475,24	8,59
475,734	8,32
476,228	8,57
476,721	8,51
477,215	8,29
477,708	8,42
478,202	8,54
478,695	8,34
479,188	8,38
479,681	8,23
480,174	8,82
480,667	8,57
481,159	8,54
481,652	8,5
482,144	8,63
482,637	8,5
483,129	8,21
483,621	8,76
484,113	8,65
484,605	8,88
485,097	8,72
485,588	8,59
486,08	8,66
486,571	8,76
487,063	8,7
487,554	8,77
488,045	8,66
488,536	8,56
489,027	8,76
489,518	9,02
490,008	8,76
490,499	8,67
490,989	8,75
491,48	8,53
491,97	8,66
492,46	8,84
492,95	8,91
493,44	9,05
493,93	9,32
494,419	8,99
494,909	9,24
495,398	8,89
495,888	9,06
496,377	9,32
496,866	9,36
497,355	9,71
497,844	9,44
498,333	9,62
498,821	9,57
499,31	9,78
499,798	9,81
500,287	9,87
500,775	10,2
501,263	9,86
501,751	10,26
502,239	10,56
502,727	10,41
503,215	10,54
503,702	10,79
504,19	10,37
504,677	11,08
505,164	11,47
505,651	11,47
506,139	11,51
506,625	11,7
507,112	11,96
507,599	12,22
508,086	12,12
508,572	12,41
509,058	12,52
509,545	12,66
510,031	13,04
510,517	13,23
511,003	13,42
511,489	13,61
511,974	14,09
512,46	14,33
512,946	14,45
513,431	14,55
513,916	15,2
514,401	15,35
514,887	15,45
515,371	15,75
515,856	16,37
516,341	16
516,826	16,95
517,31	16,76
517,795	17,64
518,279	17,67
518,763	18,27
519,247	18,51
519,731	19
520,215	19,07
520,699	19,27
521,182	19,52
521,666	19,6
522,149	20,33
522,633	20,64
523,116	20,89
523,599	21,4
524,082	21,36
524,565	21,78
525,048	22,53
525,53	22,25
526,013	22,91
526,495	23,32
526,978	23,4
527,46	23,29
527,942	23,23
528,424	24,18
528,906	24,39
529,388	24,55
529,87	25,04
530,351	24,87
530,833	25,52
531,314	25,4
531,795	25,03
532,277	25,69
532,758	26,11
533,238	26,24
533,719	25,84
534,2	25,93
534,681	26,6
535,161	26,36
535,642	27,16
536,122	26,21
536,602	26,76
537,082	26,65
537,562	27,08
538,042	27,24
538,522	27,08
539,001	26,85
539,481	27,56
539,96	27,48
540,44	27,17
540,919	27,4
541,398	27,5
541,877	27,58
542,356	27,62
542,835	27,41
543,313	27,54
543,792	27,62
544,27	27,65
544,749	27,73
545,227	28,03
545,705	27,92
546,183	28,19
546,661	28,39
547,139	27,82
547,616	27,78
548,094	28,12
548,571	27,99
549,049	28,03
549,526	27,96
550,003	28,68
550,48	28,18
550,957	28,39
551,434	28,6
551,911	28,58
552,387	28,11
552,864	28,51
553,34	28,85
553,817	28,43
554,293	28,64
554,769	28,48
555,245	28,14
555,721	28,22
556,197	28,56
556,672	28,37
557,148	28,29
557,623	28,78
558,099	28,57
558,574	28,35
559,049	28,21
559,524	28,36
559,999	27,78
560,474	28,08
560,948	27,64
561,423	27,71
561,897	27,98
562,372	27,83
562,846	27,74
563,32	27,38
563,794	27,21
564,268	27,59
564,742	27
565,216	26,95
565,69	26,69
566,163	26,67
566,636	26,24
567,11	26,59
567,583	26,44
568,056	26
568,529	25,93
569,002	25,5
569,475	25,65
569,947	25,28
570,42	25,43
570,892	24,86
571,365	25,2
571,837	24,72
572,309	24,51
572,781	24,38
573,253	24,36
573,725	23,92
574,197	24,03
574,668	23,57
575,14	22,98
575,611	23,6
576,082	22,63
576,554	22,85
577,025	22,79
577,496	22,56
577,967	22,34
578,437	22,26
578,908	22,31
579,379	22,07
579,849	22,15
580,319	21,65
580,79	21,49
581,26	21,31
581,73	21,32
582,2	21,15
582,669	21
583,139	21,04
583,609	20,89
584,078	20,67
584,548	20,94
585,017	20,69
585,486	20,08
585,955	20,55
586,424	20,18
586,893	20,25
587,362	20,33
587,83	20,16
588,299	19,96
588,767	19,83
589,236	19,87
589,704	19,55
590,172	19,68
590,64	19,4
591,108	19,29
591,576	19,52
592,043	19,4
592,511	19,38
592,978	19,17
593,446	19,11
593,913	19,14
594,38	19
594,847	19,1
595,314	19,09
595,781	18,75
596,248	18,79
596,715	18,83
597,181	18,82
597,647	18,61
598,114	18,7
598,58	18,71
599,046	18,67
599,512	18,69
599,978	18,55
600,444	18,18
600,91	18,42
601,375	18,23
601,841	18,53
602,306	18,18
602,771	18,24
603,236	17,97
603,702	18,52
604,167	18,13
604,631	17,85
605,096	18,18
605,561	17,84
606,025	17,7
606,49	17,63
606,954	17,73
607,418	17,41
607,882	17,54
608,347	17,24
608,81	17,26
609,274	17,29
609,738	17,15
610,202	17,13
610,665	17,01
611,128	16,84
611,592	16,7
612,055	16,62
612,518	16,54
612,981	16,73
613,444	16,38
613,907	16
614,369	16,15
614,832	16,1
615,294	16,11
615,757	15,89
616,219	15,91
616,681	15,54
617,143	15,63
617,605	15,64
618,067	15,47
618,529	15,45
618,99	15,37
619,452	15,13
619,913	15,13
620,375	15,22
620,836	14,81
621,297	15,13
621,758	14,88
622,219	14,89
622,68	14,76
623,14	14,85
623,601	14,75
624,061	14,69
624,522	14,7
624,982	14,71
625,442	14,73
625,902	14,7
626,362	14,6
626,822	14,48
627,282	14,58
627,742	14,48
628,201	14,44
628,661	14,57
629,12	14,5
629,579	14,41
630,038	14,62
630,497	14,46
630,956	14,36
631,415	14,2
631,874	14,21
632,332	14,04
632,791	14,07
633,249	13,98
633,708	14,11
634,166	13,99
634,624	13,89
635,082	14,03
635,54	13,77
635,998	13,59
636,455	13,49
636,913	13,43
637,37	13,25
637,828	13,26
638,285	13,29
638,742	12,92
639,199	13,05
639,656	12,92
640,113	12,71
640,57	12,48
641,027	12,58
641,483	12,52
641,94	12,35
642,396	12,24
642,852	12,14
643,309	12,03
643,765	11,69
644,221	11,66
644,676	11,45
645,132	11,4
645,588	11,39
646,043	11,01
646,499	10,97
646,954	11,11
647,409	10,96
647,864	10,72
648,319	10,49
648,774	10,58
649,229	10,41
649,684	10,26
650,139	10,45
650,593	10,26
651,047	10,25
651,502	10,39
651,956	10,09
652,41	10,06
652,864	10,04
653,318	10,06
653,772	9,88
654,225	9,78
654,679	9,89
655,133	9,72
655,586	9,62
656,039	9,59
656,492	9,59
656,946	9,61
657,399	9,45
657,851	9,5
658,304	9,47
658,757	9,36
659,209	9,15
659,662	9,06
660,114	9,08
660,567	9,06
661,019	8,8
661,471	8,83
661,923	8,68
662,375	8,64
662,826	8,52
663,278	8,39
663,73	8,34
664,181	8,43
664,632	8,3
665,084	8,35
665,535	8,32
665,986	8,19
666,437	8,12
666,888	8,21
667,338	8,18
667,789	8,25
668,24	8,22
668,69	8,18
669,14	8,19
669,591	8,15
670,041	8,24
670,491	8,32
670,941	8,18
671,391	8,32
671,84	8,36
672,29	8,4
672,74	8,36
673,189	8,52
673,638	8,59
674,088	8,66
674,537	8,6
674,986	8,65
675,435	8,89
675,883	9,04
676,332	9,01
676,781	9,03
677,229	9,17
677,678	9,36
678,126	9,36
678,574	9,52
679,022	9,62
679,47	9,7
679,918	9,87
680,366	9,84
680,814	10,16
681,261	10,2
681,709	10,41
682,156	10,44
682,604	10,63
683,051	10,57
683,498	10,84
683,945	10,86
684,392	11,06
684,839	11,24
685,286	11,46
685,732	11,46
686,179	11,65
686,625	11,76
687,071	12,01
687,518	12,35
687,964	12,34
688,41	12,75
688,856	12,67
689,301	13,15
689,747	13,39
690,193	13,62
690,638	13,91
691,084	14,22
691,529	14,72
691,974	15,22
692,419	15,61
692,864	16,09
693,309	16,64
693,754	17
694,199	17,48
694,643	18,15
695,088	18,39
695,532	19,12
695,977	19,5
696,421	20,13
696,865	20,65
697,309	21,28
697,753	21,82
698,197	22,54
698,64	23,02
699,084	23,46
699,527	24,19
699,971	24,65
700,414	25,03
700,857	25,7
701,3	26,08
701,743	26,83
702,186	27,45
702,629	27,75
703,072	28,42
703,515	28,75
703,957	28,91
704,399	29,68
704,842	30,13
705,284	30,74
705,726	30,91
706,168	31,56
706,61	31,88
707,052	32,16
707,494	32,93
707,935	33,27
708,377	33,67
708,818	34,07
709,26	34,39
709,701	34,53
710,142	35,42
710,583	35,55
711,024	35,91
711,465	36,28
711,905	36,44
712,346	36,69
712,787	37,05
713,227	37,65
713,667	37,79
714,108	38,5
714,548	38,68
714,988	39,03
715,428	39,59
715,868	39,86
716,307	39,75
716,747	39,99
717,186	40,49
717,626	40,63
718,065	41,36
718,504	41,27
718,944	41,54
719,383	42,02
719,822	42,07
720,261	42,39
720,699	42,6
721,138	42,53
721,576	43,05
722,015	43,48
722,453	43,31
722,892	43,66
723,33	43,91
723,768	44,3
724,206	44,07
724,644	44,36
725,081	44,61
725,519	44,61
725,957	44,78
726,394	45,01
726,832	45,17
727,269	45,05
727,706	45,68
728,143	45,31
728,58	45,83
729,017	45,7
729,454	45,83
729,89	46,13
730,327	46,16
730,764	46,62
731,2	46,48
731,636	46,25
732,072	46,79
732,509	46,58
732,945	46,69
733,38	46,71
733,816	46,84
734,252	47,09
734,688	47,07
735,123	47,05
735,559	47,52
735,994	47,23
736,429	47,37
736,864	47,48
737,299	47,42
737,734	47,51
738,169	47,16
738,604	47,55
739,038	47,03
739,473	47,79
739,907	47,53
740,342	47,41
740,776	47,73
741,21	47,64
741,644	47,73
742,078	47,75
742,512	47,66
742,946	47,69
743,379	47,49
743,813	47,46
744,246	47,35
744,68	47,76
745,113	47,39
745,546	47,48
745,979	47,66
746,412	47,32
746,845	47,32
747,278	47,82
747,711	47,4
748,143	47,31
748,576	47,53
749,008	47,6
749,441	47,09
749,873	47,2
750,305	47,27
750,737	47,32
751,169	47,12
751,601	47,21
752,032	47,03
752,464	47,02
752,896	46,66
753,327	46,75
753,758	46,84
754,19	46,84
754,621	47,03
755,052	46,68
755,483	46,9
755,914	46,73
756,344	46,63
756,775	46,52
757,206	46,57
757,636	46,69
758,066	46,56
758,497	46,29
758,927	46,57
759,357	46,74
759,787	46,69
760,217	46,24
760,647	46,34
761,076	46,27
761,506	46,18
761,935	46,4
762,365	46,1
762,794	46,07
763,223	46,3
763,653	46,33
764,082	45,98
764,51	46,15
764,939	45,96
765,368	45,81
765,797	46,26
766,225	46,09
766,654	46,05
767,082	45,54
767,51	45,85
767,938	45,55
768,367	45,72
768,795	45,44
769,222	46,11
769,65	45,52
770,078	45,44
770,505	45,74
770,933	45,77
771,36	45,81
771,788	45,46
772,215	45,46
772,642	45,37
773,069	45,43
773,496	45,27
773,923	45,21
774,349	45,34
774,776	45,44
775,203	45,21
775,629	45,4
776,055	45,17
776,482	45,26
776,908	44,94
777,334	44,9
777,76	45,21
778,186	45,07
778,611	45,25
779,037	45,22
779,463	45,04
779,888	44,89
780,314	44,88
780,739	44,96
781,164	45,47
781,589	44,66
782,014	45,03
782,439	44,84
782,864	45,06
783,289	45,04
783,713	44,82
784,138	45,15
784,562	44,77
784,987	44,79
785,411	44,7
785,835	44,63
786,259	44,73
786,683	45,3
787,107	44,73
787,531	44,76
787,954	44,9
788,378	44,75
788,802	44,54
789,225	44,57
789,648	44,98
790,071	44,16
790,495	44,5
790,918	45,02
791,34	44,68
791,763	44,53
792,186	44,54
792,609	44,66
793,031	44,72
793,454	44,44
793,876	44,73
794,298	44,43
794,721	44,5
795,143	44,7
795,565	44,21
795,986	44,4
796,408	44,55
796,83	44,62
797,252	44,51
797,673	44,77
798,094	44,68
798,516	44,63
798,937	44,76
799,358	44,49
799,779	44,46
800,2	44,49
800,621	44,22
801,042	44,14
801,462	44,34
801,883	44,43
802,303	43,93
802,724	44,48
803,144	44,35
803,564	44,62
803,984	44,58
804,404	44,42
804,824	44,44
805,244	44,45
805,664	44,65
806,084	44,54
806,503	44,38
806,923	44,43
807,342	44,13
807,761	44,06
808,18	44,12
808,599	44,18
809,018	44,56
809,437	44,17
809,856	44,09
810,275	44,66
810,693	44,31
811,112	44,59
811,53	44,63
811,949	44,3
812,367	44,55
812,785	44,41
813,203	44,37
813,621	44,24
814,039	44,39
814,457	44,36
814,874	44,1
815,292	44,02
815,709	43,96
816,127	44,57
816,544	44,18
816,961	44,54
817,378	44,75
817,795	44,58
818,212	44,28
818,629	44,67
819,046	44,01
819,462	44,25
819,879	44,18
820,295	44,02
820,712	44
821,128	44,05
821,544	44,35
821,96	44,4
822,376	44,02
822,792	44,06
823,208	44,24
823,624	44,55
824,039	43,94
824,455	44,57
824,87	44,01
825,286	44,27
825,701	44,08
826,116	43,98
826,531	44,23
826,946	43,94
827,361	44,1
827,776	44,05
828,19	43,92
828,605	43,86
829,02	44,27
829,434	43,98
829,848	44,05
830,263	44,16
830,677	43,73
831,091	44,07
831,505	44,07
831,919	44,09
832,332	43,91
832,746	44,22
833,16	43,51
833,573	43,66
833,987	44,51
834,4	43,81
834,813	43,64
835,226	43,61
835,639	43,93
836,052	43,83
836,465	43,99
836,878	44,07
837,29	43,99
837,703	44,1
838,116	44,09
838,528	43,79
838,94	43,98
839,352	44,2
839,765	44,18
840,177	44,27
840,589	43,97
841	43,57
841,412	43,96
841,824	43,85
842,235	44,02
842,647	43,49
843,058	43,96
843,47	43,74
843,881	44,09
844,292	43,79
844,703	44,1
845,114	43,79
845,525	43,86
845,935	43,84
846,346	43,8
846,757	43,83
847,167	43,92
847,577	43,66
847,988	43,56
848,398	43,54
848,808	43,45
849,218	43,9
849,628	43,88
850,038	43,87
850,448	43,8
850,857	43,5
851,267	43,7
851,676	43,5
852,086	44,04
852,495	43,8
852,904	43,45
853,313	43,5
853,722	43,96
854,131	43,83
854,54	43,32
854,949	43,62
855,357	43,8
855,766	43,97
856,174	43,7
856,583	43,56
856,991	43,51
857,399	44,07
857,807	43,76
858,215	43,9
858,623	44,05
859,031	43,72
859,439	44,16
859,846	43,61
860,254	43,36
860,661	44,03
861,069	44,31
861,476	43,78
861,883	43,26
862,29	43,62
862,697	43,7
863,104	43,59
863,511	43,61
863,918	43,45
864,325	44,05
864,731	43,89
865,138	43,45
865,544	43,21
865,95	43,67
866,357	43,95
866,763	43,61
867,169	43,63
867,575	43,76
867,98	43,64
868,386	43,61
868,792	43,74
869,197	43,5
869,603	43,75
870,008	43,7
870,414	43,69
870,819	43,63
871,224	43,68
871,629	43,64
872,034	43,33
872,439	43,2
872,844	43,61
873,248	43,39
873,653	43,49
874,057	43,53
874,462	43,81
874,866	43,5
875,27	43,43
875,674	43,88
876,078	43,83
876,482	43,66
876,886	43,61
877,29	43,63
877,694	43,81
878,097	43,3
878,501	43,03
878,904	43,02
879,308	43,14
879,711	43,74
880,114	43,43
880,517	43,59
880,92	43,75
881,323	43,67
881,726	43,82
882,128	43,76
882,531	43,82
882,934	43,54
883,336	43,41
883,738	43,48
884,141	43,6
884,543	43,67
884,945	43,56
885,347	43,26
885,749	43,26
886,151	43,99
886,552	43,81
886,954	43,31
887,355	43,72
887,757	43,24
888,158	43,52
888,56	43,44
888,961	43,49
889,362	43,34
889,763	43,89
890,164	43,55
890,565	43,44
890,965	43,36
891,366	43,97
891,767	43,94
892,167	43,8
892,567	43,74
892,968	43,51
893,368	43,55
893,768	43,27
894,168	43,38
894,568	43,17
894,968	43,43
895,368	43,09
895,767	43,5
896,167	43,43
896,566	43,16
896,966	43,42
897,365	43,5
897,764	43,47
898,164	43,71
898,563	43,74
898,962	43,56
899,361	43,98
899,759	43,67
900,158	43,19
900,557	43,59
900,955	43,4
901,354	43,27
901,752	43,37
902,15	42,81
902,548	43,34
902,947	43,51
903,345	43,65
903,742	43,18
904,14	43,39
904,538	43,41
904,936	43,69
905,333	43,3
905,731	43,53
906,128	43,29
906,525	43,69
906,923	43,89
907,32	43,51
907,717	43,53
908,114	43,82
908,511	43,43
908,907	43,92
909,304	43,62
909,701	43,39
910,097	43,93
910,494	43,21
910,89	43,78
911,286	43,15
911,682	43,4
912,078	43,81
912,474	43,85
912,87	43,63
913,266	43,53
913,662	43,25
914,058	43,11
914,453	43,42
914,849	43,32
915,244	43,54
915,639	43,85
916,034	43,08
916,43	43,26
916,825	43,34
917,22	43,64
917,614	43,7
918,009	43,89
918,404	43,21
918,798	43,15
919,193	43,89
919,587	43,35
919,982	43,33
920,376	43,2
920,77	43,48
921,164	43,53
921,558	43,5
921,952	43,33
922,346	43,42
922,74	43,38
923,133	43,67
923,527	43,72
923,92	42,85
924,314	43,31
924,707	42,95
925,1	43,34
925,493	44,1
925,886	42,83
926,279	43,02
926,672	43,82
927,065	43,25
927,457	43,2
927,85	42,84
928,243	42,82
928,635	43,4
929,027	43,45
929,42	43,36
929,812	43,18
930,204	44,1
930,596	43,49
930,988	43,28
931,379	43,4
931,771	43,87
932,163	43,55
932,554	43,14
932,946	42,56
933,337	43,27
933,729	43,63
934,12	43,25
934,511	43,42
934,902	43,47
935,293	42,65
935,684	43,66
936,075	43,55
936,465	43,87
936,856	43,24
937,246	44,23
937,637	43,34
938,027	43,42
938,417	42,79
938,808	43,47
939,198	43,21
939,588	43,68
939,978	43,59
940,368	43,29
940,757	43,63
941,147	44,17
941,537	43,58
941,926	44,27
942,315	44,86
942,705	43,4
943,094	43,12
943,483	43,52
943,872	42,92
944,261	43,45
944,65	43,4
945,039	44,73
945,428	43,7
945,816	43,7
946,205	43,52
946,593	43,7
946,982	42,86
947,37	43,69
947,758	43,85
948,146	43,56
948,534	43,71
948,922	43,91
949,31	43,01
949,698	43,65
950,086	43,5
950,473	43,03
950,861	44,01
951,248	43,29
951,636	43,18
952,023	42,92
952,41	42,94
952,797	43,57
953,184	43,24
953,571	43,17
953,958	43,08
954,345	42,82
954,731	44,36
955,118	42,99
955,505	42,67
955,891	43,17
956,277	43,46
956,664	42,65
957,05	42,39
957,436	42,8
957,822	42,34
958,208	42,59
958,594	42,76
958,979	42,66
959,365	42,5
959,751	42,92
960,136	42,98
960,522	42,82
960,907	42,84
961,292	42,45
961,677	42,91
962,062	43
962,447	43,15
962,832	43,16
963,217	42,87
963,602	43,3
963,986	43,45
964,371	42,53
964,756	43,09
965,14	42,74
965,524	42,99
965,908	42,89
966,293	42,32
966,677	42,66
967,061	43,6
967,445	43,03
967,828	43,08
968,212	42,63
968,596	42,85
968,979	43,34
969,363	42,89
969,746	43,21
970,129	42,39
970,513	43,23
970,896	43
971,279	43,22
971,662	42,98
972,045	42,59
972,428	43,45
972,81	43,31
973,193	43,58
973,575	42,8
973,958	41,81
974,34	42,93
974,723	42,54
975,105	42,39
975,487	42,94
975,869	42,86
976,251	43,19
976,633	42,92
977,015	42,87
977,396	43,2
977,778	42,86
978,16	42,74
978,541	42,99
978,922	43,84
979,304	43,45
979,685	43,35
980,066	42,99
980,447	42,69
980,828	43,7
981,209	42,84
981,59	43,21
981,97	43,28
982,351	43,36
982,732	43,58
983,112	43,2
983,493	43,38
983,873	43,11
984,253	42,51
984,633	42,87
985,013	43,24
985,393	43,82
985,773	42,96
986,153	43,17
986,533	42,86
986,912	43,43
987,292	43,4
987,671	43,27
988,051	43,92
988,43	43,07
988,809	42,77
989,188	43,15
989,567	43,7
989,946	43,67
990,325	43,24
990,704	43,26
991,083	43,6
991,461	43,35
991,84	43,15
992,218	43,03
992,597	43,65
992,975	44,01
993,353	43,12
993,732	43,21
994,11	43,62
994,488	43,58
994,866	42,74
995,243	43,13
995,621	43,59
995,999	43,25
996,376	44
996,754	43,53
997,131	43,02
997,509	43,81
997,886	43,05
998,263	43,98
998,64	42,77
999,017	43,48
999,394	43,24
999,771	43,38
1000,148	43,11
1000,524	43,43
1000,901	43,41
1001,277	44,31
1001,654	43,86
1002,03	44,05
1002,406	43,48
1002,783	43,65
1003,159	43,36
1003,535	43,14
1003,911	44,01
1004,286	43,79
1004,662	43,56
1005,038	43,94
1005,414	43,81
1005,789	44,19
1006,164	43,9
1006,54	43,7
1006,915	43,44
1007,29	43,37
1007,665	43,81
1008,04	43,84
1008,415	43,6
1008,79	44,41
1009,165	43,02
1009,54	44,12
1009,914	44,05
1010,289	43,55
1010,663	44,21
1011,038	43,89
1011,412	43,63
1011,786	44,15
1012,16	44,01
1012,535	43,46
1012,909	44,7
1013,282	44,9
1013,656	43,65
1014,03	43,17
1014,404	43,94
1014,777	44,01
1015,151	44,25
1015,524	44,27
1015,897	43,92
1016,271	44,27
1016,644	44,59
1017,017	44,22
1017,39	44,08
1017,763	43,97
1018,136	44,24
1018,508	44,02
1018,881	43,57
1019,254	43,49
1019,626	44,31
1019,999	44
1020,371	44,05
1020,743	45,06
1021,116	44,21
1021,488	44,49
1021,86	44,52
1022,232	44,95
1022,604	44,29
1022,975	45,34
1023,347	44,31
1023,719	44,23
1024,09	45,48
1024,462	43,76
1024,833	44,79
1025,204	45,24
1025,576	44,43
1025,947	44,43
1026,318	44,86
1026,689	45,32
1027,06	44,8
1027,431	45,13
1027,801	45,34
1028,172	44,63
1028,543	45,43
1028,913	45,13
1029,284	45,22
1029,654	45,19
1030,024	45,54
1030,394	44,41
1030,764	44,55
1031,135	44,73
1031,504	44,95
1031,874	44,87
1032,244	44,32
1032,614	44,59
1032,983	44,73
1033,353	44,44
1033,722	46,12
1034,092	45,26
1034,461	45,81
1034,83	44,77
1035,2	45,41
1035,569	45,96
1035,938	45
1036,307	45,51
1036,675	44,68
1037,044	46,24
1037,413	45,67
1037,781	45,88
1038,15	46,84
1038,518	46,35
1038,887	45,92
1039,255	45,41
1039,623	45,76
1039,991	45,53
1040,359	44,66
1040,727	45,24
1041,095	45,51
1041,463	46,31
1041,831	45,93
1042,198	45,08
1042,566	46,92
1042,933	47,18
1043,301	45,37
1043,668	45,76
1044,035	45,07
1044,402	46,62
1044,77	45,24
1045,137	46,19
1045,503	45,96
1045,87	45,68
1046,237	45,66
1046,604	46,62
1046,97	45,24
1047,337	46,81
1047,703	45,98
1048,07	46,15
1048,436	46,87
1048,802	45,9
1049,168	46,25
1049,534	46,45
1049,9	47,1
1050,266	47,31
1050,632	46,12
1050,998	47,99
1051,364	47,2
1051,729	47,03
1052,095	46,25
1052,46	46,44
1052,825	46,8
1053,191	46,8
1053,556	47,01
1053,921	45,29
1054,286	47,56
1054,651	47,28
1055,016	47,41
1055,381	46,6
1055,745	45,17
1056,11	47,34
1056,475	47,65
1056,839	47,81
1057,203	47,59
1057,568	47,48
1057,932	47,41
1058,296	47,49
1058,66	48,01
1059,024	48,63
1059,388	48,7
1059,752	47,7
1060,116	47,36
1060,48	49,39
1060,843	45,83
1061,207	47,91
1061,57	47,9
1061,934	48,04
1062,297	48,57
1062,66	47,63
1063,023	48,9
1063,386	48,41
1063,749	48,33
1064,112	48,17
1064,475	48,81
1064,838	48,06
1065,201	48,67
1065,563	48,78
1065,926	46,88
1066,288	47,54
1066,651	47,6
1067,013	47,68
1067,375	49,15
1067,737	50,89
1068,099	47,77
1068,461	48,29
1068,823	48,34
1069,185	48,44
1069,547	48,53
1069,909	46,37
1070,27	49,35
1070,632	48,21
1070,993	50
1071,355	49,86
1071,716	48,7
1072,077	49,17
1072,438	49,28
1072,799	48,2
1073,16	49,95
1073,521	47,42
1073,882	49,18
1074,243	50,29
1074,603	48,59
1074,964	47,52
1075,325	48,99
1075,685	46,08
1076,045	48,22
1076,406	48,34
1076,766	49,06
1077,126	49,58
1077,486	49,08
1077,846	49,25
1078,206	49,48
1078,566	49,27
1078,925	48,46
1079,285	50,21
1079,645	49,64
1080,004	48,06
1080,364	50,49
1080,723	48,91
1081,082	50,38
1081,442	48,46
1081,801	49,77
1082,16	49,27
1082,519	47,22
1082,878	49,49
1083,237	49,51
1083,595	50,92
1083,954	48,85
1084,313	49,83
1084,671	49,9
1085,03	49,2
1085,388	49,17
1085,746	49,75
1086,104	50
1086,463	52,3
1086,821	51,92
1087,179	52,54
1087,537	48,78
1087,894	49,77
1088,252	50,23
1088,61	47,16
1088,967	50,98
1089,325	52,84
1089,682	51,43
1090,04	51,25
1090,397	52,01
1090,754	51,08
1091,111	48,48
1091,469	53,3
1091,826	51,72
1092,182	51,84
1092,539	51,71
1092,896	50,36
1093,253	49,48
1093,609	51,07
1093,966	52,27
1094,322	51,3
1094,679	50,18
1095,035	52,87
1095,391	49,86
1095,748	50,65
1096,104	51,69
1096,46	51,62
1096,816	50,24
1097,171	51,82
1097,527	51,85
1097,883	54,42
1098,239	51,41
1098,594	51,77
1098,95	53,25
1099,305	53,57
1099,66	53,33
1100,016	50,77
1100,371	53,7
1100,726	52,01
1101,081	52,17
1101,436	52,79
1101,791	55,14
1102,146	51,24
1102,5	53,65
1102,855	52,92
1103,21	52,91
1103,564	52,58
1103,918	53,03
1104,273	53,38
1104,627	52,97
1104,981	51,18
1105,335	51,77
1105,69	56,03
1106,043	53,74
1106,397	53
1106,751	56,28
1107,105	56,11
1107,459	53,49
1107,812	54,66
1108,166	58,09
1108,519	55,22
1108,873	55,99
1109,226	60,37
1109,579	55,04
1109,932	54,44
1110,285	56,48
1110,638	60,15
1110,991	55,45
1111,344	50,88
1111,697	56,48
1112,05	54,93
1112,402	62,34
1112,755	56,8
1113,107	59,4
1113,46	61,19
1113,812	58,3
1114,164	59,57
1114,517	59,54
1114,869	138,89
1115,221	149,12
1115,573	139,39
1115,924	158,49
