Data from D3___Relative__2__00057.txt Node

Date: Wed Jan 31 18:23:05 CET 2024
User: diatiterra
Spectrometer: HDX00911
Trigger mode: 0
Integration Time (sec): 6,000000E-3
Scans to average: 2
Nonlinearity correction enabled: false
Boxcar width: 0
Storing dark spectrum: false
XAxis mode: Wavelengths
Number of Pixels in Spectrum: 2068
>>>>>Begin Spectral Data<<<<<
194,468	229,25
195,025	168,18
195,581	213,41
196,138	207,69
196,694	141,98
197,251	121,21
197,807	100,79
198,363	102,4
198,919	88,28
199,474	101,1
200,03	105,33
200,586	114,73
201,141	80,65
201,696	94,3
202,251	95,45
202,806	91,26
203,361	97,78
203,916	94,1
204,471	95,62
205,025	114,52
205,58	105
206,134	107,2
206,688	97,31
207,242	112,39
207,796	96,99
208,35	97,46
208,904	102,41
209,457	85,76
210,011	92,55
210,564	100
211,117	94,74
211,67	108,58
212,223	105,82
212,776	115,73
213,329	91
213,881	125,49
214,434	92,43
214,986	115,29
215,538	104,41
216,09	93,31
216,642	104,13
217,194	101,52
217,746	103,38
218,297	109,92
218,849	106,25
219,4	117,65
219,951	103,63
220,502	98,99
221,053	108,78
221,604	99,33
222,155	103,17
222,705	93,01
223,256	110,45
223,806	112,99
224,356	103,08
224,906	112,9
225,456	105,81
226,006	97,22
226,556	79,55
227,106	106,05
227,655	96,18
228,204	100,83
228,754	97,89
229,303	102,5
229,852	99,64
230,401	98,88
230,949	101,8
231,498	100
232,047	92,86
232,595	102,76
233,143	102,36
233,691	102,71
234,239	95,71
234,787	101,6
235,335	97,01
235,883	98,25
236,43	104,17
236,978	108,08
237,525	100,73
238,072	96,81
238,619	96,21
239,166	100
239,713	102,55
240,26	98,21
240,806	103,12
241,353	106,75
241,899	98,6
242,445	102,19
242,991	104,2
243,537	101,14
244,083	108,4
244,629	106,92
245,174	111,06
245,72	102,22
246,265	101,19
246,81	110,8
247,355	106,75
247,9	85,07
248,445	107,14
248,99	95,45
249,534	118,26
250,079	103,01
250,623	101,85
251,168	113,64
251,712	112,5
252,256	114,75
252,8	107,31
253,343	95,36
253,887	99,6
254,43	114,12
254,974	109,92
255,517	97,26
256,06	110
256,603	99,63
257,146	105,04
257,689	111,81
258,232	119,92
258,774	103,9
259,317	116,53
259,859	120,64
260,401	113,57
260,943	97,52
261,485	107,8
262,027	107,2
262,569	106,34
263,11	102,69
263,652	119,29
264,193	107,02
264,734	105,11
265,275	119,26
265,816	106,87
266,357	111,63
266,898	100,38
267,438	110,63
267,979	105,76
268,519	100,37
269,059	115,89
269,6	108,27
270,14	123,39
270,68	103,26
271,219	111,86
271,759	96,99
272,298	104,89
272,838	108,46
273,377	108,33
273,916	99,28
274,455	106,57
274,994	92
275,533	102,9
276,072	110,16
276,61	96,38
277,149	109,58
277,687	103,38
278,225	95,33
278,763	126,75
279,301	115
279,839	106,45
280,377	109,43
280,914	94,06
281,452	118,38
281,989	110,33
282,526	109,06
283,064	117,65
283,601	90,88
284,137	111,98
284,674	107,92
285,211	117,98
285,747	101,89
286,284	124,77
286,82	109,92
287,356	88,49
287,892	105,81
288,428	108,26
288,964	126,47
289,5	117,36
290,035	110,8
290,571	108,4
291,106	112,6
291,641	120,98
292,176	110,16
292,711	107,72
293,246	104,23
293,781	116,94
294,315	89,08
294,85	122,69
295,384	104,92
295,918	93,75
296,453	89,18
296,987	98,76
297,52	98,76
298,054	100
298,588	99,17
299,121	97,76
299,655	100
300,188	100,42
300,721	100,41
301,254	101,21
301,787	107,03
302,32	115,45
302,853	105,2
303,385	101,07
303,918	105,43
304,45	107,31
304,982	96,45
305,514	100
306,046	95,45
306,578	97,67
307,11	101,55
307,641	104,31
308,173	99,17
308,704	90,5
309,236	92,48
309,767	97,87
310,298	95,97
310,829	108,7
311,359	101,21
311,89	111,34
312,421	114,41
312,951	108,94
313,481	87,93
314,012	96,27
314,542	111,02
315,072	97,33
315,601	102,4
316,131	107,48
316,661	106,67
317,19	93,33
317,72	116,94
318,249	105,95
318,778	101,17
319,307	107,03
319,836	104,42
320,365	103,04
320,893	111,98
321,422	110,57
321,95	105,64
322,479	110,31
323,007	105,91
323,535	99,64
324,063	105,6
324,591	106,8
325,118	99,27
325,646	112,18
326,173	108,33
326,701	112,2
327,228	116,38
327,755	100
328,282	101,91
328,809	111,02
329,336	110,24
329,862	99,63
330,389	98,83
330,915	105,91
331,441	98,85
331,968	111,71
332,494	101,89
333,02	103,33
333,545	94,78
334,071	110,74
334,597	90,85
335,122	100,74
335,648	108,62
336,173	96,21
336,698	90,19
337,223	93,38
337,748	95,83
338,272	94,18
338,797	92,03
339,322	85,77
339,846	90,81
340,37	105,24
340,894	91,67
341,419	100,38
341,942	93,71
342,466	89,74
342,99	87,25
343,514	99,3
344,037	81,65
344,56	98,89
345,084	95,55
345,607	95,49
346,13	98,59
346,653	95
347,175	91,35
347,698	84,91
348,221	88,57
348,743	84,47
349,265	88,85
349,787	80,67
350,309	86,71
350,831	79,01
351,353	89,33
351,875	78,95
352,397	90,21
352,918	86,84
353,439	90,07
353,961	71,8
354,482	79,82
355,003	79,36
355,524	80
356,044	75,57
356,565	86,45
357,086	78,81
357,606	68,96
358,126	71,54
358,646	72,45
359,167	83,24
359,687	73,73
360,206	72,95
360,726	71,33
361,246	73,14
361,765	79,94
362,285	67,25
362,804	73,68
363,323	67,07
363,842	73,08
364,361	70,4
364,88	69,21
365,398	68,12
365,917	69,34
366,435	80,47
366,954	70,76
367,472	66,51
367,99	72,75
368,508	66,19
369,026	72,5
369,544	68,2
370,061	66,81
370,579	66,39
371,096	71,56
371,613	64,44
372,131	61,02
372,648	61,61
373,165	65,23
373,681	62,87
374,198	70,7
374,715	66,73
375,231	65,91
375,747	58,45
376,264	60,71
376,78	60,79
377,296	67,1
377,812	60,96
378,327	60,93
378,843	61,26
379,359	62,75
379,874	63,49
380,389	55,99
380,905	52,54
381,42	56,99
381,935	57,93
382,449	56,78
382,964	54,57
383,479	53,3
383,993	54,85
384,508	51,84
385,022	49,87
385,536	51,97
386,05	51,44
386,564	51,99
387,078	51,2
387,592	51,09
388,105	53,9
388,619	48,77
389,132	48,43
389,645	47,93
390,158	44,42
390,671	47,15
391,184	44,84
391,697	42,38
392,21	38,52
392,722	42,06
393,235	43,34
393,747	39,98
394,259	44,01
394,771	39,76
395,283	41,03
395,795	40,67
396,307	41,31
396,818	40,61
397,33	36,73
397,841	37,88
398,353	36,8
398,864	36,98
399,375	36,81
399,886	35,62
400,397	34,74
400,907	34,48
401,418	31,88
401,928	32,62
402,439	32,33
402,949	30,94
403,459	32,04
403,969	32,94
404,479	28,77
404,989	29,19
405,498	28,21
406,008	28,66
406,517	26,1
407,027	24,34
407,536	25,58
408,045	24,44
408,554	23,26
409,063	22,03
409,572	21,71
410,08	21,11
410,589	20,81
411,097	20,17
411,606	21,23
412,114	19,37
412,622	18,8
413,13	18,25
413,638	16,95
414,145	17,29
414,653	16,3
415,16	15,68
415,668	16,39
416,175	15,22
416,682	14,59
417,189	14
417,696	14,65
418,203	14,93
418,71	14,41
419,216	13,99
419,723	13,6
420,229	14,03
420,735	13,05
421,242	13,08
421,748	12,9
422,254	12,6
422,759	12,21
423,265	12,12
423,771	12,41
424,276	12,11
424,781	11,79
425,287	12,16
425,792	11,63
426,297	11,93
426,802	11,69
427,306	12,04
427,811	12,07
428,316	11,33
428,82	11,4
429,324	11,43
429,829	11,4
430,333	11,13
430,837	10,9
431,34	11,04
431,844	11,08
432,348	10,83
432,851	10,49
433,355	10,81
433,858	10,69
434,361	10,49
434,864	10,65
435,367	10,26
435,87	11,33
436,373	10,88
436,876	10,48
437,378	10,85
437,88	10,67
438,383	10,85
438,885	10,27
439,387	10,51
439,889	11,12
440,391	10,34
440,892	10,56
441,394	10,16
441,896	10,28
442,397	10,68
442,898	10,33
443,399	10,28
443,9	10,06
444,401	9,94
444,902	10,29
445,403	10,36
445,903	10,55
446,404	10,5
446,904	10,39
447,405	10,09
447,905	10,24
448,405	10,38
448,905	10,38
449,404	10,69
449,904	10,45
450,404	10,12
450,903	10,43
451,403	10,31
451,902	10,43
452,401	10,65
452,9	10,38
453,399	10,41
453,898	10,31
454,396	10,16
454,895	10,15
455,393	10,22
455,892	10,37
456,39	10,22
456,888	10,36
457,386	10,4
457,884	10,67
458,382	10,5
458,879	10,27
459,377	10,76
459,874	10,55
460,372	10,51
460,869	9,95
461,366	10,21
461,863	10,39
462,36	10,07
462,857	10,37
463,353	10,57
463,85	10,62
464,346	10,18
464,843	10,29
465,339	9,98
465,835	10,36
466,331	10,2
466,827	10,31
467,323	10,21
467,818	10,1
468,314	10,5
468,809	10,02
469,305	9,88
469,8	10,53
470,295	10,48
470,79	10,22
471,285	10,2
471,78	10,13
472,274	9,96
472,769	9,99
473,263	10,11
473,758	10,15
474,252	10,08
474,746	10,26
475,24	10,32
475,734	9,79
476,228	10,38
476,721	10,14
477,215	10
477,708	10,08
478,202	10,14
478,695	10,05
479,188	10,16
479,681	10,02
480,174	10,44
480,667	10,41
481,159	10,62
481,652	10,23
482,144	10,43
482,637	10,78
483,129	10,2
483,621	10,41
484,113	10,51
484,605	10,51
485,097	10,4
485,588	10,35
486,08	10,38
486,571	10,55
487,063	10,4
487,554	10,35
488,045	10,54
488,536	10,8
489,027	10,8
489,518	10,79
490,008	10,55
490,499	10,62
490,989	10,5
491,48	10,77
491,97	11,1
492,46	10,44
492,95	10,77
493,44	11,06
493,93	10,86
494,419	10,64
494,909	11,13
495,398	11,06
495,888	10,92
496,377	11,2
496,866	11,17
497,355	11,22
497,844	11,06
498,333	11,69
498,821	11,37
499,31	11,64
499,798	11,59
500,287	11,72
500,775	11,66
501,263	12,13
501,751	11,72
502,239	12,54
502,727	12,4
503,215	12,52
503,702	12,66
504,19	12,75
504,677	13,06
505,164	13,33
505,651	13,45
506,139	13,6
506,625	13,6
507,112	13,53
507,599	14,19
508,086	14,27
508,572	14,65
509,058	14,82
509,545	14,69
510,031	15,11
510,517	15,36
511,003	15,35
511,489	16,07
511,974	16,3
512,46	16,28
512,946	16,54
513,431	17,11
513,916	17,19
514,401	17,42
514,887	17,58
515,371	18,2
515,856	18,51
516,341	18,71
516,826	18,85
517,31	19,12
517,795	19,94
518,279	19,84
518,763	20,75
519,247	20,8
519,731	21,19
520,215	21,78
520,699	21,72
521,182	22,02
521,666	22,63
522,149	22,94
522,633	23,45
523,116	24,18
523,599	24,63
524,082	24,08
524,565	24,58
525,048	25,26
525,53	25,43
526,013	25,76
526,495	25,86
526,978	26,51
527,46	26,94
527,942	26,97
528,424	27,82
528,906	27,31
529,388	27,18
529,87	28,43
530,351	27,97
530,833	28,63
531,314	28,79
531,795	28,48
532,277	29,26
532,758	28,96
533,238	29,17
533,719	29,37
534,2	29,11
534,681	30,15
535,161	30,27
535,642	30,45
536,122	30,08
536,602	29,86
537,082	30,38
537,562	30,84
538,042	30,38
538,522	30,65
539,001	30,76
539,481	30,76
539,96	30,76
540,44	30,73
540,919	31,14
541,398	30,73
541,877	31,07
542,356	31,04
542,835	30,98
543,313	31,23
543,792	31,22
544,27	31,38
544,749	31,73
545,227	31,96
545,705	31,88
546,183	32,06
546,661	31,65
547,139	31,71
547,616	31,29
548,094	31,33
548,571	31,9
549,049	31,9
549,526	31,67
550,003	32,41
550,48	31,8
550,957	32,12
551,434	31,53
551,911	32,05
552,387	31,9
552,864	32,13
553,34	32,55
553,817	31,91
554,293	31,93
554,769	31,97
555,245	31,96
555,721	32,08
556,197	32,43
556,672	31,94
557,148	32,08
557,623	32,04
558,099	31,87
558,574	32,2
559,049	31,42
559,524	32,08
559,999	31,63
560,474	31,51
560,948	31,24
561,423	31,58
561,897	31,03
562,372	31,14
562,846	31,11
563,32	30,84
563,794	31,05
564,268	30,91
564,742	30,74
565,216	30,26
565,69	29,92
566,163	30,17
566,636	29,57
567,11	29,66
567,583	29,28
568,056	29,23
568,529	29,4
569,002	28,97
569,475	28,82
569,947	28,67
570,42	28,48
570,892	28,21
571,365	27,79
571,837	27,72
572,309	27,81
572,781	27,23
573,253	27,37
573,725	27
574,197	27,01
574,668	26,63
575,14	26,34
575,611	26,43
576,082	25,85
576,554	25,38
577,025	25,33
577,496	25,2
577,967	24,91
578,437	25,29
578,908	24,67
579,379	24,5
579,849	24,72
580,319	24,26
580,79	24,1
581,26	24,11
581,73	23,86
582,2	23,79
582,669	23,54
583,139	23,56
583,609	23,35
584,078	23,69
584,548	22,97
585,017	23,42
585,486	22,89
585,955	22,77
586,424	22,55
586,893	22,68
587,362	22,51
587,83	22,44
588,299	22,07
588,767	22,4
589,236	22,53
589,704	22,02
590,172	21,97
590,64	21,73
591,108	21,68
591,576	21,81
592,043	21,96
592,511	21,93
592,978	21,72
593,446	21,15
593,913	21,13
594,38	21,22
594,847	21,19
595,314	21,23
595,781	21,33
596,248	21,05
596,715	21,12
597,181	21,05
597,647	20,94
598,114	20,82
598,58	20,78
599,046	20,94
599,512	20,95
599,978	20,46
600,444	20,59
600,91	20,62
601,375	20,7
601,841	20,77
602,306	20,54
602,771	20,54
603,236	20,41
603,702	20,42
604,167	20,48
604,631	20,02
605,096	20,19
605,561	20,29
606,025	20,04
606,49	19,84
606,954	19,81
607,418	19,53
607,882	19,54
608,347	19,51
608,81	19,38
609,274	19,23
609,738	19,18
610,202	19,05
610,665	19,09
611,128	18,76
611,592	18,93
612,055	18,63
612,518	18,45
612,981	18,66
613,444	18,53
613,907	18,29
614,369	18,09
614,832	18,22
615,294	18,01
615,757	17,95
616,219	17,94
616,681	17,45
617,143	17,85
617,605	17,73
618,067	17,33
618,529	17,39
618,99	17,19
619,452	17,05
619,913	17,09
620,375	17,23
620,836	17,29
621,297	17,26
621,758	16,94
622,219	16,61
622,68	17,02
623,14	16,65
623,601	16,59
624,061	16,65
624,522	16,61
624,982	16,49
625,442	16,71
625,902	16,52
626,362	16,37
626,822	16,32
627,282	16,45
627,742	16,66
628,201	16,48
628,661	16,4
629,12	16,34
629,579	16,24
630,038	16,4
630,497	16,38
630,956	16,27
631,415	16,01
631,874	16,35
632,332	16,19
632,791	16,02
633,249	16,07
633,708	16,01
634,166	15,88
634,624	15,71
635,082	15,66
635,54	15,84
635,998	15,47
636,455	15,5
636,913	15,31
637,37	15,3
637,828	15,31
638,285	15,09
638,742	14,86
639,199	14,95
639,656	14,75
640,113	14,78
640,57	14,51
641,027	14,33
641,483	14,17
641,94	14,04
642,396	13,99
642,852	13,99
643,309	13,73
643,765	13,52
644,221	13,44
644,676	13,28
645,132	13,22
645,588	13,08
646,043	12,95
646,499	12,9
646,954	12,77
647,409	12,59
647,864	12,66
648,319	12,5
648,774	12,31
649,229	12,18
649,684	12,25
650,139	11,93
650,593	11,97
651,047	12,04
651,502	11,89
651,956	11,8
652,41	11,87
652,864	11,73
653,318	11,76
653,772	11,41
654,225	11,71
654,679	11,51
655,133	11,51
655,586	11,43
656,039	11,3
656,492	11,2
656,946	11,11
657,399	11,19
657,851	11,23
658,304	11,09
658,757	11,03
659,209	11,09
659,662	10,84
660,114	10,86
660,567	10,79
661,019	10,54
661,471	10,66
661,923	10,49
662,375	10,53
662,826	10,56
663,278	10,31
663,73	10,39
664,181	10,17
664,632	10,24
665,084	10,26
665,535	10,15
665,986	10,23
666,437	10,05
666,888	10,11
667,338	10,11
667,789	10,2
668,24	10,23
668,69	10,07
669,14	10,08
669,591	10,25
670,041	10,41
670,491	10,36
670,941	10,25
671,391	10,2
671,84	10,48
672,29	10,35
672,74	10,43
673,189	10,62
673,638	10,6
674,088	10,8
674,537	10,7
674,986	10,89
675,435	11,05
675,883	11,04
676,332	11,11
676,781	11,14
677,229	11,34
677,678	11,45
678,126	11,55
678,574	11,65
679,022	11,88
679,47	11,99
679,918	12,09
680,366	12,17
680,814	12,24
681,261	12,45
681,709	12,48
682,156	12,7
682,604	12,74
683,051	12,97
683,498	13,09
683,945	13,01
684,392	13,21
684,839	13,43
685,286	13,5
685,732	13,79
686,179	13,81
686,625	14,12
687,071	14,22
687,518	14,44
687,964	14,69
688,41	14,83
688,856	14,92
689,301	15,31
689,747	15,47
690,193	16,11
690,638	16,04
691,084	16,49
691,529	16,96
691,974	17,44
692,419	17,9
692,864	18,49
693,309	18,73
693,754	19,26
694,199	20,01
694,643	20,37
695,088	21,1
695,532	21,53
695,977	22,35
696,421	22,83
696,865	23,36
697,309	23,97
697,753	24,55
698,197	25,44
698,64	25,94
699,084	26,61
699,527	27,16
699,971	27,72
700,414	28,37
700,857	29,32
701,3	29,36
701,743	30,45
702,186	30,76
702,629	31,39
703,072	32,25
703,515	32,42
703,957	33,09
704,399	33,69
704,842	34,18
705,284	34,61
705,726	35,12
706,168	35,38
706,61	36,44
707,052	36,66
707,494	37,34
707,935	37,57
708,377	38,26
708,818	38,57
709,26	38,93
709,701	39,53
710,142	40,19
710,583	40,1
711,024	40,73
711,465	41,36
711,905	41,66
712,346	41,82
712,787	42,3
713,227	42,8
713,667	43,06
714,108	43,64
714,548	44,02
714,988	44,52
715,428	44,68
715,868	45,49
716,307	45,47
716,747	45,77
717,186	46,11
717,626	46,33
718,065	46,83
718,504	47,1
718,944	47,67
719,383	47,93
719,822	48,14
720,261	48,15
720,699	48,64
721,138	48,27
721,576	49,24
722,015	49,67
722,453	49,65
722,892	49,92
723,33	50
723,768	50,54
724,206	50,72
724,644	50,69
725,081	51,02
725,519	51,19
725,957	51,44
726,394	51,53
726,832	51,48
727,269	51,47
727,706	52,15
728,143	52,08
728,58	52,32
729,017	52,35
729,454	52,55
729,89	52,93
730,327	52,58
730,764	53,15
731,2	53,28
731,636	53,31
732,072	53,71
732,509	53,53
732,945	53,65
733,38	53,54
733,816	53,88
734,252	53,83
734,688	54,1
735,123	53,93
735,559	54,46
735,994	54,2
736,429	54,31
736,864	54,69
737,299	54,5
737,734	54,81
738,169	54,74
738,604	54,58
739,038	54,17
739,473	54,53
739,907	54,62
740,342	54,54
740,776	54,82
741,21	54,63
741,644	55,18
742,078	54,9
742,512	54,61
742,946	54,97
743,379	54,52
743,813	54,66
744,246	54,71
744,68	54,6
745,113	54,58
745,546	54,6
745,979	54,76
746,412	54,58
746,845	54,41
747,278	54,34
747,711	54,18
748,143	54,52
748,576	54,54
749,008	54,65
749,441	54,15
749,873	54,25
750,305	54,52
750,737	53,86
751,169	54,15
751,601	53,99
752,032	53,82
752,464	53,91
752,896	54,01
753,327	54,11
753,758	54,2
754,19	53,7
754,621	53,69
755,052	53,63
755,483	53,94
755,914	53,83
756,344	53,72
756,775	54,06
757,206	53,76
757,636	53,67
758,066	53,61
758,497	53,7
758,927	53,79
759,357	53,75
759,787	53,54
760,217	53,22
760,647	53,27
761,076	53,38
761,506	52,75
761,935	53,1
762,365	53,54
762,794	52,81
763,223	53,42
763,653	53,31
764,082	52,72
764,51	53,23
764,939	53,32
765,368	52,92
765,797	53,09
766,225	52,86
766,654	52,72
767,082	52,65
767,51	52,73
767,938	52,5
768,367	52,73
768,795	52,12
769,222	52,9
769,65	52,82
770,078	52,42
770,505	52,85
770,933	52,41
771,36	53,05
771,788	52,22
772,215	52,46
772,642	52,36
773,069	52,51
773,496	52,05
773,923	52,16
774,349	51,96
774,776	52,38
775,203	52,27
775,629	52,43
776,055	51,62
776,482	52,12
776,908	51,85
777,334	51,78
777,76	52,07
778,186	52,28
778,611	52,38
779,037	52,3
779,463	52,09
779,888	51,94
780,314	51,77
780,739	52,11
781,164	52,16
781,589	51,69
782,014	51,94
782,439	51,98
782,864	51,93
783,289	51,99
783,713	51,64
784,138	51,66
784,562	51,64
784,987	51,66
785,411	51,54
785,835	51,3
786,259	51,64
786,683	52,11
787,107	51,66
787,531	51,57
787,954	51,44
788,378	51,46
788,802	51,76
789,225	51,48
789,648	52,07
790,071	50,81
790,495	51,75
790,918	51,84
791,34	51,29
791,763	51,49
792,186	51,47
792,609	51,57
793,031	51,51
793,454	51,2
793,876	51,54
794,298	51,22
794,721	51,13
795,143	51,7
795,565	51,05
795,986	51,1
796,408	51,49
796,83	51,18
797,252	51,54
797,673	51,68
798,094	51,91
798,516	51,4
798,937	51,64
799,358	51
799,779	51,22
800,2	51,25
800,621	51,35
801,042	51,1
801,462	51,23
801,883	51,07
802,303	50,93
802,724	50,99
803,144	51,34
803,564	51,11
803,984	51,37
804,404	51,36
804,824	51,07
805,244	51,29
805,664	51,4
806,084	51,5
806,503	51,02
806,923	51,19
807,342	50,99
807,761	50,99
808,18	51,02
808,599	50,83
809,018	50,9
809,437	51,21
809,856	50,94
810,275	51,17
810,693	51,52
811,112	51,73
811,53	51,4
811,949	51,26
812,367	51,33
812,785	51,07
813,203	51,12
813,621	51,16
814,039	50,78
814,457	51,27
814,874	50,82
815,292	50,87
815,709	50,7
816,127	51,2
816,544	51,02
816,961	51,11
817,378	51,52
817,795	51
818,212	51,12
818,629	51,51
819,046	50,5
819,462	51,11
819,879	50,82
820,295	50,82
820,712	50,71
821,128	50,92
821,544	50,96
821,96	51,36
822,376	50,79
822,792	51,13
823,208	51,22
823,624	51,14
824,039	51
824,455	51,35
824,87	50,44
825,286	51,11
825,701	50,78
826,116	50,65
826,531	50,82
826,946	50,97
827,361	50,47
827,776	50,9
828,19	50,8
828,605	50,55
829,02	50,86
829,434	50,67
829,848	50,72
830,263	50,98
830,677	50,34
831,091	50,55
831,505	50,51
831,919	50,8
832,332	50,93
832,746	50,95
833,16	50,14
833,573	50,89
833,987	50,83
834,4	50,33
834,813	50,07
835,226	50,58
835,639	50,52
836,052	50,6
836,465	50,49
836,878	50,66
837,29	50,69
837,703	50,63
838,116	50,71
838,528	50,91
838,94	51,01
839,352	50,59
839,765	50,62
840,177	50,49
840,589	50,53
841	50,26
841,412	50,51
841,824	50,5
842,235	50,39
842,647	50,42
843,058	50,84
843,47	50,27
843,881	50,56
844,292	50,42
844,703	50,76
845,114	50,5
845,525	50,58
845,935	50,17
846,346	50,67
846,757	50,56
847,167	50,15
847,577	50,29
847,988	50,62
848,398	50,06
848,808	50,29
849,218	50,41
849,628	50,28
850,038	50,66
850,448	50,41
850,857	50,37
851,267	50,24
851,676	50,35
852,086	50,23
852,495	50,38
852,904	50,61
853,313	49,95
853,722	50,4
854,131	50,46
854,54	50,16
854,949	49,99
855,357	50,27
855,766	50,38
856,174	50,14
856,583	50,19
856,991	50,2
857,399	50,68
857,807	50,21
858,215	50,32
858,623	50,61
859,031	50,13
859,439	50,59
859,846	50,39
860,254	50,26
860,661	50,77
861,069	50,33
861,476	50,45
861,883	49,83
862,29	49,84
862,697	50,13
863,104	50,25
863,511	50,12
863,918	49,92
864,325	50,31
864,731	50,32
865,138	49,82
865,544	49,76
865,95	50,18
866,357	50,24
866,763	50,26
867,169	50,15
867,575	50,12
867,98	50,17
868,386	50,41
868,792	50,05
869,197	50,07
869,603	50,31
870,008	50,11
870,414	50,39
870,819	49,88
871,224	49,88
871,629	49,78
872,034	49,93
872,439	49,77
872,844	50,23
873,248	50,12
873,653	50,23
874,057	50,02
874,462	50,18
874,866	50,02
875,27	50,3
875,674	50,89
876,078	50,2
876,482	50,3
876,886	50,22
877,29	49,78
877,694	49,95
878,097	49,63
878,501	49,37
878,904	49,65
879,308	49,66
879,711	50,19
880,114	49,81
880,517	49,93
880,92	50,62
881,323	50,28
881,726	50,42
882,128	50,14
882,531	50,22
882,934	49,72
883,336	50,02
883,738	49,98
884,141	50,14
884,543	49,81
884,945	50,22
885,347	49,87
885,749	49,67
886,151	50,53
886,552	49,78
886,954	49,57
887,355	50,2
887,757	49,88
888,158	49,9
888,56	49,67
888,961	50,08
889,362	50,25
889,763	49,9
890,164	50,58
890,565	49,87
890,965	49,96
891,366	50,1
891,767	50,25
892,167	50,03
892,567	50,15
892,968	49,84
893,368	49,78
893,768	49,68
894,168	50,01
894,568	49,24
894,968	49,69
895,368	49,75
895,767	49,94
896,167	50,06
896,566	49,68
896,966	50,2
897,365	50,04
897,764	50,05
898,164	50
898,563	50,28
898,962	49,71
899,361	50,22
899,759	50,01
900,158	49,45
900,557	50,04
900,955	49,67
901,354	49,66
901,752	49,6
902,15	49,14
902,548	49,64
902,947	50,22
903,345	49,83
903,742	49,68
904,14	50,26
904,538	49,86
904,936	49,9
905,333	49,45
905,731	49,96
906,128	49,39
906,525	49,58
906,923	50,13
907,32	49,93
907,717	49,87
908,114	49,95
908,511	49,9
908,907	50,35
909,304	50,06
909,701	49,42
910,097	50,3
910,494	49,51
910,89	50,2
911,286	49,52
911,682	49,63
912,078	50,1
912,474	50,13
912,87	49,95
913,266	49,96
913,662	49,29
914,058	49,21
914,453	49,78
914,849	49,18
915,244	49,38
915,639	50,1
916,034	49,61
916,43	49,85
916,825	49,7
917,22	49,96
917,614	49,79
918,009	50,32
918,404	49,56
918,798	49,47
919,193	49,54
919,587	49,17
919,982	49,67
920,376	49,1
920,77	49,57
921,164	49,9
921,558	49,81
921,952	50,06
922,346	49,59
922,74	49,43
923,133	49,66
923,527	49,83
923,92	49,46
924,314	49,87
924,707	49,6
925,1	49,65
925,493	49,98
925,886	49,68
926,279	49,31
926,672	49,62
927,065	49,24
927,457	49,52
927,85	48,88
928,243	49,31
928,635	49,59
929,027	49,44
929,42	50,06
929,812	49,63
930,204	50,14
930,596	49,77
930,988	49,87
931,379	49,84
931,771	49,73
932,163	49,74
932,554	49,78
932,946	48,95
933,337	49,16
933,729	49,85
934,12	49,84
934,511	49,68
934,902	49,58
935,293	49,06
935,684	49,88
936,075	50,26
936,465	50,02
936,856	49,61
937,246	49,98
937,637	49,82
938,027	49,15
938,417	48,94
938,808	50,25
939,198	48,68
939,588	50,15
939,978	50,04
940,368	49,51
940,757	50,29
941,147	49,87
941,537	49,57
941,926	50,92
942,315	50,47
942,705	49,86
943,094	49,92
943,483	49,31
943,872	48,88
944,261	49,16
944,65	49,57
945,039	50,33
945,428	50,44
945,816	49,82
946,205	49,81
946,593	49,53
946,982	49,66
947,37	49,47
947,758	49,94
948,146	49,41
948,534	50,04
948,922	49,23
949,31	48,33
949,698	50,04
950,086	49,4
950,473	49,11
950,861	50,07
951,248	49,76
951,636	49,2
952,023	48,88
952,41	49,04
952,797	49,73
953,184	49,57
953,571	49,11
953,958	49,03
954,345	48,57
954,731	50,14
955,118	49,08
955,505	49,17
955,891	49,28
956,277	49,72
956,664	49,31
957,05	48,42
957,436	48,89
957,822	48,33
958,208	48,29
958,594	48,7
958,979	48,48
959,365	48,13
959,751	48,58
960,136	48,63
960,522	48,46
960,907	48,63
961,292	48,11
961,677	49
962,062	48,89
962,447	49,06
962,832	49,22
963,217	49,03
963,602	48,87
963,986	48,96
964,371	48,68
964,756	48,77
965,14	48,32
965,524	48,84
965,908	48,86
966,293	48,5
966,677	48,88
967,061	49,4
967,445	48,36
967,828	49,14
968,212	48,62
968,596	48,87
968,979	48,78
969,363	48,84
969,746	49,07
970,129	48,47
970,513	48,92
970,896	48,85
971,279	48,48
971,662	48,9
972,045	48,26
972,428	49,44
972,81	48,99
973,193	49,1
973,575	48,35
973,958	48,32
974,34	49,01
974,723	48,81
975,105	48,55
975,487	48,61
975,869	48,78
976,251	49,2
976,633	48,99
977,015	48,78
977,396	48,46
977,778	48,76
978,16	48,65
978,541	48,89
978,922	49,21
979,304	49,17
979,685	49,29
980,066	49,22
980,447	48,38
980,828	49,38
981,209	48,89
981,59	48,69
981,97	48,44
982,351	48,59
982,732	49,11
983,112	49,28
983,493	49,27
983,873	49,25
984,253	48,88
984,633	48,69
985,013	48,59
985,393	49,95
985,773	49,13
986,153	48,97
986,533	48,2
986,912	49,47
987,292	49,5
987,671	48,86
988,051	49,79
988,43	49,21
988,809	48,82
989,188	49,65
989,567	48,68
989,946	49,31
990,325	49,23
990,704	49,53
991,083	49,28
991,461	49,33
991,84	49,37
992,218	49,25
992,597	49,34
992,975	49,66
993,353	49,35
993,732	49,32
994,11	49,48
994,488	50,08
994,866	48,52
995,243	49,65
995,621	49,43
995,999	49,84
996,376	49,44
996,754	49,53
997,131	49,15
997,509	49,34
997,886	49,52
998,263	49,86
998,64	48,47
999,017	49,42
999,394	49,11
999,771	49,88
1000,148	49,22
1000,524	49,41
1000,901	49,25
1001,277	50,31
1001,654	49,53
1002,03	50,26
1002,406	49,83
1002,783	49,4
1003,159	49,13
1003,535	49,55
1003,911	49,08
1004,286	49,69
1004,662	49,04
1005,038	49,76
1005,414	50,5
1005,789	49,69
1006,164	49,59
1006,54	49,98
1006,915	49,68
1007,29	49,95
1007,665	49,6
1008,04	49,37
1008,415	49,48
1008,79	49,82
1009,165	49,76
1009,54	49,91
1009,914	50,02
1010,289	50,48
1010,663	50,28
1011,038	49,93
1011,412	49,46
1011,786	50,3
1012,16	50,62
1012,535	49,81
1012,909	50,41
1013,282	50,86
1013,656	50,25
1014,03	50,05
1014,404	50,06
1014,777	49,53
1015,151	50,26
1015,524	50,31
1015,897	49,63
1016,271	50,4
1016,644	49,98
1017,017	50,31
1017,39	49,79
1017,763	50,06
1018,136	50,54
1018,508	49,96
1018,881	49,47
1019,254	49,6
1019,626	49,54
1019,999	50,1
1020,371	50,14
1020,743	50,02
1021,116	50,86
1021,488	51,64
1021,86	51,47
1022,232	50,64
1022,604	50,15
1022,975	51,13
1023,347	49,55
1023,719	51,37
1024,09	50,17
1024,462	50,47
1024,833	51,48
1025,204	51,18
1025,576	49,8
1025,947	50,9
1026,318	50,29
1026,689	51,61
1027,06	50,65
1027,431	51,04
1027,801	51,72
1028,172	50,45
1028,543	52,04
1028,913	51,87
1029,284	50,74
1029,654	50,92
1030,024	51,02
1030,394	51,73
1030,764	51,07
1031,135	50,92
1031,504	50,66
1031,874	50,64
1032,244	51,32
1032,614	51,02
1032,983	50,98
1033,353	51,77
1033,722	51,04
1034,092	51,23
1034,461	50,82
1034,83	50,81
1035,2	51,28
1035,569	51,57
1035,938	51,69
1036,307	52,38
1036,675	51,61
1037,044	52,61
1037,413	52,25
1037,781	51,37
1038,15	52,76
1038,518	52,45
1038,887	51,82
1039,255	51,95
1039,623	51,1
1039,991	52
1040,359	51,58
1040,727	51,27
1041,095	52,01
1041,463	52,6
1041,831	51,68
1042,198	51,32
1042,566	53,44
1042,933	53,13
1043,301	51,47
1043,668	51,75
1044,035	51,13
1044,402	52,78
1044,77	52,32
1045,137	52,11
1045,503	52,67
1045,87	51,86
1046,237	52,43
1046,604	52,94
1046,97	51,31
1047,337	53,36
1047,703	53,03
1048,07	53,02
1048,436	53,82
1048,802	53,62
1049,168	53,84
1049,534	52,13
1049,9	53,57
1050,266	53,78
1050,632	52,57
1050,998	53,5
1051,364	54,11
1051,729	53,51
1052,095	53,58
1052,46	52,97
1052,825	53,27
1053,191	54,26
1053,556	53,32
1053,921	52,91
1054,286	52,52
1054,651	53,21
1055,016	54,57
1055,381	53,86
1055,745	52,61
1056,11	54,45
1056,475	54,59
1056,839	53,31
1057,203	53,01
1057,568	53,64
1057,932	53,72
1058,296	54,67
1058,66	53,95
1059,024	55,44
1059,388	55,75
1059,752	53,87
1060,116	55,49
1060,48	57,08
1060,843	53,91
1061,207	54,26
1061,57	54,72
1061,934	54,06
1062,297	54,3
1062,66	53,19
1063,023	54,76
1063,386	55,78
1063,749	54,92
1064,112	54,03
1064,475	53,76
1064,838	54,36
1065,201	55,2
1065,563	54,66
1065,926	52,75
1066,288	54,52
1066,651	54,95
1067,013	56,09
1067,375	53,69
1067,737	56,3
1068,099	55,15
1068,461	56,7
1068,823	54,76
1069,185	54,82
1069,547	55,01
1069,909	53,27
1070,27	55,89
1070,632	52,91
1070,993	57,06
1071,355	54,41
1071,716	54,45
1072,077	55,23
1072,438	55,59
1072,799	55,98
1073,16	56,17
1073,521	54,56
1073,882	57,31
1074,243	56,78
1074,603	56,75
1074,964	54,16
1075,325	54,42
1075,685	53,31
1076,045	55,18
1076,406	55,62
1076,766	55,42
1077,126	54,68
1077,486	57
1077,846	56,39
1078,206	57,76
1078,566	54,68
1078,925	55,86
1079,285	56,19
1079,645	56,54
1080,004	55,67
1080,364	55,61
1080,723	54,82
1081,082	58,16
1081,442	54,81
1081,801	58,52
1082,16	57,73
1082,519	55,07
1082,878	55,79
1083,237	56,27
1083,595	56,8
1083,954	56,4
1084,313	54,16
1084,671	57,49
1085,03	56,19
1085,388	55,31
1085,746	56,63
1086,104	54,88
1086,463	57,73
1086,821	58,6
1087,179	57,6
1087,537	57,29
1087,894	56,53
1088,252	58
1088,61	56,5
1088,967	57,98
1089,325	58,37
1089,682	59,57
1090,04	57,93
1090,397	58,24
1090,754	58,12
1091,111	56,37
1091,469	60,28
1091,826	56,98
1092,182	60,76
1092,539	56,54
1092,896	59,69
1093,253	58,6
1093,609	59,7
1093,966	58,88
1094,322	57,07
1094,679	59,07
1095,035	60,08
1095,391	56,77
1095,748	57,72
1096,104	58,05
1096,46	61,53
1096,816	57,35
1097,171	61,04
1097,527	60,3
1097,883	59,4
1098,239	57,57
1098,594	59,76
1098,95	56,87
1099,305	57,83
1099,66	59,36
1100,016	56,37
1100,371	60,27
1100,726	60,54
1101,081	58,73
1101,436	59,56
1101,791	59,64
1102,146	59,44
1102,5	59,47
1102,855	60,29
1103,21	60,29
1103,564	58,69
1103,918	60,05
1104,273	60,03
1104,627	63,53
1104,981	58,88
1105,335	59,92
1105,69	64,48
1106,043	60,84
1106,397	59,01
1106,751	60,55
1107,105	61,48
1107,459	63,6
1107,812	64,41
1108,166	62,21
1108,519	59,42
1108,873	63,02
1109,226	65,79
1109,579	62,67
1109,932	65,89
1110,285	67,18
1110,638	68,1
1110,991	64,05
1111,344	59,97
1111,697	64,16
1112,05	61,99
1112,402	69,02
1112,755	66,36
1113,107	65,21
1113,46	63,51
1113,812	66,39
1114,164	71,96
1114,517	65,73
1114,869	159,26
1115,221	160,53
1115,573	154,55
1115,924	167,92
