Data from E2___Relative__1__00074.txt Node

Date: Wed Jan 31 18:24:39 CET 2024
User: diatiterra
Spectrometer: HDX00911
Trigger mode: 0
Integration Time (sec): 6,000000E-3
Scans to average: 2
Nonlinearity correction enabled: false
Boxcar width: 0
Storing dark spectrum: false
XAxis mode: Wavelengths
Number of Pixels in Spectrum: 2068
>>>>>Begin Spectral Data<<<<<
194,468	239,62
195,025	145,45
195,581	212,2
196,138	212,82
196,694	154,94
197,251	120,71
197,807	100,39
198,363	102
198,919	94,83
199,474	100,74
200,03	106,97
200,586	112,95
201,141	83,87
201,696	95,97
202,251	96,59
202,806	88,11
203,361	94,81
203,916	98,61
204,471	99,64
205,025	107,26
205,58	95,71
206,134	106,8
206,688	106,15
207,242	111,5
207,796	105,64
208,35	106,16
208,904	98,62
209,457	88,54
210,011	90,78
210,564	96,48
211,117	106,02
211,67	102,99
212,223	90,75
212,776	109,68
213,329	96,33
213,881	125,49
214,434	91,45
214,986	112,4
215,538	108,46
216,09	92,25
216,642	114,88
217,194	108,33
217,746	99,62
218,297	102,67
218,849	97,06
219,4	111,76
219,951	101,21
220,502	100,34
221,053	105,73
221,604	101,01
222,155	105,95
222,705	93,38
223,256	100,37
223,806	100
224,356	100,38
224,906	111,29
225,456	110,08
226,006	100
226,556	81,49
227,106	106,85
227,655	88,19
228,204	98,33
228,754	95,77
229,303	96,07
229,852	89,93
230,401	90,3
230,949	102,88
231,498	94,72
232,047	85,06
232,595	96,21
233,143	107,48
233,691	102,71
234,239	88,21
234,787	100
235,335	90,3
235,883	99,3
236,43	101,14
236,978	111,15
237,525	97,08
238,072	88,65
238,619	104,92
239,166	88,3
239,713	91,97
240,26	94,64
240,806	96,18
241,353	104,76
241,899	91,61
242,445	101,46
242,991	104,96
243,537	95,83
244,083	104,58
244,629	95,38
245,174	111,5
245,72	103,7
246,265	96,03
246,81	106
247,355	99,6
247,9	92,16
248,445	98,02
248,99	96,59
249,534	110,43
250,079	102,63
250,623	103,7
251,168	102,48
251,712	101,17
252,256	99,18
252,8	105
253,343	101,07
253,887	95,56
254,43	100
254,974	105,73
255,517	89,73
256,06	110
256,603	93,7
257,146	104,26
257,689	103,94
258,232	113,56
258,774	91,84
259,317	112,29
259,859	116,51
260,401	105,43
260,943	98,58
261,485	102,84
262,027	106,4
262,569	102,24
263,11	97,69
263,652	119,69
264,193	97,93
264,734	97,81
265,275	108,61
265,816	97,71
266,357	103,49
266,898	103,85
267,438	107,09
267,979	94,96
268,519	96,64
269,059	125,7
269,6	105,26
270,14	108,06
270,68	98,91
271,219	110,59
271,759	97,74
272,298	98,12
272,838	103,08
273,377	102,38
273,916	100
274,455	105,11
274,994	104,4
275,533	100,36
276,072	98,37
276,61	94,57
277,149	109,58
277,687	101,88
278,225	90,67
278,763	119,74
279,301	100
279,839	109,68
280,377	102,05
280,914	93,01
281,452	107,26
281,989	101,24
282,526	96,06
283,064	110,5
283,601	88,51
284,137	106,61
284,674	107,5
285,211	116,67
285,747	98,86
286,284	118,02
286,82	110,33
287,356	94,74
287,892	101,55
288,428	100,83
288,964	120,59
289,5	111,16
290,035	106,8
290,571	117,65
291,106	111,79
291,641	116,07
292,176	97,27
292,711	107,72
293,246	102,31
293,781	102,07
294,315	85,21
294,85	112,96
295,384	93,44
295,918	98,9
296,453	89,93
296,987	104,55
297,52	103,31
298,054	98,85
298,588	106,25
299,121	94,03
299,655	99,64
300,188	102,08
300,721	97,15
301,254	102,42
301,787	106,25
302,32	106,91
302,853	97,2
303,385	99,29
303,918	105,43
304,45	103,85
304,982	95,39
305,514	101,16
306,046	96,69
306,578	95,74
307,11	97,67
307,641	108,19
308,173	106,2
308,704	97,52
309,236	92,48
309,767	98,23
310,298	100
310,829	109,13
311,359	100,81
311,89	104,2
312,421	102,25
312,951	107,72
313,481	91,38
314,012	92,54
314,542	109,32
315,072	95,04
315,601	104,4
316,131	107,48
316,661	107,5
317,19	97,41
317,72	112,81
318,249	105,16
318,778	102,73
319,307	99,61
319,836	104,42
320,365	101,74
320,893	100,41
321,422	113,01
321,95	106,02
322,479	100,38
323,007	112,27
323,535	96,43
324,063	103,6
324,591	106,4
325,118	103,65
325,646	106,72
326,173	103,33
326,701	111,79
327,228	111,21
327,755	96,62
328,282	96,18
328,809	109,75
329,336	99,61
329,862	99,26
330,389	92,97
330,915	113,39
331,441	95,42
331,968	112,61
332,494	103,41
333,02	104,17
333,545	97,39
334,071	113,22
334,597	88,38
335,122	101,11
335,648	105,17
336,173	95,45
336,698	89,24
337,223	100,37
337,748	88,54
338,272	94,52
338,797	101,81
339,322	84,67
339,846	90,07
340,37	104,44
340,894	92,01
341,419	93,61
341,942	92,31
342,466	91,99
342,99	81,54
343,514	95,42
344,037	80,38
344,56	101,11
345,084	85,27
345,607	93,4
346,13	92,25
346,653	88,67
347,175	87,5
347,698	85,53
348,221	90
348,743	87,27
349,265	91,73
349,787	77,61
350,309	87,66
350,831	79,32
351,353	82,62
351,875	83,92
352,397	90,56
352,918	90,79
353,439	93,05
353,961	71,8
354,482	85,96
355,003	85,47
355,524	79,17
356,044	76,7
356,565	87,95
357,086	81,64
357,606	75
358,126	70,74
358,646	72,19
359,167	81,08
359,687	77,97
360,206	74,86
360,726	65,17
361,246	78,46
361,765	78,25
362,285	71
362,804	78,42
363,323	68,05
363,842	77,2
364,361	76,62
364,88	74,63
365,398	69
365,917	70,52
366,435	83,59
366,954	69,42
367,472	70,99
367,99	76,3
368,508	69,84
369,026	74,55
369,544	70,61
370,061	68,49
370,579	66,19
371,096	72,48
371,613	68,32
372,131	66,54
372,648	63,58
373,165	65,04
373,681	67,51
374,198	66,6
374,715	62,97
375,231	65,53
375,747	60,17
376,264	60,2
376,78	62,23
377,296	63,94
377,812	55,32
378,327	60,43
378,843	61,95
379,359	62,58
379,874	64,71
380,389	56,47
380,905	55,37
381,42	52,28
381,935	56,25
382,449	54,87
382,964	52,86
383,479	53,88
383,993	55,26
384,508	53,41
385,022	49,48
385,536	50,92
386,05	50,92
386,564	53,23
387,078	48,8
387,592	47,32
388,105	48,94
388,619	45,2
389,132	45,73
389,645	47,82
390,158	42,49
390,671	45,52
391,184	41,4
391,697	43,29
392,21	37,61
392,722	43,15
393,235	39,49
393,747	40,37
394,259	41,1
394,771	37,48
395,283	39,38
395,795	40,21
396,307	42,52
396,818	41,32
397,33	33,59
397,841	38,23
398,353	38,16
398,864	35,99
399,375	36,64
399,886	36,07
400,397	34,38
400,907	31,52
401,418	33
401,928	30,47
402,439	32,46
402,949	29,44
403,459	31,13
403,969	29,2
404,479	27,89
404,989	27,26
405,498	25,5
406,008	27,08
406,517	26,05
407,027	23,37
407,536	22,22
408,045	21,55
408,554	22,21
409,063	20,98
409,572	19,76
410,08	19,53
410,589	18,93
411,097	18,51
411,606	18,57
412,114	17,69
412,622	17,13
413,13	16,59
413,638	15,95
414,145	14,99
414,653	15,53
415,16	14,69
415,668	14,11
416,175	13,15
416,682	13,66
417,189	12,59
417,696	13,86
418,203	13,03
418,71	13,04
419,216	12,37
419,723	12,31
420,229	11,77
420,735	11,89
421,242	11,83
421,748	11,68
422,254	11,25
422,759	10,91
423,265	11,45
423,771	10,66
424,276	10,9
424,781	10,28
425,287	10,58
425,792	10,65
426,297	10,62
426,802	9,72
427,306	10,42
427,811	10,38
428,316	10,36
428,82	9,63
429,324	9,59
429,829	10,37
430,333	9,79
430,837	9,86
431,34	9,55
431,844	9,19
432,348	9,57
432,851	8,69
433,355	9,25
433,858	9,25
434,361	8,98
434,864	8,98
435,367	9,52
435,87	9,92
436,373	9,54
436,876	9,08
437,378	8,98
437,88	9,24
438,383	9,26
438,885	9,01
439,387	8,76
439,889	8,83
440,391	9,06
440,892	8,74
441,394	8,9
441,896	8,74
442,397	8,52
442,898	8,85
443,399	9,11
443,9	8,61
444,401	8,67
444,902	8,62
445,403	8,86
445,903	8,87
446,404	8,91
446,904	8,78
447,405	8,72
447,905	8,55
448,405	9,24
448,905	8,74
449,404	9,14
449,904	8,87
450,404	8,84
450,903	9,58
451,403	9,15
451,902	9,41
452,401	9,28
452,9	9,45
453,399	9,39
453,898	9,06
454,396	8,97
454,895	9,38
455,393	9,14
455,892	9,02
456,39	9,7
456,888	9,37
457,386	9,36
457,884	9,33
458,382	9,52
458,879	9,72
459,377	9,54
459,874	9,09
460,372	9,47
460,869	9,59
461,366	9,06
461,863	9,42
462,36	9,35
462,857	9,4
463,353	9,16
463,85	9,23
464,346	9,31
464,843	9,29
465,339	9,16
465,835	9,53
466,331	9,63
466,827	9,22
467,323	9,57
467,818	9,38
468,314	9,79
468,809	9,15
469,305	9,23
469,8	9,38
470,295	9,14
470,79	9,37
471,285	8,96
471,78	8,75
472,274	8,85
472,769	9,15
473,263	8,76
473,758	9,27
474,252	8,93
474,746	9,3
475,24	9,32
475,734	9,2
476,228	9,37
476,721	9,16
477,215	9,23
477,708	9,39
478,202	9,47
478,695	9,17
479,188	9,49
479,681	9,48
480,174	9,4
480,667	9,39
481,159	9,38
481,652	9,37
482,144	9,37
482,637	9,39
483,129	9,16
483,621	9,42
484,113	9,7
484,605	9,5
485,097	9,46
485,588	9,47
486,08	9,41
486,571	9,34
487,063	9,63
487,554	9,65
488,045	9,53
488,536	9,43
489,027	9,67
489,518	9,92
490,008	9,63
490,499	10,26
490,989	9,83
491,48	9,86
491,97	10,16
492,46	9,96
492,95	9,91
493,44	10,5
493,93	10,23
494,419	10,21
494,909	10,33
495,398	10,74
495,888	10,75
496,377	10,9
496,866	11,4
497,355	11,14
497,844	10,9
498,333	11,39
498,821	11,14
499,31	11,35
499,798	11,72
500,287	12,07
500,775	12,09
501,263	11,91
501,751	12,28
502,239	12,41
502,727	12,45
503,215	12,8
503,702	13,11
504,19	13,09
504,677	13,32
505,164	14,02
505,651	13,9
506,139	14,04
506,625	14,8
507,112	14,56
507,599	15,12
508,086	14,81
508,572	15,66
509,058	15,36
509,545	15,71
510,031	15,92
510,517	16,32
511,003	16,23
511,489	17,07
511,974	17,33
512,46	17,44
512,946	17,77
513,431	18,15
513,916	18,5
514,401	19,05
514,887	18,93
515,371	19,69
515,856	19,79
516,341	20,25
516,826	20,51
517,31	20,79
517,795	21,55
518,279	21,6
518,763	22,32
519,247	22,44
519,731	22,95
520,215	23,19
520,699	23,51
521,182	23,88
521,666	24,06
522,149	24,57
522,633	24,97
523,116	25,45
523,599	26,45
524,082	25,96
524,565	26,28
525,048	26,61
525,53	27,15
526,013	27,49
526,495	27,74
526,978	28,22
527,46	28,25
527,942	28
528,424	28,9
528,906	28,98
529,388	28,94
529,87	29,71
530,351	29,52
530,833	29,84
531,314	30,22
531,795	29,86
532,277	31,02
532,758	30,66
533,238	30,79
533,719	30,91
534,2	30,85
534,681	31,43
535,161	31,38
535,642	31,9
536,122	31,34
536,602	31,72
537,082	32,07
537,562	32,12
538,042	32,31
538,522	32,08
539,001	32,08
539,481	32,55
539,96	32,09
540,44	32,41
540,919	32,38
541,398	32,34
541,877	32,31
542,356	32,49
542,835	32,5
543,313	32,34
543,792	32,6
544,27	32,63
544,749	32,79
545,227	32,79
545,705	33,24
546,183	33,52
546,661	33,32
547,139	33,07
547,616	32,78
548,094	33,08
548,571	33,22
549,049	33,52
549,526	33,27
550,003	33,43
550,48	33,15
550,957	33,35
551,434	33,21
551,911	33,01
552,387	33,36
552,864	33,24
553,34	33,75
553,817	33,28
554,293	33,74
554,769	33,43
555,245	32,92
555,721	33,45
556,197	33,56
556,672	33,33
557,148	33,78
557,623	33,55
558,099	33,33
558,574	33,34
559,049	33,12
559,524	33,28
559,999	33,6
560,474	33,2
560,948	33,02
561,423	33,06
561,897	33,4
562,372	33,18
562,846	32,86
563,32	32,42
563,794	32,73
564,268	32,44
564,742	32,49
565,216	32,21
565,69	31,92
566,163	32,06
566,636	31,21
567,11	31,61
567,583	31,27
568,056	31,15
568,529	31,38
569,002	30,91
569,475	30,68
569,947	30,24
570,42	30,11
570,892	29,8
571,365	29,56
571,837	29,91
572,309	29,65
572,781	29,35
573,253	29,34
573,725	28,67
574,197	28,51
574,668	28,52
575,14	28,46
575,611	28,43
576,082	27,92
576,554	27,53
577,025	27,69
577,496	27,31
577,967	27,09
578,437	27,14
578,908	26,94
579,379	27,12
579,849	26,53
580,319	26,62
580,79	25,93
581,26	26
581,73	26,14
582,2	25,71
582,669	25,45
583,139	25,54
583,609	25,41
584,078	25,6
584,548	25,5
585,017	25,23
585,486	25,21
585,955	25,11
586,424	24,91
586,893	24,58
587,362	24,5
587,83	24,73
588,299	24,55
588,767	24,45
589,236	24,14
589,704	23,92
590,172	24,1
590,64	24,1
591,108	23,94
591,576	23,97
592,043	23,74
592,511	23,69
592,978	23,58
593,446	23,52
593,913	23,21
594,38	23,31
594,847	23,38
595,314	23,35
595,781	23,17
596,248	23,21
596,715	22,8
597,181	22,95
597,647	22,96
598,114	23,1
598,58	22,67
599,046	23,02
599,512	22,75
599,978	22,75
600,444	22,81
600,91	22,59
601,375	22,66
601,841	22,8
602,306	22,55
602,771	22,37
603,236	22,42
603,702	22,52
604,167	22,42
604,631	22,38
605,096	22,24
605,561	22,25
606,025	22,22
606,49	22,24
606,954	21,95
607,418	21,55
607,882	21,57
608,347	21,52
608,81	21,57
609,274	21,3
609,738	21,3
610,202	21,15
610,665	20,98
611,128	21
611,592	20,77
612,055	20,76
612,518	20,72
612,981	20,73
613,444	20,37
613,907	20,21
614,369	20,34
614,832	20,2
615,294	20
615,757	19,89
616,219	20,13
616,681	19,39
617,143	19,64
617,605	19,49
618,067	19,42
618,529	19,47
618,99	19,27
619,452	18,95
619,913	18,98
620,375	18,97
620,836	18,92
621,297	19,04
621,758	18,89
622,219	18,64
622,68	18,53
623,14	18,52
623,601	18,52
624,061	18,46
624,522	18,44
624,982	18,31
625,442	18,4
625,902	18,57
626,362	18,43
626,822	18,39
627,282	18,19
627,742	18,47
628,201	18,06
628,661	18,3
629,12	18,21
629,579	17,97
630,038	18,24
630,497	18,36
630,956	18,04
631,415	17,97
631,874	17,94
632,332	17,82
632,791	17,83
633,249	17,69
633,708	17,73
634,166	17,56
634,624	17,46
635,082	17,72
635,54	17,38
635,998	17,18
636,455	17,36
636,913	17,14
637,37	16,79
637,828	16,73
638,285	16,56
638,742	16,51
639,199	16,27
639,656	16,26
640,113	15,96
640,57	15,87
641,027	15,61
641,483	15,81
641,94	15,35
642,396	15,33
642,852	15
643,309	14,86
643,765	14,7
644,221	14,58
644,676	14,34
645,132	14,28
645,588	14,02
646,043	14,01
646,499	13,89
646,954	13,4
647,409	13,71
647,864	13,28
648,319	13,03
648,774	13,02
649,229	13,1
649,684	12,79
650,139	12,66
650,593	12,77
651,047	12,75
651,502	12,7
651,956	12,37
652,41	12,28
652,864	12,22
653,318	12,29
653,772	12,14
654,225	12,28
654,679	12,11
655,133	12,08
655,586	11,85
656,039	11,82
656,492	11,84
656,946	11,77
657,399	11,61
657,851	11,45
658,304	11,46
658,757	11,38
659,209	11,26
659,662	11,03
660,114	10,96
660,567	10,89
661,019	10,68
661,471	10,56
661,923	10,53
662,375	10,44
662,826	10,12
663,278	10,07
663,73	9,98
664,181	10,06
664,632	9,91
665,084	9,79
665,535	9,67
665,986	9,47
666,437	9,39
666,888	9,36
667,338	9,33
667,789	9,34
668,24	9,24
668,69	9,07
669,14	9,2
669,591	9,18
670,041	9,19
670,491	9,1
670,941	9,11
671,391	9,16
671,84	9,15
672,29	9,16
672,74	9,15
673,189	9,33
673,638	9,25
674,088	9,3
674,537	9,26
674,986	9,42
675,435	9,42
675,883	9,56
676,332	9,58
676,781	9,63
677,229	9,88
677,678	9,76
678,126	9,95
678,574	10,15
679,022	10,11
679,47	10,36
679,918	10,62
680,366	10,59
680,814	10,8
681,261	10,79
681,709	11,07
682,156	11
682,604	11,33
683,051	11,47
683,498	11,68
683,945	11,9
684,392	12,02
684,839	12,42
685,286	12,43
685,732	12,72
686,179	12,92
686,625	13,28
687,071	13,53
687,518	13,91
687,964	14,24
688,41	14,5
688,856	14,92
689,301	15,5
689,747	15,64
690,193	16,33
690,638	16,42
691,084	17,33
691,529	17,65
691,974	18,32
692,419	18,96
692,864	19,43
693,309	20,16
693,754	20,56
694,199	21,13
694,643	21,68
695,088	22,44
695,532	23,26
695,977	23,76
696,421	24,5
696,865	24,93
697,309	25,59
697,753	26,12
698,197	26,97
698,64	27,32
699,084	28,22
699,527	28,41
699,971	29,13
700,414	29,9
700,857	29,94
701,3	30,79
701,743	31,6
702,186	31,94
702,629	32,67
703,072	33
703,515	33,42
703,957	33,76
704,399	34,46
704,842	34,99
705,284	35,28
705,726	35,92
706,168	36,24
706,61	36,86
707,052	37,24
707,494	37,69
707,935	37,85
708,377	38,5
708,818	38,93
709,26	39,05
709,701	39,55
710,142	40,34
710,583	40,05
711,024	40,57
711,465	41,1
711,905	41,37
712,346	41,51
712,787	41,88
713,227	42,42
713,667	42,35
714,108	42,96
714,548	43,15
714,988	43,88
715,428	44,02
715,868	44,57
716,307	44,38
716,747	44,66
717,186	45,05
717,626	45,25
718,065	45,77
718,504	46,15
718,944	46,55
719,383	46,64
719,822	46,77
720,261	46,8
720,699	47,24
721,138	46,94
721,576	47,57
722,015	47,96
722,453	48,19
722,892	48,02
723,33	48,41
723,768	48,9
724,206	48,79
724,644	48,7
725,081	48,98
725,519	49,1
725,957	49,12
726,394	49,61
726,832	49,05
727,269	49,75
727,706	49,98
728,143	50,02
728,58	50,36
729,017	50,25
729,454	50,44
729,89	50,8
730,327	50,51
730,764	50,72
731,2	50,83
731,636	50,74
732,072	50,96
732,509	51,16
732,945	51,14
733,38	51,12
733,816	51,45
734,252	51,27
734,688	51,42
735,123	51,53
735,559	51,59
735,994	51,29
736,429	51,78
736,864	51,78
737,299	51,72
737,734	52,2
738,169	51,71
738,604	51,81
739,038	51,53
739,473	51,63
739,907	51,83
740,342	51,78
740,776	52,01
741,21	51,66
741,644	52,04
742,078	52,15
742,512	51,56
742,946	51,87
743,379	51,61
743,813	51,85
744,246	51,75
744,68	51,82
745,113	51,78
745,546	51,25
745,979	51,85
746,412	51,47
746,845	51,76
747,278	51,78
747,711	51,31
748,143	51,5
748,576	51,99
749,008	51,76
749,441	51,39
749,873	51,41
750,305	51,55
750,737	51,47
751,169	51,15
751,601	51,56
752,032	51,64
752,464	51,15
752,896	50,74
753,327	50,97
753,758	51,17
754,19	51,18
754,621	50,75
755,052	50,87
755,483	50,98
755,914	50,84
756,344	50,78
756,775	51
757,206	50,86
757,636	51
758,066	50,91
758,497	50,57
758,927	51,11
759,357	50,85
759,787	51,01
760,217	50,72
760,647	50,56
761,076	50,19
761,506	50,31
761,935	50,5
762,365	50,39
762,794	50,38
763,223	50,71
763,653	50,31
764,082	50,03
764,51	50,56
764,939	50,16
765,368	50,09
765,797	50,14
766,225	50,34
766,654	49,98
767,082	49,6
767,51	49,79
767,938	49,63
768,367	49,61
768,795	49,78
769,222	50,51
769,65	50,2
770,078	49,75
770,505	49,86
770,933	50,05
771,36	50,14
771,788	49,9
772,215	49,66
772,642	49,8
773,069	49,84
773,496	49,53
773,923	49,54
774,349	49,72
774,776	49,53
775,203	49,29
775,629	49,71
776,055	49,17
776,482	49,54
776,908	49,39
777,334	49,32
777,76	49,57
778,186	49,45
778,611	49,62
779,037	49,49
779,463	49,43
779,888	49,39
780,314	49,43
780,739	49,42
781,164	49,38
781,589	49,04
782,014	49,36
782,439	49,33
782,864	49,44
783,289	49,4
783,713	48,93
784,138	49,33
784,562	48,66
784,987	49,3
785,411	48,71
785,835	48,79
786,259	49,01
786,683	49,4
787,107	49,19
787,531	49,03
787,954	49,01
788,378	48,92
788,802	49,12
789,225	49,27
789,648	49,16
790,071	48,82
790,495	49,2
790,918	49,11
791,34	48,93
791,763	48,91
792,186	48,94
792,609	48,59
793,031	48,76
793,454	48,85
793,876	48,97
794,298	48,87
794,721	48,99
795,143	48,88
795,565	48,7
795,986	48,69
796,408	48,65
796,83	48,52
797,252	48,82
797,673	49
798,094	49,04
798,516	48,79
798,937	49,12
799,358	48,44
799,779	48,54
800,2	49,13
800,621	48,7
801,042	48,53
801,462	48,76
801,883	48,55
802,303	48,46
802,724	48,77
803,144	48,79
803,564	48,94
803,984	48,87
804,404	49,02
804,824	49,03
805,244	48,99
805,664	49,03
806,084	49,11
806,503	48,52
806,923	48,83
807,342	48,64
807,761	48,51
808,18	48,31
808,599	48,21
809,018	48,83
809,437	48,88
809,856	48,44
810,275	48,7
810,693	48,53
811,112	48,79
811,53	48,66
811,949	48,72
812,367	48,62
812,785	48,63
813,203	48,91
813,621	48,72
814,039	48,5
814,457	48,52
814,874	48,36
815,292	48,28
815,709	48,63
816,127	48,57
816,544	48,51
816,961	48,72
817,378	48,95
817,795	48,49
818,212	48,53
818,629	48,96
819,046	48,18
819,462	48,57
819,879	48,46
820,295	48,35
820,712	47,91
821,128	48,3
821,544	48,43
821,96	48,58
822,376	48,5
822,792	48,43
823,208	48,48
823,624	48,81
824,039	48,69
824,455	48,82
824,87	48,37
825,286	48,6
825,701	48,25
826,116	48,33
826,531	48,54
826,946	48,27
827,361	48,37
827,776	48,55
828,19	47,99
828,605	47,96
829,02	48,4
829,434	48,16
829,848	48,4
830,263	48,8
830,677	48,22
831,091	48,28
831,505	48,05
831,919	48,68
832,332	48,69
832,746	48,36
833,16	48
833,573	48,31
833,987	48,48
834,4	48,35
834,813	47,75
835,226	48
835,639	48,26
836,052	48,17
836,465	48,41
836,878	48,28
837,29	48,5
837,703	48,28
838,116	48,53
838,528	48,75
838,94	48,2
839,352	48,15
839,765	48,14
840,177	48,07
840,589	48,05
841	47,87
841,412	48,22
841,824	48,12
842,235	47,87
842,647	48,01
843,058	48,4
843,47	48,12
843,881	48,3
844,292	48,3
844,703	48,58
845,114	48,21
845,525	48,28
845,935	48,19
846,346	48,08
846,757	48,39
847,167	47,55
847,577	47,92
847,988	48,1
848,398	47,9
848,808	48
849,218	48,04
849,628	48,28
850,038	48,59
850,448	48,17
850,857	47,88
851,267	48,18
851,676	48,15
852,086	48,34
852,495	48,04
852,904	48,27
853,313	47,63
853,722	47,86
854,131	47,93
854,54	47,94
854,949	47,65
855,357	47,89
855,766	48,22
856,174	47,58
856,583	48,06
856,991	48
857,399	48,09
857,807	47,75
858,215	48,21
858,623	48,53
859,031	48,04
859,439	48,33
859,846	47,93
860,254	48,11
860,661	48,23
861,069	48,17
861,476	47,96
861,883	47,96
862,29	47,66
862,697	47,76
863,104	47,79
863,511	47,66
863,918	47,83
864,325	47,96
864,731	48,06
865,138	47,68
865,544	47,82
865,95	47,95
866,357	47,83
866,763	48,01
867,169	48,32
867,575	48,21
867,98	48,19
868,386	48,09
868,792	48,13
869,197	48,18
869,603	47,93
870,008	47,8
870,414	48,35
870,819	48,05
871,224	47,64
871,629	47,6
872,034	48,13
872,439	47,37
872,844	48,05
873,248	48,06
873,653	48,13
874,057	47,82
874,462	48,15
874,866	48,27
875,27	48,31
875,674	48,28
876,078	47,93
876,482	48
876,886	47,95
877,29	47,41
877,694	47,75
878,097	47,5
878,501	47,41
878,904	47,64
879,308	47,35
879,711	47,88
880,114	47,51
880,517	47,71
880,92	48,42
881,323	48,21
881,726	48,36
882,128	47,97
882,531	48,01
882,934	48,11
883,336	47,91
883,738	47,84
884,141	48,22
884,543	47,74
884,945	47,75
885,347	47,8
885,749	48,26
886,151	48,28
886,552	47,83
886,954	47,36
887,355	47,95
887,757	47,47
888,158	48,03
888,56	47,59
888,961	47,81
889,362	47,87
889,763	47,85
890,164	48,16
890,565	47,69
890,965	47,64
891,366	48,03
891,767	48
892,167	48,11
892,567	48,13
892,968	47,78
893,368	47,59
893,768	47,6
894,168	47,13
894,568	47,15
894,968	47,8
895,368	47,69
895,767	47,89
896,167	47,66
896,566	47,53
896,966	47,68
897,365	48,1
897,764	47,93
898,164	47,79
898,563	48,33
898,962	47,97
899,361	48,07
899,759	48
900,158	47,56
900,557	48
900,955	47,68
901,354	47,5
901,752	47,66
902,15	47,39
902,548	47,65
902,947	47,63
903,345	47,84
903,742	47,54
904,14	48,01
904,538	47,85
904,936	48,4
905,333	47,73
905,731	47,97
906,128	47,57
906,525	48,02
906,923	48,27
907,32	47,72
907,717	47,84
908,114	47,92
908,511	47,94
908,907	48,31
909,304	48,22
909,701	47,71
910,097	48,08
910,494	47,59
910,89	48,41
911,286	47,6
911,682	48,17
912,078	48,09
912,474	48,14
912,87	48,31
913,266	47,84
913,662	47,84
914,058	47,73
914,453	47,84
914,849	47,6
915,244	47,92
915,639	48,28
916,034	47,64
916,43	47,87
916,825	48,56
917,22	48,28
917,614	47,85
918,009	47,94
918,404	47,14
918,798	47,64
919,193	47,63
919,587	48,22
919,982	47,75
920,376	47,47
920,77	47,57
921,164	47,87
921,558	48,07
921,952	48,02
922,346	47,4
922,74	47,72
923,133	47,6
923,527	47,68
923,92	47,85
924,314	47,57
924,707	47,55
925,1	48,08
925,493	48,42
925,886	47,42
926,279	47,37
926,672	47,95
927,065	47,57
927,457	47,61
927,85	47,32
928,243	47,34
928,635	47,95
929,027	47,79
929,42	47,89
929,812	47,78
930,204	48,22
930,596	48,13
930,988	47,86
931,379	47,54
931,771	48,01
932,163	47,75
932,554	47,35
932,946	47,06
933,337	47,48
933,729	48,53
934,12	47,33
934,511	47,71
934,902	48,24
935,293	46,85
935,684	48,25
936,075	48,2
936,465	48,56
936,856	47,55
937,246	48,54
937,637	47,99
938,027	47,91
938,417	47,28
938,808	47,8
939,198	47,25
939,588	48,02
939,978	47,92
940,368	47,84
940,757	48,21
941,147	48,51
941,537	47,42
941,926	48,8
942,315	48,92
942,705	47,49
943,094	47,49
943,483	48,51
943,872	46,91
944,261	47,99
944,65	47,31
945,039	47,95
945,428	48,17
945,816	47,96
946,205	47,69
946,593	47,68
946,982	48,55
947,37	47,62
947,758	48,03
948,146	48,25
948,534	47,72
948,922	48,2
949,31	47,55
949,698	48,29
950,086	47,75
950,473	47,34
950,861	48,42
951,248	47,67
951,636	47,4
952,023	46,78
952,41	47,73
952,797	47,41
953,184	47,68
953,571	47,13
953,958	47,4
954,345	47,26
954,731	48
955,118	47,08
955,505	46,74
955,891	48,23
956,277	47,65
956,664	46,69
957,05	46,78
957,436	46,56
957,822	46,96
958,208	46,88
958,594	46,85
958,979	46,73
959,365	46,27
959,751	46,9
960,136	46,98
960,522	46,95
960,907	47,15
961,292	46,59
961,677	47,41
962,062	47,1
962,447	46,78
962,832	46,78
963,217	47,04
963,602	47,05
963,986	47,1
964,371	46,67
964,756	46,5
965,14	46,76
965,524	47,75
965,908	46,96
966,293	46,29
966,677	47,03
967,061	47,3
967,445	46,65
967,828	46,87
968,212	47,08
968,596	47,1
968,979	47,03
969,363	47,04
969,746	47,01
970,129	47,03
970,513	46,97
970,896	47,46
971,279	46,9
971,662	47,69
972,045	46,69
972,428	47,4
972,81	47,42
973,193	47,67
973,575	46,72
973,958	46,22
974,34	46,78
974,723	47,16
975,105	46,97
975,487	47,15
975,869	47,12
976,251	47,65
976,633	46,86
977,015	47,49
977,396	47,4
977,778	46,97
978,16	46,63
978,541	47,18
978,922	46,64
979,304	47,28
979,685	47,82
980,066	47,16
980,447	46,83
980,828	47,93
981,209	47,51
981,59	47
981,97	47,01
982,351	47,09
982,732	47,24
983,112	47,67
983,493	47,38
983,873	47,77
984,253	46,84
984,633	47,92
985,013	47,7
985,393	47,94
985,773	47,47
986,153	47,75
986,533	46,98
986,912	47,73
987,292	47,87
987,671	46,88
988,051	48,18
988,43	47,42
988,809	47,19
989,188	47,27
989,567	47,35
989,946	47,29
990,325	48
990,704	47,66
991,083	47,16
991,461	47,04
991,84	47,94
992,218	47,46
992,597	47,62
992,975	47,41
993,353	46,9
993,732	47,55
994,11	48,07
994,488	47,74
994,866	46,86
995,243	47,94
995,621	47,82
995,999	47,46
996,376	47,89
996,754	47,97
997,131	47,45
997,509	46,69
997,886	47,54
998,263	47,73
998,64	47,26
999,017	48,22
999,394	47,47
999,771	47,52
1000,148	47,3
1000,524	47,59
1000,901	47,31
1001,277	48,05
1001,654	47,96
1002,03	48,45
1002,406	48,2
1002,783	47,99
1003,159	48,12
1003,535	48,32
1003,911	47,93
1004,286	48,65
1004,662	48,2
1005,038	47,96
1005,414	48,11
1005,789	47,67
1006,164	48,15
1006,54	48,14
1006,915	48,47
1007,29	47,21
1007,665	48,01
1008,04	48,14
1008,415	47,73
1008,79	48,69
1009,165	47,99
1009,54	48,02
1009,914	48,01
1010,289	47,9
1010,663	48,24
1011,038	48,43
1011,412	48,59
1011,786	49,04
1012,16	49,37
1012,535	48,14
1012,909	48,5
1013,282	48,89
1013,656	48,38
1014,03	47,8
1014,404	48,51
1014,777	48,38
1015,151	49,09
1015,524	49,33
1015,897	48,9
1016,271	48,78
1016,644	48,81
1017,017	49,03
1017,39	48,46
1017,763	48,83
1018,136	48,62
1018,508	49,22
1018,881	48,57
1019,254	48,83
1019,626	48,42
1019,999	48,26
1020,371	48,94
1020,743	48,62
1021,116	48,35
1021,488	49,18
1021,86	49,86
1022,232	49,53
1022,604	48,91
1022,975	49,05
1023,347	48,77
1023,719	49,31
1024,09	49,08
1024,462	49,62
1024,833	49,61
1025,204	49,53
1025,576	49,02
1025,947	47,74
1026,318	49,21
1026,689	49,96
1027,06	49,23
1027,431	50,05
1027,801	49,79
1028,172	48,91
1028,543	49,98
1028,913	50,4
1029,284	49,79
1029,654	49,41
1030,024	50,34
1030,394	49,48
1030,764	49,08
1031,135	49,88
1031,504	49,3
1031,874	49,25
1032,244	48,86
1032,614	49,31
1032,983	49,75
1033,353	49,02
1033,722	49,4
1034,092	49,87
1034,461	49,27
1034,83	49,65
1035,2	50,72
1035,569	49,26
1035,938	49,92
1036,307	49,76
1036,675	49,04
1037,044	51,01
1037,413	50,87
1037,781	51,3
1038,15	52,22
1038,518	50,65
1038,887	50,64
1039,255	49,88
1039,623	50,07
1039,991	50,38
1040,359	50,44
1040,727	50,25
1041,095	50,76
1041,463	50,13
1041,831	50,16
1042,198	50,09
1042,566	50,96
1042,933	50,68
1043,301	49,2
1043,668	50,01
1044,035	49,63
1044,402	50,89
1044,77	49,32
1045,137	50,64
1045,503	50,91
1045,87	50,31
1046,237	50,17
1046,604	51,03
1046,97	50,03
1047,337	50,43
1047,703	51,43
1048,07	51,22
1048,436	52,82
1048,802	51,26
1049,168	52,44
1049,534	50,67
1049,9	51,69
1050,266	52,31
1050,632	50,76
1050,998	52,2
1051,364	51,23
1051,729	52,19
1052,095	51,71
1052,46	50,98
1052,825	51,67
1053,191	52,11
1053,556	50,21
1053,921	50,57
1054,286	51,12
1054,651	51,88
1055,016	52,85
1055,381	52,11
1055,745	50,25
1056,11	51,52
1056,475	53,29
1056,839	52,99
1057,203	50,85
1057,568	51,26
1057,932	52,56
1058,296	52,17
1058,66	53,03
1059,024	53,78
1059,388	53,24
1059,752	52,51
1060,116	52,74
1060,48	54,69
1060,843	51,84
1061,207	53
1061,57	52,6
1061,934	53,34
1062,297	53,32
1062,66	52,22
1063,023	54,08
1063,386	53,87
1063,749	53,51
1064,112	51,99
1064,475	53,31
1064,838	53,08
1065,201	52,76
1065,563	53,03
1065,926	52,38
1066,288	52,35
1066,651	52,61
1067,013	52,02
1067,375	53,23
1067,737	53,46
1068,099	53,51
1068,461	55,13
1068,823	51,55
1069,185	53,98
1069,547	53,15
1069,909	50,87
1070,27	54,27
1070,632	52,66
1070,993	54,77
1071,355	54,43
1071,716	52,2
1072,077	53,95
1072,438	52,86
1072,799	55,35
1073,16	54,06
1073,521	51,78
1073,882	53,1
1074,243	56,14
1074,603	54,13
1074,964	52,82
1075,325	53,86
1075,685	52
1076,045	52,37
1076,406	53,68
1076,766	55,36
1077,126	53,01
1077,486	55,3
1077,846	55,78
1078,206	53,46
1078,566	54,76
1078,925	53,55
1079,285	53,74
1079,645	54,49
1080,004	52,77
1080,364	53,49
1080,723	54,35
1081,082	54,51
1081,442	53,71
1081,801	54,42
1082,16	53,71
1082,519	54,56
1082,878	56,63
1083,237	55,03
1083,595	56,6
1083,954	54,81
1084,313	54,83
1084,671	56,08
1085,03	54,45
1085,388	54,13
1085,746	56,92
1086,104	54,03
1086,463	54,17
1086,821	53,92
1087,179	56,03
1087,537	56,34
1087,894	55,4
1088,252	57,7
1088,61	54,53
1088,967	55,66
1089,325	56,37
1089,682	56,92
1090,04	56,68
1090,397	54,62
1090,754	56,29
1091,111	54,6
1091,469	58,33
1091,826	56,27
1092,182	57,9
1092,539	55,9
1092,896	57,02
1093,253	55,24
1093,609	56,66
1093,966	57,45
1094,322	56,08
1094,679	56,59
1095,035	57,31
1095,391	55,12
1095,748	56,13
1096,104	55,98
1096,46	60,4
1096,816	55,56
1097,171	56,77
1097,527	58,45
1097,883	58,07
1098,239	56,31
1098,594	58,26
1098,95	59,5
1099,305	56,28
1099,66	59,51
1100,016	55,04
1100,371	57,45
1100,726	58,37
1101,081	54,71
1101,436	58,25
1101,791	61,37
1102,146	57,63
1102,5	60,94
1102,855	59,77
1103,21	57,27
1103,564	58,99
1103,918	58,9
1104,273	61,15
1104,627	58,53
1104,981	56,47
1105,335	55,69
1105,69	60,86
1106,043	58,97
1106,397	57,25
1106,751	59,75
1107,105	58,15
1107,459	58,86
1107,812	60,26
1108,166	61,42
1108,519	59,28
1108,873	62,57
1109,226	61,72
1109,579	58,07
1109,932	61,37
1110,285	60,21
1110,638	63,54
1110,991	59,83
1111,344	56,78
1111,697	61,18
1112,05	58,33
1112,402	63,84
1112,755	61,67
1113,107	65,41
1113,46	64,62
1113,812	67,12
1114,164	68,02
1114,517	66,92
1114,869	144,44
1115,221	153,51
1115,573	134,09
1115,924	160,38
