Data from E4___Relative__8__00090.txt Node

Date: Wed Jan 31 18:25:57 CET 2024
User: diatiterra
Spectrometer: HDX00911
Trigger mode: 0
Integration Time (sec): 6,000000E-3
Scans to average: 2
Nonlinearity correction enabled: false
Boxcar width: 0
Storing dark spectrum: false
XAxis mode: Wavelengths
Number of Pixels in Spectrum: 2068
>>>>>Begin Spectral Data<<<<<
194,468	231,13
195,025	160,91
195,581	217,07
196,138	232,05
196,694	126,54
197,251	125,25
197,807	105,12
198,363	102
198,919	96,55
199,474	97,79
200,03	98,36
200,586	118,3
201,141	84,52
201,696	92,62
202,251	96,59
202,806	95,45
203,361	95,93
203,916	94,44
204,471	94,53
205,025	104,44
205,58	97,5
206,134	106
206,688	105,38
207,242	111,5
207,796	95,11
208,35	103,26
208,904	94,83
209,457	86,11
210,011	86,52
210,564	91,2
211,117	89,85
211,67	100,37
212,223	89,04
212,776	102,82
213,329	96,67
213,881	116,67
214,434	88,16
214,986	106,61
215,538	94,49
216,09	92,25
216,642	102,07
217,194	103,41
217,746	98,12
218,297	101,91
218,849	107,72
219,4	105,88
219,951	100,81
220,502	99,66
221,053	105,73
221,604	95,97
222,155	101,19
222,705	90,81
223,256	101,12
223,806	108,66
224,356	100,38
224,906	113,31
225,456	106,2
226,006	99,6
226,556	80,84
227,106	106,85
227,655	86,11
228,204	97,5
228,754	91,2
229,303	95,71
229,852	88,49
230,401	95,15
230,949	101,44
231,498	87,32
232,047	88,64
232,595	95,86
233,143	99,21
233,691	96,51
234,239	90,71
234,787	95,2
235,335	102,24
235,883	95,1
236,43	97,73
236,978	101,15
237,525	97,45
238,072	91,84
238,619	103,03
239,166	92,91
239,713	95,99
240,26	90
240,806	93,4
241,353	92,86
241,899	95,1
242,445	103,65
242,991	99,62
243,537	96,97
244,083	102,29
244,629	94,23
245,174	110,62
245,72	96,3
246,265	88,89
246,81	93,6
247,355	106,35
247,9	97,01
248,445	101,98
248,99	104,17
249,534	109,57
250,079	95,86
250,623	92,96
251,168	106,2
251,712	102,73
252,256	106,97
252,8	101,15
253,343	92,86
253,887	98,39
254,43	106,11
254,974	94,66
255,517	92,47
256,06	108,08
256,603	94,81
257,146	96,51
257,689	104,33
258,232	115,25
258,774	97,87
259,317	104,24
259,859	114,22
260,401	104,26
260,943	96,81
261,485	97,16
262,027	110
262,569	105,6
263,11	96,15
263,652	115,75
264,193	97,11
264,734	104,01
265,275	110,66
265,816	99,24
266,357	112,79
266,898	107,31
267,438	106,3
267,979	96,76
268,519	106,72
269,059	126,17
269,6	109,02
270,14	109,68
270,68	98,55
271,219	108,9
271,759	90,98
272,298	99,25
272,838	98,46
273,377	107,14
273,916	96,76
274,455	104,74
274,994	102,4
275,533	97,1
276,072	104,47
276,61	90,58
277,149	113,33
277,687	96,99
278,225	90,67
278,763	118,86
279,301	110,83
279,839	98,79
280,377	99,59
280,914	90,91
281,452	122,22
281,989	108,68
282,526	105,51
283,064	114,71
283,601	91,55
284,137	99,59
284,674	105,83
285,211	116,23
285,747	96,97
286,284	114,41
286,82	107,02
287,356	88,49
287,892	107,36
288,428	103,72
288,964	118,07
289,5	107,44
290,035	104,8
290,571	110,5
291,106	113,01
291,641	121,88
292,176	102,34
292,711	104,88
293,246	95,77
293,781	102,07
294,315	88,73
294,85	119,44
295,384	99,59
295,918	98,53
296,453	90,3
296,987	100,83
297,52	102,89
298,054	93,89
298,588	104,17
299,121	94,4
299,655	100,36
300,188	107,08
300,721	106,1
301,254	100,4
301,787	101,17
302,32	111,38
302,853	105,2
303,385	98,93
303,918	95,74
304,45	97,69
304,982	92,91
305,514	98,45
306,046	94,21
306,578	95,35
307,11	94,96
307,641	106,47
308,173	104,55
308,704	91,74
309,236	94,74
309,767	93,26
310,298	97,18
310,829	101,74
311,359	102,02
311,89	102,94
312,421	110,36
312,951	100,81
313,481	90
314,012	95,15
314,542	98,31
315,072	97,71
315,601	97,6
316,131	103,15
316,661	99,17
317,19	89,26
317,72	105,37
318,249	101,98
318,778	104,3
319,307	93,36
319,836	114,16
320,365	101,3
320,893	95,87
321,422	105,69
321,95	103,38
322,479	103,05
323,007	110,91
323,535	90
324,063	107,6
324,591	104,4
325,118	105,84
325,646	108,82
326,173	105,83
326,701	109,35
327,228	109,48
327,755	93,61
328,282	99,62
328,809	114,41
329,336	100,39
329,862	101,84
330,389	90,62
330,915	101,97
331,441	104,96
331,968	118,02
332,494	96,21
333,02	102,08
333,545	92,91
334,071	110,74
334,597	82,75
335,122	96,3
335,648	110,78
336,173	83,33
336,698	83,54
337,223	97,06
337,748	88,19
338,272	97,26
338,797	88,04
339,322	86,13
339,846	83,09
340,37	106,05
340,894	88,19
341,419	98,12
341,942	85,66
342,466	90,06
342,99	90,27
343,514	89,44
344,037	86,08
344,56	97,41
345,084	89,73
345,607	81,25
346,13	90,85
346,653	98,67
347,175	89,1
347,698	86,16
348,221	88,93
348,743	84,16
349,265	85,61
349,787	80,37
350,309	78,16
350,831	79,32
351,353	77,44
351,875	75,15
352,397	87,76
352,918	83,22
353,439	86,75
353,961	72,38
354,482	81,87
355,003	75,58
355,524	78,33
356,044	70,45
356,565	84,04
357,086	86,16
357,606	70,6
358,126	76,06
358,646	66,07
359,167	74,59
359,687	73,73
360,206	66,12
360,726	66,11
361,246	76,33
361,765	78,53
362,285	72,25
362,804	77,89
363,323	61,46
363,842	72,8
364,361	72,39
364,88	69,46
365,398	65,07
365,917	70,75
366,435	74,74
366,954	65,62
367,472	65,8
367,99	71,8
368,508	64,37
369,026	74,77
369,544	69,96
370,061	65,34
370,579	62,3
371,096	71,79
371,613	67,89
372,131	61,42
372,648	62,4
373,165	66,02
373,681	64,98
374,198	66,6
374,715	67,48
375,231	63,26
375,747	58,62
376,264	57,65
376,78	62,41
377,296	61,9
377,812	56,15
378,327	60,1
378,843	58,53
379,359	62,91
379,874	60,38
380,389	58,68
380,905	54,03
381,42	54,41
381,935	56,71
382,449	53,98
382,964	53,43
383,479	51,72
383,993	53,19
384,508	49,87
385,022	50,65
385,536	49,87
386,05	48,82
386,564	51,74
387,078	46,05
387,592	48,3
388,105	50,24
388,619	44,64
389,132	45,39
389,645	46,9
390,158	43,24
390,671	43,89
391,184	42,41
391,697	42,59
392,21	40,71
392,722	42,36
393,235	43,62
393,747	41,44
394,259	41,48
394,771	40,04
395,283	39,38
395,795	38,99
396,307	41,68
396,818	39,21
397,33	34,52
397,841	36,9
398,353	37,48
398,864	36,15
399,375	35,64
399,886	33,94
400,397	35,9
400,907	32,35
401,418	31,88
401,928	31,64
402,439	30,82
402,949	28,44
403,459	29,23
403,969	28,52
404,479	28,6
404,989	28,72
405,498	26,55
406,008	26,35
406,517	26,05
407,027	22,84
407,536	24,03
408,045	23,26
408,554	22,49
409,063	21,72
409,572	21,19
410,08	20,15
410,589	19,81
411,097	19,49
411,606	18,75
412,114	18,47
412,622	17,95
413,13	17,19
413,638	16,69
414,145	15,66
414,653	15,86
415,16	15,23
415,668	14,9
416,175	14,47
416,682	14,72
417,189	13,35
417,696	13,91
418,203	13,32
418,71	13,57
419,216	12,92
419,723	13,03
420,229	12,49
420,735	12,41
421,242	12,39
421,748	12,8
422,254	11,62
422,759	11,93
423,265	11,94
423,771	12,08
424,276	11,74
424,781	11,38
425,287	11,47
425,792	11,15
426,297	11,53
426,802	10,87
427,306	10,77
427,811	11,07
428,316	10,95
428,82	10,6
429,324	11,1
429,829	10,69
430,333	10,6
430,837	10,35
431,34	10,26
431,844	10,16
432,348	10,16
432,851	10,24
433,355	10,04
433,858	10,06
434,361	10,04
434,864	10,12
435,367	9,66
435,87	10,11
436,373	10,23
436,876	10,22
437,378	10,15
437,88	9,38
438,383	9,8
438,885	9,41
439,387	9,76
439,889	8,83
440,391	9,71
440,892	9,7
441,394	10,08
441,896	9,62
442,397	9,2
442,898	9,01
443,399	9,47
443,9	9,21
444,401	9,35
444,902	8,83
445,403	9,33
445,903	9,62
446,404	9,54
446,904	9,5
447,405	9,31
447,905	9,31
448,405	9,52
448,905	9,64
449,404	9,25
449,904	9,28
450,404	9,04
450,903	9,97
451,403	9,02
451,902	9,68
452,401	9,63
452,9	9,58
453,399	9,92
453,898	9,23
454,396	9,72
454,895	9,58
455,393	9,53
455,892	9,21
456,39	9,2
456,888	9,46
457,386	9,43
457,884	9,4
458,382	9,96
458,879	9,45
459,377	9,73
459,874	9,37
460,372	9,29
460,869	9,52
461,366	9,4
461,863	9,42
462,36	9,49
462,857	9,55
463,353	9,16
463,85	9,45
464,346	9,23
464,843	9,36
465,339	9,05
465,835	9,46
466,331	9,35
466,827	9,35
467,323	9,47
467,818	9,5
468,314	9,14
468,809	9,46
469,305	9,16
469,8	9,54
470,295	9,03
470,79	9,49
471,285	9,11
471,78	9,26
472,274	9,02
472,769	9,13
473,263	9
473,758	9,11
474,252	9,08
474,746	9,86
475,24	9,28
475,734	9,15
476,228	9,28
476,721	9,11
477,215	9,32
477,708	9,44
478,202	9,23
478,695	9,39
479,188	9,24
479,681	9,29
480,174	9,13
480,667	9,22
481,159	9,39
481,652	9,47
482,144	9,33
482,637	9,63
483,129	9,14
483,621	9,08
484,113	9,53
484,605	9,57
485,097	9,32
485,588	9,09
486,08	9,39
486,571	9,66
487,063	9,56
487,554	9,83
488,045	9,76
488,536	9,62
489,027	9,72
489,518	9,36
490,008	9,68
490,499	9,6
490,989	9,53
491,48	9,59
491,97	9,63
492,46	9,76
492,95	9,79
493,44	9,7
493,93	9,81
494,419	10,05
494,909	10,04
495,398	9,93
495,888	9,91
496,377	10,21
496,866	10,1
497,355	10,55
497,844	10,27
498,333	10,46
498,821	10,41
499,31	10,36
499,798	10,84
500,287	10,8
500,775	11,06
501,263	10,94
501,751	11,14
502,239	11,46
502,727	11,34
503,215	12,03
503,702	11,65
504,19	11,84
504,677	12,28
505,164	12,43
505,651	12,32
506,139	12,3
506,625	12,57
507,112	12,57
507,599	13,37
508,086	13,16
508,572	13,66
509,058	13,47
509,545	13,53
510,031	13,85
510,517	14,43
511,003	13,95
511,489	14,57
511,974	15,08
512,46	15,34
512,946	15,27
513,431	15,78
513,916	15,82
514,401	16,55
514,887	16,43
515,371	17,04
515,856	17,22
516,341	17,34
516,826	17,82
517,31	17,97
517,795	18,28
518,279	18,78
518,763	19,4
519,247	19,67
519,731	19,86
520,215	20,24
520,699	20,32
521,182	21,06
521,666	21,08
522,149	21,24
522,633	21,76
523,116	22,1
523,599	22,6
524,082	22,39
524,565	22,88
525,048	23,2
525,53	23,45
526,013	24,01
526,495	24,34
526,978	23,78
527,46	24,48
527,942	24,56
528,424	25,52
528,906	25,1
529,388	25,37
529,87	25,96
530,351	25,62
530,833	25,98
531,314	26,83
531,795	26,37
532,277	26,89
532,758	26,75
533,238	27,29
533,719	27,15
534,2	26,69
534,681	27,44
535,161	27,28
535,642	27,83
536,122	27,13
536,602	27,75
537,082	27,75
537,562	27,99
538,042	28,02
538,522	27,65
539,001	28,24
539,481	28,48
539,96	28,09
540,44	28,78
540,919	28,42
541,398	28,24
541,877	28,43
542,356	28,59
542,835	28,18
543,313	28,82
543,792	28,7
544,27	28,69
544,749	28,79
545,227	28,96
545,705	28,87
546,183	29,18
546,661	29,07
547,139	28,96
547,616	28,7
548,094	28,86
548,571	28,86
549,049	29,31
549,526	29
550,003	29,1
550,48	29,36
550,957	29,26
551,434	29,03
551,911	29,44
552,387	28,81
552,864	29,39
553,34	29,82
553,817	29,19
554,293	29,53
554,769	29,11
555,245	29,26
555,721	29,4
556,197	29,16
556,672	29,26
557,148	29,23
557,623	29,48
558,099	28,93
558,574	29,38
559,049	28,6
559,524	29,15
559,999	29,08
560,474	28,74
560,948	28,7
561,423	28,78
561,897	28,62
562,372	28,55
562,846	28,24
563,32	28,17
563,794	28,42
564,268	28,56
564,742	28,29
565,216	28,22
565,69	27,53
566,163	27,81
566,636	27,54
567,11	27,32
567,583	27,17
568,056	26,93
568,529	27,67
569,002	27,02
569,475	26,83
569,947	26,49
570,42	26,53
570,892	25,93
571,365	26,17
571,837	26,19
572,309	25,79
572,781	25,32
573,253	25,47
573,725	25,64
574,197	25,04
574,668	25,13
575,14	24,37
575,611	24,77
576,082	24,13
576,554	23,96
577,025	23,96
577,496	23,8
577,967	23,81
578,437	23,38
578,908	23,13
579,379	23,35
579,849	23,14
580,319	23,12
580,79	22,89
581,26	22,73
581,73	22,59
582,2	22,29
582,669	22,26
583,139	22,2
583,609	22,41
584,078	22,12
584,548	21,93
585,017	22,05
585,486	21,55
585,955	21,85
586,424	21,71
586,893	21,71
587,362	21,52
587,83	21,09
588,299	21,06
588,767	21,36
589,236	21,31
589,704	20,88
590,172	20,66
590,64	20,81
591,108	20,9
591,576	20,89
592,043	20,71
592,511	20,47
592,978	20,62
593,446	20,62
593,913	20,36
594,38	20,21
594,847	20,17
595,314	20,32
595,781	20,17
596,248	19,95
596,715	20,16
597,181	19,81
597,647	20,13
598,114	19,87
598,58	19,93
599,046	19,94
599,512	19,95
599,978	19,64
600,444	19,74
600,91	19,65
601,375	19,66
601,841	20,08
602,306	19,55
602,771	19,59
603,236	19,35
603,702	19,62
604,167	19,65
604,631	19,26
605,096	19,27
605,561	19,27
606,025	19,26
606,49	19,06
606,954	18,98
607,418	18,65
607,882	18,83
608,347	18,63
608,81	18,75
609,274	18,41
609,738	18,66
610,202	18,51
610,665	18,52
611,128	18,11
611,592	17,9
612,055	18,11
612,518	17,9
612,981	17,78
613,444	17,86
613,907	17,45
614,369	17,32
614,832	17,47
615,294	17,33
615,757	17,34
616,219	17,15
616,681	16,93
617,143	16,86
617,605	17
618,067	16,79
618,529	16,78
618,99	16,7
619,452	16,69
619,913	16,59
620,375	16,72
620,836	16,44
621,297	16,47
621,758	16,32
622,219	16,21
622,68	16,19
623,14	16,07
623,601	16,21
624,061	16,19
624,522	16,21
624,982	16,15
625,442	16,08
625,902	15,88
626,362	15,87
626,822	15,93
627,282	16,13
627,742	16,03
628,201	15,72
628,661	15,95
629,12	15,9
629,579	15,51
630,038	16,09
630,497	15,55
630,956	15,68
631,415	15,71
631,874	15,46
632,332	15,51
632,791	15,65
633,249	15,34
633,708	15,62
634,166	15,25
634,624	14,99
635,082	15,14
635,54	15,01
635,998	15
636,455	14,94
636,913	14,75
637,37	14,71
637,828	14,55
638,285	14,45
638,742	14,28
639,199	14,34
639,656	13,82
640,113	14,04
640,57	13,89
641,027	13,58
641,483	13,6
641,94	13,49
642,396	13,23
642,852	13,14
643,309	13,12
643,765	12,89
644,221	12,74
644,676	12,56
645,132	12,54
645,588	12,4
646,043	12,11
646,499	12,14
646,954	11,88
647,409	11,83
647,864	11,8
648,319	11,63
648,774	11,58
649,229	11,43
649,684	11,29
650,139	11,3
650,593	11,26
651,047	11,17
651,502	10,96
651,956	10,95
652,41	11,08
652,864	11,03
653,318	10,93
653,772	10,93
654,225	10,87
654,679	10,84
655,133	10,69
655,586	10,78
656,039	10,67
656,492	10,59
656,946	10,5
657,399	10,57
657,851	10,48
658,304	10,36
658,757	10,42
659,209	10,16
659,662	10,14
660,114	10
660,567	10,01
661,019	9,82
661,471	9,78
661,923	9,76
662,375	9,61
662,826	9,52
663,278	9,42
663,73	9,38
664,181	9,28
664,632	9,34
665,084	9,24
665,535	9,23
665,986	9,1
666,437	9,17
666,888	9,01
667,338	9,05
667,789	9,08
668,24	8,95
668,69	8,97
669,14	9,1
669,591	9,02
670,041	8,97
670,491	9,14
670,941	9,01
671,391	9,07
671,84	9,19
672,29	9,01
672,74	9,25
673,189	9,24
673,638	9,38
674,088	9,39
674,537	9,43
674,986	9,39
675,435	9,68
675,883	9,68
676,332	9,81
676,781	9,87
677,229	10,03
677,678	10
678,126	10,16
678,574	10,21
679,022	10,28
679,47	10,5
679,918	10,78
680,366	10,77
680,814	10,75
681,261	10,75
681,709	11,08
682,156	11,17
682,604	11,34
683,051	11,48
683,498	11,59
683,945	11,61
684,392	11,98
684,839	12,17
685,286	12,26
685,732	12,25
686,179	12,5
686,625	12,79
687,071	12,77
687,518	13,15
687,964	13,29
688,41	13,53
688,856	13,81
689,301	14,25
689,747	14,45
690,193	14,87
690,638	15,03
691,084	15,62
691,529	15,96
691,974	16,38
692,419	16,81
692,864	17,35
693,309	17,8
693,754	18,18
694,199	18,9
694,643	19,17
695,088	19,95
695,532	20,59
695,977	21,04
696,421	21,66
696,865	22,02
697,309	22,55
697,753	23,14
698,197	23,65
698,64	24,28
699,084	24,74
699,527	25,25
699,971	25,82
700,414	26,3
700,857	26,71
701,3	27,18
701,743	28,06
702,186	28,62
702,629	28,91
703,072	29,44
703,515	29,58
703,957	29,82
704,399	30,62
704,842	30,99
705,284	31,57
705,726	31,56
706,168	32,21
706,61	32,74
707,052	32,84
707,494	33,66
707,935	33,73
708,377	34,32
708,818	34,8
709,26	34,94
709,701	35,15
710,142	35,8
710,583	35,84
711,024	36,29
711,465	36,41
711,905	36,98
712,346	36,95
712,787	37,28
713,227	37,86
713,667	37,86
714,108	38,84
714,548	38,79
714,988	38,95
715,428	39,7
715,868	39,64
716,307	39,81
716,747	39,83
717,186	40,34
717,626	40,59
718,065	40,88
718,504	40,9
718,944	41,58
719,383	41,64
719,822	41,56
720,261	41,91
720,699	42,29
721,138	41,91
721,576	42,41
722,015	42,5
722,453	42,74
722,892	42,65
723,33	43,12
723,768	43,79
724,206	43,79
724,644	43,54
725,081	43,89
725,519	43,87
725,957	44,03
726,394	44,24
726,832	44,25
727,269	44,28
727,706	44,52
728,143	44,61
728,58	45,05
729,017	44,51
729,454	45,15
729,89	45,2
730,327	45,22
730,764	45,55
731,2	45,16
731,636	45,32
732,072	45,84
732,509	45,7
732,945	45,95
733,38	45,71
733,816	45,88
734,252	46,12
734,688	46,15
735,123	45,75
735,559	45,91
735,994	45,77
736,429	46,39
736,864	46,46
737,299	46,14
737,734	46,48
738,169	46,12
738,604	46,36
739,038	45,98
739,473	46,11
739,907	46,24
740,342	46,25
740,776	46,35
741,21	46,01
741,644	46,4
742,078	46,43
742,512	46,38
742,946	46,47
743,379	46,42
743,813	46,24
744,246	46,24
744,68	46,24
745,113	45,92
745,546	46,07
745,979	46,13
746,412	45,94
746,845	45,91
747,278	46,05
747,711	46,11
748,143	45,98
748,576	46,22
749,008	46,14
749,441	45,7
749,873	45,52
750,305	45,84
750,737	45,78
751,169	45,68
751,601	45,77
752,032	45,72
752,464	45,67
752,896	45,03
753,327	45,6
753,758	45,38
754,19	45,55
754,621	45,27
755,052	45,21
755,483	45,48
755,914	45,38
756,344	45,26
756,775	45,39
757,206	45,22
757,636	45,31
758,066	45,1
758,497	45,24
758,927	45,41
759,357	45,38
759,787	44,97
760,217	45,14
760,647	45,01
761,076	44,8
761,506	44,79
761,935	44,75
762,365	45,08
762,794	44,62
763,223	44,78
763,653	44,67
764,082	44,43
764,51	44,75
764,939	44,67
765,368	44,58
765,797	44,79
766,225	44,44
766,654	44,28
767,082	44,15
767,51	44,33
767,938	44,21
768,367	44,29
768,795	43,95
769,222	44,5
769,65	44,74
770,078	44,37
770,505	44,32
770,933	44,44
771,36	44,7
771,788	44,1
772,215	44,09
772,642	44,18
773,069	44,11
773,496	44,11
773,923	44
774,349	43,69
774,776	44,06
775,203	43,77
775,629	44,42
776,055	43,42
776,482	43,62
776,908	43,62
777,334	43,59
777,76	43,8
778,186	43,69
778,611	43,9
779,037	44,03
779,463	43,84
779,888	43,66
780,314	43,42
780,739	43,71
781,164	43,78
781,589	43,53
782,014	43,7
782,439	43,57
782,864	43,64
783,289	43,4
783,713	43,33
784,138	43,58
784,562	43,17
784,987	43,59
785,411	43,54
785,835	43,27
786,259	43,65
786,683	43,84
787,107	43,4
787,531	43,62
787,954	43,57
788,378	43,63
788,802	43,64
789,225	43,38
789,648	43,42
790,071	42,98
790,495	43,46
790,918	43,45
791,34	43,49
791,763	43,36
792,186	43,32
792,609	43,35
793,031	43,24
793,454	43,33
793,876	43,34
794,298	43,15
794,721	42,98
795,143	43,34
795,565	42,89
795,986	43,11
796,408	43,28
796,83	43
797,252	43,19
797,673	43,39
798,094	43,43
798,516	43,04
798,937	43,18
799,358	42,98
799,779	43,19
800,2	43,23
800,621	43,12
801,042	43,24
801,462	43,12
801,883	43,07
802,303	43,06
802,724	43,21
803,144	43,02
803,564	43,21
803,984	43,49
804,404	43,3
804,824	43,36
805,244	43,21
805,664	43,27
806,084	43,22
806,503	42,98
806,923	43,03
807,342	43,06
807,761	42,76
808,18	43,06
808,599	42,81
809,018	43,09
809,437	43,04
809,856	42,74
810,275	42,87
810,693	42,92
811,112	43,07
811,53	43,32
811,949	43,19
812,367	43,31
812,785	42,88
813,203	43,24
813,621	43
814,039	42,77
814,457	42,87
814,874	43,08
815,292	42,65
815,709	43,08
816,127	42,94
816,544	42,93
816,961	43,21
817,378	43,53
817,795	43,13
818,212	42,88
818,629	43,14
819,046	42,54
819,462	42,86
819,879	42,78
820,295	42,8
820,712	42,7
821,128	42,82
821,544	42,8
821,96	42,97
822,376	42,78
822,792	43
823,208	42,83
823,624	43,05
824,039	42,72
824,455	42,94
824,87	42,36
825,286	42,93
825,701	43,11
826,116	42,56
826,531	42,72
826,946	42,79
827,361	42,7
827,776	42,85
828,19	42,8
828,605	42,73
829,02	42,78
829,434	42,89
829,848	42,87
830,263	42,79
830,677	42,58
831,091	42,6
831,505	42,53
831,919	42,92
832,332	42,85
832,746	42,77
833,16	42,52
833,573	42,87
833,987	43,01
834,4	42,63
834,813	42,2
835,226	42,69
835,639	42,54
836,052	42,43
836,465	42,59
836,878	42,54
837,29	42,77
837,703	42,72
838,116	42,53
838,528	42,85
838,94	42,67
839,352	42,68
839,765	42,72
840,177	42,71
840,589	42,48
841	42,4
841,412	42,59
841,824	42,35
842,235	42,35
842,647	42,21
843,058	42,75
843,47	42,55
843,881	42,7
844,292	42,8
844,703	43,02
845,114	42,2
845,525	42,79
845,935	42,61
846,346	42,98
846,757	42,33
847,167	42,47
847,577	42,49
847,988	42,52
848,398	42,64
848,808	42,45
849,218	42,55
849,628	42,15
850,038	42,63
850,448	42,35
850,857	42,63
851,267	42,56
851,676	42,66
852,086	42,65
852,495	42,53
852,904	42,25
853,313	42,02
853,722	42,65
854,131	42,62
854,54	42,17
854,949	42,3
855,357	42,07
855,766	42,4
856,174	42,22
856,583	42,21
856,991	42,35
857,399	42,79
857,807	42,17
858,215	42,27
858,623	42,59
859,031	42,29
859,439	42,89
859,846	42,63
860,254	42,52
860,661	42,68
861,069	42,71
861,476	42,52
861,883	41,89
862,29	42,22
862,697	42,44
863,104	42,57
863,511	42,08
863,918	42,06
864,325	42,27
864,731	42,36
865,138	42,32
865,544	42,2
865,95	42,37
866,357	42,3
866,763	42,44
867,169	42,59
867,575	42,33
867,98	42,45
868,386	42,28
868,792	42,68
869,197	42,21
869,603	41,86
870,008	42,14
870,414	42,77
870,819	41,94
871,224	42,19
871,629	42,05
872,034	42,02
872,439	41,75
872,844	42,2
873,248	42,51
873,653	42,39
874,057	42,04
874,462	42,45
874,866	42,6
875,27	42,53
875,674	42,74
876,078	42,51
876,482	42,26
876,886	42,46
877,29	42,15
877,694	42,08
878,097	42,25
878,501	41,74
878,904	41,74
879,308	41,65
879,711	42,21
880,114	42,47
880,517	42,2
880,92	42,45
881,323	42,53
881,726	42,43
882,128	42,12
882,531	42,19
882,934	42,3
883,336	42,13
883,738	42,26
884,141	42,04
884,543	42,48
884,945	41,77
885,347	42,24
885,749	42,28
886,151	42,6
886,552	42,08
886,954	41,86
887,355	42,21
887,757	42,06
888,158	42,12
888,56	42,24
888,961	42,25
889,362	42,06
889,763	42,19
890,164	42,74
890,565	42,14
890,965	41,99
891,366	42,35
891,767	42,43
892,167	42,18
892,567	42,51
892,968	42,17
893,368	41,63
893,768	42,06
894,168	42,1
894,568	41,66
894,968	41,76
895,368	41,78
895,767	41,93
896,167	42,03
896,566	41,99
896,966	42,04
897,365	42,15
897,764	42,48
898,164	42,47
898,563	42,32
898,962	42,27
899,361	42,76
899,759	42,47
900,158	41,86
900,557	42,15
900,955	41,97
901,354	42,2
901,752	41,76
902,15	41,79
902,548	42,66
902,947	42,11
903,345	42,19
903,742	41,7
904,14	42,14
904,538	42,09
904,936	42,51
905,333	42,05
905,731	41,91
906,128	42,08
906,525	42,18
906,923	42,39
907,32	42,21
907,717	42,14
908,114	42,28
908,511	42,01
908,907	42,59
909,304	42,46
909,701	42,09
910,097	42,35
910,494	41,85
910,89	42,79
911,286	41,85
911,682	42,4
912,078	42,38
912,474	42,6
912,87	41,84
913,266	42,29
913,662	42,35
914,058	42,14
914,453	41,91
914,849	41,92
915,244	42,01
915,639	42,39
916,034	42,04
916,43	42,48
916,825	42,17
917,22	42,09
917,614	42,22
918,009	42,01
918,404	41,82
918,798	41,95
919,193	42,17
919,587	41,87
919,982	42,29
920,376	41,71
920,77	42,48
921,164	42,12
921,558	41,77
921,952	42,22
922,346	41,75
922,74	42,41
923,133	42,05
923,527	41,98
923,92	42,34
924,314	42,19
924,707	41,81
925,1	42,31
925,493	42,27
925,886	41,97
926,279	41,79
926,672	42,36
927,065	42,02
927,457	42,09
927,85	41,66
928,243	42,24
928,635	42,17
929,027	42,11
929,42	42,34
929,812	42,06
930,204	42,41
930,596	42,37
930,988	42,3
931,379	41,99
931,771	42,12
932,163	42,01
932,554	41,95
932,946	42,07
933,337	41,71
933,729	42,09
934,12	42,11
934,511	42,05
934,902	42,2
935,293	41,43
935,684	42,28
936,075	42,68
936,465	42,29
936,856	41,98
937,246	42,7
937,637	42,38
938,027	42,26
938,417	41,71
938,808	42,46
939,198	42,3
939,588	42,69
939,978	42,61
940,368	41,63
940,757	42,65
941,147	42,76
941,537	42,5
941,926	43,12
942,315	43,1
942,705	42,19
943,094	42,96
943,483	42,29
943,872	42,66
944,261	42,03
944,65	42,05
945,039	42,31
945,428	42,76
945,816	42,34
946,205	42,07
946,593	42,12
946,982	42,36
947,37	42,19
947,758	42,78
948,146	41,9
948,534	41,99
948,922	42,79
949,31	41,69
949,698	42,35
950,086	42,17
950,473	41,81
950,861	42,59
951,248	42,17
951,636	42,11
952,023	41,58
952,41	41,81
952,797	41,96
953,184	41,66
953,571	41,96
953,958	40,96
954,345	41,5
954,731	42,68
955,118	42,19
955,505	41,46
955,891	41,99
956,277	41,73
956,664	41,71
957,05	41,15
957,436	41,43
957,822	41,41
958,208	41,26
958,594	41,51
958,979	41,27
959,365	41,11
959,751	41,19
960,136	41,91
960,522	41,61
960,907	41,54
961,292	41,11
961,677	41,81
962,062	41,95
962,447	41,78
962,832	41,31
963,217	41,7
963,602	41,99
963,986	41,48
964,371	41,26
964,756	41
965,14	41,44
965,524	41,82
965,908	42,14
966,293	41,25
966,677	41,71
967,061	42,16
967,445	41,62
967,828	41,62
968,212	41,42
968,596	41,43
968,979	42,12
969,363	41,54
969,746	41,64
970,129	41,24
970,513	41,78
970,896	41,67
971,279	41,51
971,662	41,45
972,045	41,37
972,428	41,87
972,81	41,55
973,193	42,31
973,575	41,45
973,958	40,99
974,34	41,49
974,723	41,58
975,105	41,42
975,487	41,4
975,869	41,25
976,251	41,73
976,633	41,79
977,015	41,38
977,396	41,59
977,778	41,74
978,16	41,42
978,541	41,51
978,922	42,18
979,304	41,86
979,685	41,84
980,066	41,52
980,447	41,42
980,828	41,61
981,209	41,58
981,59	41,45
981,97	41,63
982,351	41,53
982,732	41,95
983,112	42,1
983,493	41,77
983,873	41,53
984,253	41,25
984,633	41,81
985,013	42,03
985,393	41,94
985,773	41,23
986,153	41,78
986,533	41,81
986,912	42,22
987,292	42,12
987,671	41,8
988,051	42,44
988,43	41,52
988,809	41,67
989,188	41,81
989,567	41,83
989,946	41,8
990,325	41,81
990,704	42,44
991,083	41,78
991,461	42,3
991,84	42,22
992,218	41,71
992,597	42,11
992,975	41,63
993,353	41,79
993,732	41,76
994,11	42,24
994,488	42,05
994,866	41,57
995,243	41,99
995,621	42,4
995,999	42,08
996,376	41,99
996,754	42,39
997,131	42,34
997,509	41,82
997,886	41,77
998,263	42,3
998,64	42,24
999,017	41,9
999,394	42,03
999,771	42,3
1000,148	41,44
1000,524	41,97
1000,901	41,59
1001,277	42,44
1001,654	41,45
1002,03	42,36
1002,406	41,95
1002,783	41,9
1003,159	42,15
1003,535	42,75
1003,911	41,95
1004,286	42,74
1004,662	42,43
1005,038	42,28
1005,414	42,42
1005,789	42,27
1006,164	42,13
1006,54	42,49
1006,915	42,29
1007,29	41,72
1007,665	41,85
1008,04	42,25
1008,415	42,6
1008,79	41,9
1009,165	42,22
1009,54	42,35
1009,914	43,16
1010,289	42,08
1010,663	42,22
1011,038	42,72
1011,412	42,49
1011,786	42,67
1012,16	43,09
1012,535	42,39
1012,909	43,34
1013,282	42,76
1013,656	42,5
1014,03	42,94
1014,404	42,85
1014,777	41,95
1015,151	43,36
1015,524	43,44
1015,897	42,64
1016,271	43,21
1016,644	42,76
1017,017	42,92
1017,39	42,68
1017,763	42,51
1018,136	43,15
1018,508	43,01
1018,881	42,1
1019,254	43,08
1019,626	42,33
1019,999	42,59
1020,371	42,25
1020,743	42,64
1021,116	42,66
1021,488	43,52
1021,86	43,92
1022,232	43,18
1022,604	43,39
1022,975	44,08
1023,347	42,8
1023,719	44,03
1024,09	43,4
1024,462	42,95
1024,833	43,64
1025,204	43,33
1025,576	43,02
1025,947	42,86
1026,318	42,73
1026,689	44,66
1027,06	43,83
1027,431	44,07
1027,801	43,78
1028,172	44,01
1028,543	44,29
1028,913	44,35
1029,284	43,67
1029,654	43,76
1030,024	43,83
1030,394	44,56
1030,764	43,65
1031,135	43,8
1031,504	42,97
1031,874	43,17
1032,244	43,37
1032,614	43,26
1032,983	44,35
1033,353	43,88
1033,722	43,99
1034,092	44,2
1034,461	43,59
1034,83	43,54
1035,2	44,54
1035,569	45,26
1035,938	43,76
1036,307	44,51
1036,675	43,55
1037,044	44,83
1037,413	44,61
1037,781	45,08
1038,15	45,34
1038,518	44,44
1038,887	44,46
1039,255	44,85
1039,623	45,12
1039,991	44,2
1040,359	44,14
1040,727	44,18
1041,095	44,12
1041,463	44,52
1041,831	45
1042,198	44,09
1042,566	45,32
1042,933	45,07
1043,301	44,36
1043,668	44,37
1044,035	44,29
1044,402	46,03
1044,77	44,57
1045,137	44,86
1045,503	45,95
1045,87	44,59
1046,237	44,86
1046,604	45,22
1046,97	44,35
1047,337	44,67
1047,703	45,58
1048,07	44,66
1048,436	45,6
1048,802	45,66
1049,168	45,93
1049,534	45,12
1049,9	46,36
1050,266	45,99
1050,632	45,08
1050,998	46,07
1051,364	46,18
1051,729	45,93
1052,095	45,29
1052,46	45,27
1052,825	45,79
1053,191	46,08
1053,556	46,26
1053,921	45,14
1054,286	45,89
1054,651	45,99
1055,016	46,88
1055,381	45,93
1055,745	44,07
1056,11	46,22
1056,475	46,73
1056,839	46,09
1057,203	45,92
1057,568	46,05
1057,932	47,54
1058,296	46,62
1058,66	45,57
1059,024	46,65
1059,388	47,18
1059,752	46,1
1060,116	46,57
1060,48	48,52
1060,843	45,66
1061,207	47,16
1061,57	47,19
1061,934	47,32
1062,297	47,48
1062,66	46,7
1063,023	47,86
1063,386	49,01
1063,749	47,94
1064,112	46,59
1064,475	46,79
1064,838	47,56
1065,201	49,1
1065,563	46,17
1065,926	46,27
1066,288	47,31
1066,651	46,35
1067,013	47,91
1067,375	46,2
1067,737	49,26
1068,099	47,99
1068,461	48,13
1068,823	46,46
1069,185	46,13
1069,547	47,46
1069,909	44,11
1070,27	47,75
1070,632	47,57
1070,993	48,93
1071,355	48,08
1071,716	47,59
1072,077	49,36
1072,438	48,04
1072,799	48,3
1073,16	49,23
1073,521	48,24
1073,882	48,99
1074,243	48,69
1074,603	47,84
1074,964	48,6
1075,325	47,6
1075,685	46,66
1076,045	47,79
1076,406	47,95
1076,766	47,66
1077,126	48,35
1077,486	49,37
1077,846	48,76
1078,206	48,37
1078,566	47,69
1078,925	47,35
1079,285	48,17
1079,645	50,03
1080,004	47,29
1080,364	48,21
1080,723	47,86
1081,082	49,81
1081,442	47,11
1081,801	47,68
1082,16	48,95
1082,519	49,55
1082,878	49,39
1083,237	47,98
1083,595	50,24
1083,954	50,17
1084,313	47,62
1084,671	50,55
1085,03	49,58
1085,388	48,68
1085,746	50,18
1086,104	47,08
1086,463	49,46
1086,821	48,91
1087,179	50,75
1087,537	50,04
1087,894	51,09
1088,252	51,07
1088,61	50,38
1088,967	50
1089,325	51,16
1089,682	51,34
1090,04	53,46
1090,397	51,49
1090,754	49,58
1091,111	49,2
1091,469	52,65
1091,826	50,42
1092,182	51,71
1092,539	50,56
1092,896	50,89
1093,253	51,4
1093,609	49,73
1093,966	52,45
1094,322	50,49
1094,679	51,33
1095,035	53,01
1095,391	49,59
1095,748	50,89
1096,104	52,5
1096,46	53,48
1096,816	52,03
1097,171	53,53
1097,527	51,6
1097,883	54,98
1098,239	51,51
1098,594	50,78
1098,95	53,04
1099,305	51,7
1099,66	52,06
1100,016	50,67
1100,371	53,32
1100,726	52,5
1101,081	50,69
1101,436	50,46
1101,791	52,02
1102,146	51,92
1102,5	53,41
1102,855	51,93
1103,21	52,15
1103,564	54,26
1103,918	52,54
1104,273	54,95
1104,627	51,39
1104,981	50,35
1105,335	54,05
1105,69	59,25
1106,043	54,13
1106,397	52,22
1106,751	54,61
1107,105	55,64
1107,459	55,23
1107,812	55,39
1108,166	56,72
1108,519	54,06
1108,873	56,21
1109,226	59,49
1109,579	55,7
1109,932	56,78
1110,285	56,4
1110,638	60,91
1110,991	57,19
1111,344	51,83
1111,697	55,72
1112,05	57,31
1112,402	60,45
1112,755	56,34
1113,107	60,56
1113,46	60,08
1113,812	60,92
1114,164	62,27
1114,517	59,54
1114,869	151,85
1115,221	150,88
1115,573	145,45
1115,924	167,92
