Data from F5__Relative__1__00107.txt Node

Date: Wed Jan 31 18:35:16 CET 2024
User: diatiterra
Spectrometer: HDX00911
Trigger mode: 0
Integration Time (sec): 6,000000E-3
Scans to average: 2
Nonlinearity correction enabled: false
Boxcar width: 0
Storing dark spectrum: false
XAxis mode: Wavelengths
Number of Pixels in Spectrum: 2068
>>>>>Begin Spectral Data<<<<<
194,468	255,66
195,025	163,64
195,581	240,24
196,138	256,41
196,694	157,41
197,251	130,81
197,807	112,99
198,363	112
198,919	95,86
199,474	116,54
200,03	111,48
200,586	125,45
201,141	94,84
201,696	97,99
202,251	106,44
202,806	98,95
203,361	115,19
203,916	101,74
204,471	103,28
205,025	113,31
205,58	106,43
206,134	119,2
206,688	107,69
207,242	126,11
207,796	101,5
208,35	105,8
208,904	106,55
209,457	91,67
210,011	98,94
210,564	105,63
211,117	106,02
211,67	111,57
212,223	98,63
212,776	119,76
213,329	100,33
213,881	132,84
214,434	100
214,986	116,53
215,538	112,87
216,09	100,35
216,642	119,42
217,194	118,56
217,746	115,79
218,297	110,31
218,849	110,66
219,4	124,79
219,951	116,94
220,502	102,7
221,053	118,7
221,604	105,37
222,155	115,08
222,705	98,9
223,256	117,16
223,806	117,32
224,356	106,92
224,906	125
225,456	124,81
226,006	104,37
226,556	99,35
227,106	115,32
227,655	95,49
228,204	117,08
228,754	103,87
229,303	106,79
229,852	97,84
230,401	105,6
230,949	106,83
231,498	98,94
232,047	92,21
232,595	103,45
233,143	120,08
233,691	103,88
234,239	101,07
234,787	109,2
235,335	111,94
235,883	100,7
236,43	107,58
236,978	114,23
237,525	109,12
238,072	100,35
238,619	109,09
239,166	96,45
239,713	106,2
240,26	97,14
240,806	108,68
241,353	110,71
241,899	110,14
242,445	104,74
242,991	112,21
243,537	107,95
244,083	114,89
244,629	110,38
245,174	123,89
245,72	103,33
246,265	106,35
246,81	104,4
247,355	119,84
247,9	100,75
248,445	112,7
248,99	107,2
249,534	121,3
250,079	99,25
250,623	103,33
251,168	113,64
251,712	103,91
252,256	118,44
252,8	105
253,343	101,07
253,887	108,06
254,43	101,53
254,974	112,98
255,517	99,66
256,06	114,23
256,603	103,7
257,146	114,73
257,689	123,62
258,232	120,34
258,774	111,35
259,317	124,58
259,859	126,15
260,401	117,05
260,943	101,77
261,485	105,32
262,027	108,8
262,569	113,43
263,11	104,62
263,652	124,8
264,193	117,36
264,734	110,22
265,275	119,26
265,816	105,34
266,357	124,42
266,898	116,15
267,438	115,75
267,979	107,91
268,519	111,94
269,059	126,64
269,6	114,66
270,14	129,03
270,68	110,14
271,219	122,46
271,759	107,89
272,298	109,4
272,838	115,38
273,377	111,9
273,916	106,12
274,455	114,96
274,994	110,8
275,533	104,35
276,072	114,23
276,61	101,09
277,149	124,17
277,687	111,65
278,225	103,67
278,763	133,77
279,301	119,58
279,839	109,68
280,377	125,41
280,914	105,24
281,452	131,62
281,989	112,81
282,526	122,44
283,064	120,17
283,601	100,34
284,137	111,16
284,674	125
285,211	130,26
285,747	106,82
286,284	132,43
286,82	111,98
287,356	100,66
287,892	123,64
288,428	112,4
288,964	120,17
289,5	115,29
290,035	118,4
290,571	119,33
291,106	121,14
291,641	131,7
292,176	114,45
292,711	115,85
293,246	105,77
293,781	120,25
294,315	98,24
294,85	127,31
295,384	110,66
295,918	112,13
296,453	105,97
296,987	122,31
297,52	116,53
298,054	107,63
298,588	115
299,121	106,72
299,655	105,47
300,188	108,75
300,721	114,63
301,254	110,48
301,787	107,42
302,32	126,83
302,853	107,6
303,385	105,36
303,918	104,26
304,45	115,77
304,982	105,32
305,514	108,53
306,046	104,55
306,578	106,98
307,11	102,33
307,641	115,95
308,173	119,42
308,704	104,55
309,236	98,87
309,767	101,06
310,298	108,47
310,829	118,7
311,359	114,11
311,89	112,61
312,421	118,02
312,951	113,41
313,481	106,55
314,012	102,99
314,542	115,25
315,072	101,53
315,601	112,8
316,131	115,75
316,661	109,17
317,19	99,26
317,72	114,46
318,249	114,68
318,778	108,59
319,307	107,42
319,836	116,37
320,365	118,7
320,893	113,22
321,422	116,67
321,95	115,41
322,479	105,34
323,007	122,27
323,535	108,57
324,063	110
324,591	106,4
325,118	106,2
325,646	119,33
326,173	106,67
326,701	121,95
327,228	115,52
327,755	105,64
328,282	111,07
328,809	113,98
329,336	112,99
329,862	101,47
330,389	100,78
330,915	108,27
331,441	101,91
331,968	115,77
332,494	104,17
333,02	110
333,545	99,25
334,071	117,77
334,597	94,72
335,122	96,67
335,648	115,95
336,173	104,17
336,698	94,62
337,223	108,09
337,748	98,61
338,272	95,21
338,797	100,36
339,322	94,53
339,846	90,44
340,37	113,31
340,894	97,92
341,419	104,89
341,942	96,15
342,466	93,91
342,99	88,26
343,514	95,77
344,037	85,13
344,56	112,22
345,084	96,23
345,607	95,49
346,13	103,17
346,653	101
347,175	96,47
347,698	91,82
348,221	96,79
348,743	92,24
349,265	93,17
349,787	81,29
350,309	90,19
350,831	86,42
351,353	93,6
351,875	85,67
352,397	104,55
352,918	93,75
353,439	94,7
353,961	79,36
354,482	91,52
355,003	91,57
355,524	86,67
356,044	84,66
356,565	93,67
357,086	90,11
357,606	76,92
358,126	80,05
358,646	76,53
359,167	88,11
359,687	88,98
360,206	84,7
360,726	77,96
361,246	84,57
361,765	83,9
362,285	78,5
362,804	83,68
363,323	72,68
363,842	79,4
364,361	80,85
364,88	79,06
365,398	74,24
365,917	77,59
366,435	79,95
366,954	80,13
367,472	79,48
367,99	80,57
368,508	71,26
369,026	82,27
369,544	75,88
370,061	71,85
370,579	72,95
371,096	80,96
371,613	73,71
372,131	65,55
372,648	64,76
373,165	70,9
373,681	70,04
374,198	71,88
374,715	69,17
375,231	73,11
375,747	66,38
376,264	60,88
376,78	64,21
377,296	71
377,812	61,96
378,327	64,4
378,843	68,6
379,359	62,09
379,874	66,61
380,389	60,41
380,905	58,36
381,42	58,97
381,935	58,99
382,449	60,32
382,964	59
383,479	58,33
383,993	56,93
384,508	55,91
385,022	55,05
385,536	53,95
386,05	56,04
386,564	55,22
387,078	49,64
387,592	52,19
388,105	55,44
388,619	48,44
389,132	46,85
389,645	52,99
390,158	45,71
390,671	49,8
391,184	46,76
391,697	49
392,21	42,9
392,722	44,94
393,235	44,47
393,747	46,21
394,259	44,19
394,771	41,77
395,283	40,48
395,795	40,21
396,307	42,34
396,818	41,75
397,33	40,14
397,841	40,53
398,353	38,84
398,864	38,06
399,375	38,73
399,886	36,68
400,397	36,26
400,907	36,61
401,418	33,99
401,928	32,75
402,439	35,41
402,949	30,88
403,459	33,22
403,969	32,07
404,479	31,01
404,989	29,31
405,498	29,37
406,008	29,62
406,517	27,21
407,027	25,32
407,536	24,27
408,045	24,53
408,554	23,63
409,063	22,78
409,572	21,88
410,08	22,98
410,589	20,05
411,097	20,17
411,606	19,74
412,114	20,11
412,622	19
413,13	19,18
413,638	18,55
414,145	16,69
414,653	17,12
415,16	16,55
415,668	16,17
416,175	15,46
416,682	15,28
417,189	13,8
417,696	15,2
418,203	14,15
418,71	14,91
419,216	13,55
419,723	13,33
420,229	13,76
420,735	13,11
421,242	12,78
421,748	13,16
422,254	12,83
422,759	12,52
423,265	12,4
423,771	12,72
424,276	12,35
424,781	11,61
425,287	12,44
425,792	12,4
426,297	12
426,802	11,48
427,306	11,78
427,811	11,36
428,316	11,68
428,82	11,43
429,324	11,38
429,829	11,11
430,333	10,85
430,837	11,28
431,34	11,15
431,844	11,29
432,348	11,03
432,851	10,53
433,355	10,73
433,858	10,94
434,361	10,52
434,864	10,72
435,367	10,5
435,87	11,51
436,373	10,95
436,876	10,66
437,378	10,3
437,88	10,34
438,383	10,51
438,885	10,33
439,387	10,32
439,889	10,53
440,391	10,64
440,892	10,51
441,394	10,42
441,896	10,23
442,397	10,02
442,898	9,63
443,399	10,29
443,9	10,2
444,401	9,82
444,902	10,04
445,403	10,03
445,903	10,06
446,404	10,45
446,904	10,28
447,405	10,14
447,905	9,84
448,405	10,26
448,905	10,43
449,404	10,62
449,904	10,08
450,404	10,06
450,903	10,64
451,403	10,55
451,902	10,59
452,401	10,34
452,9	10,34
453,399	10,07
453,898	10,15
454,396	10,35
454,895	10,08
455,393	10,04
455,892	10,1
456,39	10,4
456,888	10,28
457,386	9,98
457,884	10,37
458,382	10,83
458,879	10,17
459,377	10,61
459,874	9,93
460,372	10,31
460,869	10,09
461,366	10,15
461,863	10,65
462,36	10,54
462,857	10,58
463,353	10
463,85	10,12
464,346	10,17
464,843	10,15
465,339	9,75
465,835	10,49
466,331	10,37
466,827	10,14
467,323	10,36
467,818	10,33
468,314	10,41
468,809	10,17
469,305	10,13
469,8	9,91
470,295	10,18
470,79	10,36
471,285	10,17
471,78	9,71
472,274	9,78
472,769	10,12
473,263	9,94
473,758	10,38
474,252	9,76
474,746	10,23
475,24	10,42
475,734	10,16
476,228	10,27
476,721	10
477,215	10,3
477,708	10,19
478,202	10,03
478,695	10,35
479,188	10,05
479,681	10,2
480,174	10,11
480,667	10,42
481,159	10,5
481,652	10,49
482,144	10,41
482,637	10,48
483,129	10
483,621	10,19
484,113	10,87
484,605	10,3
485,097	10,52
485,588	10,45
486,08	10,54
486,571	10,31
487,063	10,7
487,554	10,58
488,045	10,4
488,536	10,63
489,027	10,6
489,518	10,84
490,008	10,72
490,499	11,01
490,989	11,08
491,48	10,73
491,97	10,74
492,46	11,05
492,95	10,92
493,44	11,25
493,93	11,25
494,419	11,06
494,909	11,56
495,398	11,64
495,888	11,35
496,377	11,65
496,866	12,22
497,355	11,55
497,844	11,75
498,333	12,21
498,821	12,01
499,31	12,39
499,798	12,64
500,287	12,66
500,775	12,94
501,263	12,84
501,751	12,89
502,239	13,18
502,727	13,25
503,215	13,61
503,702	13,93
504,19	13,68
504,677	14,28
505,164	14,44
505,651	14,75
506,139	14,77
506,625	15,3
507,112	15,58
507,599	15,58
508,086	15,83
508,572	16,12
509,058	16,1
509,545	16,11
510,031	17
510,517	17,1
511,003	16,86
511,489	17,93
511,974	17,99
512,46	18,06
512,946	18,4
513,431	18,45
513,916	19,27
514,401	19,28
514,887	19,34
515,371	20,52
515,856	20,84
516,341	20,41
516,826	21,29
517,31	21,23
517,795	21,9
518,279	21,95
518,763	22,66
519,247	22,58
519,731	23,45
520,215	23,53
520,699	23,7
521,182	24,27
521,666	24,42
522,149	25,11
522,633	25,51
523,116	25,67
523,599	25,83
524,082	25,91
524,565	26,44
525,048	26,88
525,53	26,61
526,013	27,74
526,495	28,3
526,978	28,2
527,46	28,08
527,942	28,31
528,424	28,73
528,906	28,88
529,388	29,19
529,87	30,36
530,351	29,48
530,833	30,09
531,314	30,13
531,795	30,01
532,277	30,58
532,758	30,28
533,238	30,53
533,719	30,8
534,2	30,29
534,681	31,15
535,161	31,5
535,642	31,7
536,122	31,2
536,602	31,63
537,082	31,28
537,562	31,8
538,042	31,41
538,522	31,6
539,001	32
539,481	31,85
539,96	31,76
540,44	31,86
540,919	31,66
541,398	32,16
541,877	31,96
542,356	32,28
542,835	32,17
543,313	32,17
543,792	32,59
544,27	32,62
544,749	32,43
545,227	32,45
545,705	32,9
546,183	33,09
546,661	32,4
547,139	32,52
547,616	32,42
548,094	32,69
548,571	33,06
549,049	32,63
549,526	32,73
550,003	32,7
550,48	32,71
550,957	32,89
551,434	32,82
551,911	32,94
552,387	32,77
552,864	32,97
553,34	33,11
553,817	32,82
554,293	32,75
554,769	33,02
555,245	32,63
555,721	33,05
556,197	32,79
556,672	32,92
557,148	32,92
557,623	32,67
558,099	32,86
558,574	33,12
559,049	32,32
559,524	33,04
559,999	32,7
560,474	32,51
560,948	32,47
561,423	32,35
561,897	32,17
562,372	32,33
562,846	32,37
563,32	32,19
563,794	31,52
564,268	31,92
564,742	31,58
565,216	31,51
565,69	31,24
566,163	31,33
566,636	30,99
567,11	31,07
567,583	30,52
568,056	30,91
568,529	30,55
569,002	30,44
569,475	30,21
569,947	29,56
570,42	30,07
570,892	29,61
571,365	29,33
571,837	29,36
572,309	29,06
572,781	28,98
573,253	28,87
573,725	28,49
574,197	28,21
574,668	28,3
575,14	27,64
575,611	27,58
576,082	27,26
576,554	27,27
577,025	27,49
577,496	27,04
577,967	26,79
578,437	26,56
578,908	26,94
579,379	26,55
579,849	26,12
580,319	25,92
580,79	26,18
581,26	25,9
581,73	25,39
582,2	25,76
582,669	25,63
583,139	25,1
583,609	25,47
584,078	25,24
584,548	25,22
585,017	25,13
585,486	24,87
585,955	24,73
586,424	24,66
586,893	24,58
587,362	24,35
587,83	24,34
588,299	24
588,767	24,27
589,236	24,09
589,704	23,68
590,172	23,63
590,64	23,82
591,108	23,66
591,576	23,6
592,043	23,35
592,511	23,25
592,978	23,38
593,446	23,39
593,913	23,29
594,38	23,15
594,847	23,18
595,314	23,1
595,781	22,76
596,248	22,91
596,715	23,12
597,181	22,69
597,647	22,92
598,114	22,74
598,58	22,61
599,046	22,8
599,512	22,75
599,978	22,46
600,444	22,56
600,91	22,71
601,375	22,64
601,841	22,6
602,306	22,48
602,771	22,2
603,236	22,44
603,702	22,44
604,167	22,36
604,631	21,94
605,096	22,07
605,561	21,96
606,025	21,96
606,49	21,94
606,954	21,8
607,418	21,54
607,882	21,63
608,347	21,48
608,81	21,38
609,274	21,48
609,738	21,1
610,202	20,96
610,665	20,85
611,128	20,76
611,592	20,47
612,055	20,31
612,518	20,68
612,981	20,56
613,444	20,24
613,907	20,25
614,369	20,03
614,832	19,97
615,294	19,81
615,757	20,03
616,219	19,68
616,681	19,55
617,143	19,49
617,605	19,33
618,067	19,41
618,529	19,16
618,99	19,18
619,452	19,1
619,913	19
620,375	18,97
620,836	18,86
621,297	18,95
621,758	18,85
622,219	18,75
622,68	18,69
623,14	18,58
623,601	18,69
624,061	18,69
624,522	18,41
624,982	18,68
625,442	18,43
625,902	18,54
626,362	18,32
626,822	18,2
627,282	18,38
627,742	18,21
628,201	18,27
628,661	18,15
629,12	18,2
629,579	18,06
630,038	18,35
630,497	18,33
630,956	18,25
631,415	18,02
631,874	17,95
632,332	17,96
632,791	17,76
633,249	18,04
633,708	17,86
634,166	17,63
634,624	17,62
635,082	17,64
635,54	17,54
635,998	17,11
636,455	17,26
636,913	17,05
637,37	16,88
637,828	16,83
638,285	16,67
638,742	16,53
639,199	16,71
639,656	16,35
640,113	16,22
640,57	15,83
641,027	15,78
641,483	15,73
641,94	15,49
642,396	15,51
642,852	15,34
643,309	14,99
643,765	14,86
644,221	14,72
644,676	14,55
645,132	14,51
645,588	14,36
646,043	14,14
646,499	14,01
646,954	13,71
647,409	13,82
647,864	13,56
648,319	13,29
648,774	13,39
649,229	13,21
649,684	13,09
650,139	12,92
650,593	12,84
651,047	12,83
651,502	12,74
651,956	12,62
652,41	12,76
652,864	12,49
653,318	12,63
653,772	12,38
654,225	12,45
654,679	12,43
655,133	12,41
655,586	12,31
656,039	12,2
656,492	12,25
656,946	12,15
657,399	11,95
657,851	11,91
658,304	11,84
658,757	11,77
659,209	11,47
659,662	11,61
660,114	11,4
660,567	11,51
661,019	11,32
661,471	11,15
661,923	11
662,375	10,9
662,826	10,96
663,278	10,89
663,73	10,68
664,181	10,6
664,632	10,55
665,084	10,59
665,535	10,47
665,986	10,44
666,437	10,37
666,888	10,35
667,338	10,35
667,789	10,52
668,24	10,25
668,69	10,2
669,14	10,25
669,591	10,23
670,041	10,15
670,491	10,33
670,941	10,33
671,391	10,46
671,84	10,32
672,29	10,46
672,74	10,43
673,189	10,71
673,638	10,6
674,088	10,75
674,537	10,72
674,986	10,92
675,435	10,85
675,883	11,17
676,332	11,17
676,781	11,23
677,229	11,41
677,678	11,45
678,126	11,73
678,574	11,91
679,022	11,85
679,47	12,21
679,918	12,12
680,366	12,32
680,814	12,48
681,261	12,65
681,709	12,67
682,156	12,87
682,604	13,09
683,051	13,44
683,498	13,55
683,945	13,56
684,392	13,65
684,839	13,95
685,286	14,18
685,732	14,27
686,179	14,61
686,625	14,68
687,071	14,92
687,518	15,33
687,964	15,46
688,41	15,84
688,856	16,09
689,301	16,49
689,747	16,91
690,193	17,29
690,638	17,61
691,084	18,1
691,529	18,59
691,974	19,32
692,419	19,85
692,864	20,47
693,309	20,91
693,754	21,53
694,199	22,17
694,643	22,61
695,088	23,36
695,532	23,98
695,977	24,56
696,421	25,15
696,865	25,34
697,309	26,31
697,753	26,76
698,197	27,5
698,64	28,01
699,084	28,58
699,527	29,02
699,971	29,47
700,414	30,16
700,857	30,42
701,3	31,22
701,743	31,62
702,186	32,13
702,629	32,54
703,072	33,08
703,515	33,49
703,957	33,7
704,399	34,35
704,842	34,8
705,284	35,23
705,726	35,51
706,168	35,91
706,61	36,64
707,052	36,56
707,494	37,24
707,935	37,33
708,377	37,62
708,818	38,03
709,26	38,51
709,701	38,54
710,142	39,31
710,583	39,32
711,024	39,61
711,465	39,96
711,905	40,02
712,346	40,39
712,787	40,73
713,227	41,18
713,667	41,29
714,108	41,55
714,548	41,77
714,988	42,13
715,428	42,74
715,868	42,99
716,307	42,78
716,747	42,78
717,186	43,25
717,626	43,3
718,065	43,93
718,504	43,81
718,944	44,33
719,383	44,59
719,822	44,56
720,261	44,42
720,699	44,66
721,138	44,65
721,576	44,92
722,015	45,41
722,453	45,37
722,892	45,62
723,33	45,94
723,768	45,95
724,206	46,2
724,644	46,21
725,081	46,48
725,519	46,44
725,957	46,55
726,394	46,59
726,832	46,82
727,269	46,86
727,706	46,89
728,143	46,78
728,58	47,38
729,017	47,21
729,454	47,09
729,89	47,54
730,327	47,15
730,764	47,68
731,2	47,44
731,636	47,53
732,072	48,01
732,509	47,83
732,945	48,12
733,38	47,44
733,816	48,22
734,252	48,07
734,688	48
735,123	47,96
735,559	48,03
735,994	48,09
736,429	47,94
736,864	48,21
737,299	48,04
737,734	48,5
738,169	48,19
738,604	48,14
739,038	47,93
739,473	48,44
739,907	48,44
740,342	48,03
740,776	48,26
741,21	48,37
741,644	48,21
742,078	48,28
742,512	48,5
742,946	48,21
743,379	47,97
743,813	47,75
744,246	47,96
744,68	48,08
745,113	47,86
745,546	48,01
745,979	48,53
746,412	47,88
746,845	47,97
747,278	47,9
747,711	47,73
748,143	47,65
748,576	48,11
749,008	48,18
749,441	47,81
749,873	47,6
750,305	47,8
750,737	47,56
751,169	47,41
751,601	47,27
752,032	47,26
752,464	47,5
752,896	47,15
753,327	47,22
753,758	47,36
754,19	47,38
754,621	47
755,052	47,13
755,483	47,31
755,914	47,14
756,344	46,95
756,775	47,2
757,206	46,95
757,636	47,09
758,066	47
758,497	47
758,927	47,37
759,357	47,18
759,787	46,87
760,217	46,64
760,647	46,38
761,076	46,7
761,506	46,34
761,935	46,33
762,365	46,58
762,794	46,37
763,223	46,69
763,653	46,64
764,082	46,25
764,51	46,57
764,939	46,4
765,368	46,37
765,797	46,4
766,225	46,34
766,654	46,19
767,082	45,97
767,51	46,08
767,938	45,98
768,367	46
768,795	45,87
769,222	46,11
769,65	46,42
770,078	45,55
770,505	46
770,933	45,73
771,36	46,09
771,788	45,77
772,215	45,93
772,642	46,1
773,069	45,74
773,496	45,66
773,923	45,75
774,349	45,65
774,776	45,88
775,203	45,41
775,629	45,42
776,055	45,32
776,482	45,35
776,908	45,3
777,334	45,41
777,76	45,47
778,186	45,41
778,611	45,56
779,037	45,69
779,463	45,43
779,888	45,31
780,314	45,38
780,739	45,47
781,164	45,59
781,589	45,11
782,014	45,32
782,439	45,43
782,864	45,4
783,289	45,55
783,713	44,88
784,138	45,39
784,562	45,05
784,987	45,11
785,411	45,13
785,835	45,14
786,259	45,25
786,683	45,48
787,107	45,05
787,531	45,11
787,954	45,12
788,378	45,01
788,802	45,19
789,225	44,88
789,648	45,28
790,071	44,53
790,495	45,09
790,918	45,31
791,34	45,2
791,763	45,02
792,186	45,02
792,609	44,79
793,031	44,74
793,454	45,02
793,876	45,26
794,298	44,79
794,721	44,84
795,143	44,85
795,565	44,61
795,986	44,8
796,408	44,99
796,83	44,56
797,252	44,73
797,673	45,2
798,094	45,15
798,516	44,88
798,937	45,2
799,358	44,3
799,779	44,72
800,2	44,84
800,621	44,6
801,042	44,91
801,462	44,87
801,883	44,59
802,303	44,53
802,724	44,74
803,144	44,97
803,564	44,77
803,984	44,85
804,404	44,76
804,824	45,02
805,244	44,66
805,664	44,92
806,084	44,84
806,503	44,81
806,923	44,75
807,342	44,82
807,761	44,64
808,18	44,4
808,599	44,36
809,018	44,79
809,437	44,62
809,856	44,44
810,275	44,82
810,693	44,73
811,112	44,77
811,53	44,71
811,949	44,51
812,367	44,6
812,785	44,56
813,203	44,68
813,621	44,99
814,039	44,54
814,457	44,52
814,874	44,58
815,292	44,53
815,709	44,31
816,127	44,4
816,544	44,39
816,961	44,58
817,378	44,89
817,795	44,62
818,212	44,58
818,629	44,76
819,046	44,28
819,462	44,35
819,879	44,21
820,295	44,29
820,712	44,49
821,128	44,48
821,544	44,7
821,96	44,53
822,376	44,4
822,792	44,37
823,208	44,36
823,624	44,6
824,039	44,19
824,455	44,62
824,87	44,31
825,286	44,87
825,701	44,44
826,116	44,43
826,531	44,4
826,946	44,11
827,361	44,17
827,776	44,38
828,19	44,16
828,605	44,04
829,02	44,33
829,434	44,22
829,848	44,53
830,263	44,55
830,677	44,26
831,091	44,2
831,505	44,14
831,919	44,35
832,332	44,11
832,746	44,33
833,16	43,89
833,573	43,99
833,987	44,67
834,4	44,12
834,813	43,7
835,226	44,01
835,639	44,11
836,052	43,88
836,465	44,22
836,878	44,39
837,29	44,23
837,703	44,14
838,116	44,4
838,528	44,08
838,94	44,5
839,352	44,21
839,765	44,26
840,177	44,24
840,589	43,79
841	43,88
841,412	44,12
841,824	43,98
842,235	44,08
842,647	43,93
843,058	44,38
843,47	44,34
843,881	44,1
844,292	43,99
844,703	44,37
845,114	43,92
845,525	44,29
845,935	44,17
846,346	44,11
846,757	44,14
847,167	43,79
847,577	44,13
847,988	43,99
848,398	43,81
848,808	44,4
849,218	44,06
849,628	43,99
850,038	43,97
850,448	44,02
850,857	44,13
851,267	44,05
851,676	44,39
852,086	43,95
852,495	43,82
852,904	43,88
853,313	43,51
853,722	44,08
854,131	44,14
854,54	43,74
854,949	43,61
855,357	43,59
855,766	43,92
856,174	43,62
856,583	43,86
856,991	43,66
857,399	44,17
857,807	43,83
858,215	43,99
858,623	44,4
859,031	43,71
859,439	44,45
859,846	43,77
860,254	43,92
860,661	44,56
861,069	44,05
861,476	43,96
861,883	43,85
862,29	43,55
862,697	43,84
863,104	43,91
863,511	43,36
863,918	43,64
864,325	43,81
864,731	43,61
865,138	43,45
865,544	43,92
865,95	43,85
866,357	43,54
866,763	44,18
867,169	44,17
867,575	43,91
867,98	43,98
868,386	43,6
868,792	44,11
869,197	43,74
869,603	43,9
870,008	43,96
870,414	43,92
870,819	43,42
871,224	43,62
871,629	43,64
872,034	43,3
872,439	43,18
872,844	43,61
873,248	43,77
873,653	43,71
874,057	43,41
874,462	44,19
874,866	44,12
875,27	43,92
875,674	43,77
876,078	43,57
876,482	43,71
876,886	43,36
877,29	43,49
877,694	43,97
878,097	43,23
878,501	43,42
878,904	43,46
879,308	43,08
879,711	43,64
880,114	43,45
880,517	43,71
880,92	44,12
881,323	43,83
881,726	43,72
882,128	43,5
882,531	43,62
882,934	43,43
883,336	43,81
883,738	43,69
884,141	43,56
884,543	43,46
884,945	43,86
885,347	43,7
885,749	43,53
886,151	43,62
886,552	43,57
886,954	43,46
887,355	43,86
887,757	43,03
888,158	43,64
888,56	43,6
888,961	43,84
889,362	43,46
889,763	43,49
890,164	43,9
890,565	43,66
890,965	43,69
891,366	44,02
891,767	44,04
892,167	43,76
892,567	43,62
892,968	43,6
893,368	43,62
893,768	43,46
894,168	43,4
894,568	43,39
894,968	43,28
895,368	43,41
895,767	43,57
896,167	43,55
896,566	43,26
896,966	43,55
897,365	43,68
897,764	43,72
898,164	43,78
898,563	43,92
898,962	43,32
899,361	43,83
899,759	43,69
900,158	43,11
900,557	43,25
900,955	43,44
901,354	43,55
901,752	43,64
902,15	43,17
902,548	43,34
902,947	43,35
903,345	43,91
903,742	43,67
904,14	43,97
904,538	43,41
904,936	43,89
905,333	43,51
905,731	43,41
906,128	43,19
906,525	43,85
906,923	43,94
907,32	43,99
907,717	43,61
908,114	43,74
908,511	43,63
908,907	44,28
909,304	43,8
909,701	43,63
910,097	43,81
910,494	43,41
910,89	43,46
911,286	43,51
911,682	43,79
912,078	43,92
912,474	43,86
912,87	43,58
913,266	43,65
913,662	43,38
914,058	43,39
914,453	43,34
914,849	43,49
915,244	43,53
915,639	43,74
916,034	43,27
916,43	43,98
916,825	43,76
917,22	43,81
917,614	44,04
918,009	43,57
918,404	43,62
918,798	43,14
919,193	43,61
919,587	43,59
919,982	43,49
920,376	43,31
920,77	43,4
921,164	43,5
921,558	43,58
921,952	43,36
922,346	43,24
922,74	43,24
923,133	43,91
923,527	43,73
923,92	43,57
924,314	43,21
924,707	43,5
925,1	43,59
925,493	43,61
925,886	43,1
926,279	43,11
926,672	43,8
927,065	43,11
927,457	43,41
927,85	43,33
928,243	43,43
928,635	43,68
929,027	43,63
929,42	43,74
929,812	43,57
930,204	43,75
930,596	43,84
930,988	43,38
931,379	43,41
931,771	43,77
932,163	43,24
932,554	42,97
932,946	43,5
933,337	43,34
933,729	43,96
934,12	43,53
934,511	43,71
934,902	44
935,293	43,06
935,684	43,67
936,075	43,81
936,465	43,63
936,856	43,69
937,246	44,7
937,637	43,53
938,027	43,9
938,417	43,14
938,808	43,74
939,198	42,56
939,588	44,35
939,978	43,87
940,368	43,79
940,757	44,07
941,147	43,62
941,537	43,64
941,926	44,65
942,315	44,91
942,705	44,33
943,094	43,71
943,483	43,97
943,872	44,08
944,261	44,25
944,65	44,02
945,039	43,74
945,428	44,27
945,816	44,23
946,205	44,35
946,593	43,95
946,982	43,83
947,37	44,17
947,758	43,95
948,146	44,31
948,534	44,37
948,922	43,56
949,31	43,23
949,698	44,38
950,086	44
950,473	42,66
950,861	44,2
951,248	43,04
951,636	42,96
952,023	43,42
952,41	43,64
952,797	43,35
953,184	43,67
953,571	44,17
953,958	43,35
954,345	43,34
954,731	43,47
955,118	43,36
955,505	43,19
955,891	43,62
956,277	43,68
956,664	43,38
957,05	42,98
957,436	43,14
957,822	42,75
958,208	42,92
958,594	43,29
958,979	43,14
959,365	42,97
959,751	43,27
960,136	43,32
960,522	42,88
960,907	43,04
961,292	42,89
961,677	43,92
962,062	43,31
962,447	43,13
962,832	43,28
963,217	43,79
963,602	43,43
963,986	43,52
964,371	42,79
964,756	42,98
965,14	42,86
965,524	43,86
965,908	43,16
966,293	42,48
966,677	42,67
967,061	43,92
967,445	42,68
967,828	42,95
968,212	42,93
968,596	42,94
968,979	43,68
969,363	43,73
969,746	43,4
970,129	43,24
970,513	43,05
970,896	43,12
971,279	43,21
971,662	43,53
972,045	43,06
972,428	44,21
972,81	43,33
973,193	43,51
973,575	43,09
973,958	42,44
974,34	43,41
974,723	43
975,105	42,88
975,487	43,12
975,869	43,06
976,251	43,59
976,633	43,22
977,015	43,51
977,396	43,24
977,778	43,51
978,16	42,92
978,541	42,91
978,922	43,25
979,304	43,24
979,685	43,77
980,066	42,95
980,447	43,06
980,828	43,78
981,209	43,3
981,59	43,34
981,97	43,11
982,351	43,14
982,732	43,53
983,112	43,73
983,493	43,4
983,873	43,35
984,253	42,96
984,633	43,27
985,013	43,13
985,393	43,57
985,773	43,42
986,153	43,37
986,533	43,66
986,912	43,93
987,292	44,07
987,671	43,87
988,051	44,12
988,43	43,64
988,809	43,06
989,188	43,42
989,567	43,67
989,946	43,76
990,325	43,36
990,704	43,71
991,083	43,62
991,461	43,81
991,84	43,64
992,218	43,54
992,597	43,98
992,975	43,86
993,353	43,47
993,732	43,55
994,11	44,14
994,488	44,28
994,866	43,38
995,243	44,11
995,621	44,4
995,999	43,5
996,376	43,91
996,754	43,72
997,131	43,62
997,509	43,8
997,886	43,62
998,263	43,96
998,64	43,29
999,017	43,1
999,394	43,38
999,771	44,42
1000,148	43,19
1000,524	43,12
1000,901	43,71
1001,277	43,84
1001,654	44,52
1002,03	44,57
1002,406	44,5
1002,783	43,68
1003,159	44,09
1003,535	44,32
1003,911	44,45
1004,286	44,3
1004,662	43,75
1005,038	44,01
1005,414	45,06
1005,789	43,98
1006,164	44,17
1006,54	44,31
1006,915	44,49
1007,29	44,12
1007,665	44,08
1008,04	43,55
1008,415	44,37
1008,79	44,52
1009,165	43,74
1009,54	44,16
1009,914	44,42
1010,289	43,61
1010,663	44,47
1011,038	44
1011,412	44,47
1011,786	43,57
1012,16	44,55
1012,535	43,72
1012,909	44,57
1013,282	44,97
1013,656	43,88
1014,03	43,78
1014,404	43,93
1014,777	44,07
1015,151	44,12
1015,524	44,75
1015,897	43,84
1016,271	44,6
1016,644	44,56
1017,017	44,27
1017,39	44,16
1017,763	44,65
1018,136	44,25
1018,508	44,07
1018,881	44,08
1019,254	44,21
1019,626	44,19
1019,999	44,35
1020,371	44,28
1020,743	44,41
1021,116	44,54
1021,488	44,93
1021,86	45,43
1022,232	44,7
1022,604	44,63
1022,975	45,26
1023,347	44,88
1023,719	44,44
1024,09	45,56
1024,462	44,63
1024,833	45,8
1025,204	45,55
1025,576	44,92
1025,947	44,96
1026,318	45,31
1026,689	45,81
1027,06	45,93
1027,431	45,28
1027,801	45,16
1028,172	45,29
1028,543	45,78
1028,913	45,87
1029,284	45,41
1029,654	45,26
1030,024	44,78
1030,394	44,68
1030,764	45,3
1031,135	45,48
1031,504	44,68
1031,874	44,91
1032,244	44,4
1032,614	45,59
1032,983	45,71
1033,353	44,99
1033,722	45,82
1034,092	46,04
1034,461	44,31
1034,83	44,98
1035,2	46,39
1035,569	46,2
1035,938	45,7
1036,307	46
1036,675	45,28
1037,044	46,79
1037,413	45,76
1037,781	45,9
1038,15	46,4
1038,518	46,15
1038,887	46,41
1039,255	45,53
1039,623	45,8
1039,991	46,36
1040,359	45,44
1040,727	46,18
1041,095	46,42
1041,463	46,32
1041,831	46,11
1042,198	45,18
1042,566	47,36
1042,933	46,17
1043,301	45,46
1043,668	46,42
1044,035	45,3
1044,402	46,27
1044,77	45,78
1045,137	45,93
1045,503	45,91
1045,87	46,59
1046,237	46,82
1046,604	46,67
1046,97	45,95
1047,337	47,15
1047,703	47,4
1048,07	47,53
1048,436	47,43
1048,802	45,98
1049,168	47,79
1049,534	46,5
1049,9	47,54
1050,266	47,55
1050,632	46,37
1050,998	48,27
1051,364	47,34
1051,729	47,17
1052,095	46,96
1052,46	47,54
1052,825	47,34
1053,191	47,77
1053,556	46,81
1053,921	46,59
1054,286	47,14
1054,651	46,98
1055,016	49,36
1055,381	47
1055,745	46,02
1056,11	48,51
1056,475	49,11
1056,839	47,69
1057,203	48,03
1057,568	47,23
1057,932	47,73
1058,296	47,44
1058,66	48,07
1059,024	49,51
1059,388	49,12
1059,752	47,78
1060,116	50,33
1060,48	49,55
1060,843	47,53
1061,207	48,19
1061,57	50,05
1061,934	49,18
1062,297	48,38
1062,66	47,61
1063,023	50,06
1063,386	50,06
1063,749	49,71
1064,112	48,56
1064,475	49,42
1064,838	48,6
1065,201	49,67
1065,563	48,87
1065,926	47,47
1066,288	48,32
1066,651	48,53
1067,013	49,44
1067,375	48,15
1067,737	50,92
1068,099	50,13
1068,461	50,11
1068,823	49,18
1069,185	48,76
1069,547	49,86
1069,909	47,35
1070,27	50,21
1070,632	48,72
1070,993	50,1
1071,355	49,19
1071,716	47,71
1072,077	49,71
1072,438	50,77
1072,799	50,1
1073,16	50,75
1073,521	50,63
1073,882	52,91
1074,243	51,13
1074,603	50,51
1074,964	49,6
1075,325	49,81
1075,685	47,29
1076,045	48,3
1076,406	49,83
1076,766	48,57
1077,126	48,86
1077,486	50,66
1077,846	49,65
1078,206	50,67
1078,566	50
1078,925	50,58
1079,285	52,09
1079,645	51,27
1080,004	49,19
1080,364	48,97
1080,723	49,6
1081,082	51,54
1081,442	49,72
1081,801	51
1082,16	50,22
1082,519	50,32
1082,878	53
1083,237	50,23
1083,595	51,63
1083,954	50,07
1084,313	50,37
1084,671	50,45
1085,03	51,39
1085,388	51,46
1085,746	51,55
1086,104	49,86
1086,463	51,11
1086,821	52,53
1087,179	53,22
1087,537	51,79
1087,894	52,53
1088,252	54,44
1088,61	49,62
1088,967	52,79
1089,325	51,84
1089,682	53,66
1090,04	54,72
1090,397	52,25
1090,754	51,96
1091,111	50,92
1091,469	54,42
1091,826	53,41
1092,182	55,49
1092,539	51,2
1092,896	53,73
1093,253	53,62
1093,609	54,16
1093,966	53,08
1094,322	52,77
1094,679	53,48
1095,035	54,95
1095,391	52,33
1095,748	53,09
1096,104	53,95
1096,46	55,94
1096,816	51,93
1097,171	54,51
1097,527	55,05
1097,883	58,43
1098,239	52,93
1098,594	54,67
1098,95	53,93
1099,305	55,27
1099,66	56,08
1100,016	52,21
1100,371	56,47
1100,726	55,16
1101,081	53,7
1101,436	56,31
1101,791	58,66
1102,146	54,92
1102,5	57,06
1102,855	54,91
1103,21	55,58
1103,564	55,1
1103,918	56,9
1104,273	57,02
1104,627	56,89
1104,981	54,41
1105,335	56,19
1105,69	59,45
1106,043	56,26
1106,397	54,37
1106,751	58,48
1107,105	58,83
1107,459	55,44
1107,812	59,97
1108,166	59,25
1108,519	56,23
1108,873	58,14
1109,226	60,45
1109,579	57,93
1109,932	61,53
1110,285	58,59
1110,638	62,35
1110,991	58,51
1111,344	55,9
1111,697	59,39
1112,05	59,44
1112,402	62,34
1112,755	60,66
1113,107	62,31
1113,46	61,59
1113,812	63,24
1114,164	68,92
1114,517	63,77
1114,869	162,96
1115,221	181,58
1115,573	153,79
1115,924	181,13
