Data from G2__Relative__3__00118.txt Node

Date: Wed Jan 31 18:36:50 CET 2024
User: diatiterra
Spectrometer: HDX00911
Trigger mode: 0
Integration Time (sec): 6,000000E-3
Scans to average: 2
Nonlinearity correction enabled: false
Boxcar width: 0
Storing dark spectrum: false
XAxis mode: Wavelengths
Number of Pixels in Spectrum: 2068
>>>>>Begin Spectral Data<<<<<
194,468	256,6
195,025	170
195,581	243,9
196,138	238,46
196,694	153,09
197,251	131,31
197,807	114,17
198,363	110
198,919	96,9
199,474	106,99
200,03	115,57
200,586	129,02
201,141	93,87
201,696	104,03
202,251	105,3
202,806	97,9
203,361	108,89
203,916	103,12
204,471	110,22
205,025	128,23
205,58	108,21
206,134	119,2
206,688	116,15
207,242	119,03
207,796	109,02
208,35	108,7
208,904	112,07
209,457	98,96
210,011	101,77
210,564	110,56
211,117	113,53
211,67	111,57
212,223	105,14
212,776	125
213,329	101,67
213,881	134,8
214,434	105,59
214,986	123,14
215,538	114,71
216,09	97,54
216,642	117,77
217,194	109,85
217,746	111,65
218,297	111,07
218,849	112,5
219,4	127,73
219,951	118,15
220,502	111,15
221,053	117,94
221,604	113,09
222,155	117,86
222,705	105,88
223,256	112,69
223,806	119,29
224,356	107,69
224,906	120,97
225,456	118,22
226,006	116,27
226,556	94,16
227,106	122,58
227,655	104,17
228,204	117,92
228,754	101,41
229,303	104,64
229,852	100,36
230,401	108,96
230,949	111,87
231,498	100,7
232,047	103,57
232,595	107,59
233,143	121,26
233,691	106,2
234,239	102,5
234,787	115,6
235,335	108,58
235,883	105,59
236,43	111,74
236,978	115
237,525	108,03
238,072	104,96
238,619	117,42
239,166	101,42
239,713	108,03
240,26	100,71
240,806	114,58
241,353	114,29
241,899	106,64
242,445	113,5
242,991	118,32
243,537	105,3
244,083	114,5
244,629	111,15
245,174	127,88
245,72	106,3
246,265	111,51
246,81	121,6
247,355	121,83
247,9	100
248,445	126,98
248,99	113,26
249,534	130,87
250,079	125,56
250,623	110,37
251,168	121,49
251,712	114,06
252,256	122,54
252,8	121,15
253,343	111,07
253,887	117,34
254,43	120,23
254,974	114,89
255,517	102,74
256,06	116,15
256,603	100,74
257,146	110,08
257,689	110,63
258,232	122,88
258,774	112,06
259,317	122,46
259,859	134,86
260,401	119,38
260,943	108,87
261,485	108,87
262,027	119,2
262,569	112,31
263,11	116,54
263,652	126,77
264,193	118,6
264,734	112,77
265,275	122,13
265,816	113,74
266,357	123,64
266,898	119,62
267,438	116,54
267,979	110,07
268,519	105,6
269,059	135,51
269,6	118,8
270,14	132,66
270,68	117,03
271,219	126,69
271,759	113,53
272,298	112,03
272,838	118,08
273,377	119,84
273,916	104,32
274,455	108,76
274,994	118
275,533	110,87
276,072	115,04
276,61	109,78
277,149	121,67
277,687	114,66
278,225	99,67
278,763	128,95
279,301	115,83
279,839	120,56
280,377	122,95
280,914	103,85
281,452	125,21
281,989	117,77
282,526	115,35
283,064	113,03
283,601	100,34
284,137	109,92
284,674	116,67
285,211	125,44
285,747	112,5
286,284	131,08
286,82	114,46
287,356	99,67
287,892	126,36
288,428	117,77
288,964	134,45
289,5	118,6
290,035	114,8
290,571	117,65
291,106	121,54
291,641	122,77
292,176	109,77
292,711	123,17
293,246	105,77
293,781	120,66
294,315	97,54
294,85	124,54
295,384	121,72
295,918	104,04
296,453	102,99
296,987	113,22
297,52	122,31
298,054	111,45
298,588	112,92
299,121	103,73
299,655	114,6
300,188	115
300,721	116,67
301,254	108,06
301,787	108,59
302,32	122,36
302,853	115,6
303,385	102,14
303,918	109,3
304,45	120,77
304,982	98,23
305,514	107,75
306,046	114,88
306,578	105,81
307,11	112,4
307,641	120,26
308,173	115,29
308,704	107,44
309,236	107,89
309,767	108,16
310,298	108,47
310,829	116,96
311,359	118,55
311,89	113,03
312,421	122,97
312,951	115,85
313,481	99,31
314,012	100,37
314,542	125,42
315,072	106,87
315,601	115,2
316,131	109,45
316,661	113,75
317,19	104,44
317,72	121,49
318,249	122,22
318,778	110,16
319,307	103,52
319,836	127,43
320,365	117,83
320,893	112,81
321,422	119,92
321,95	114,29
322,479	116,03
323,007	123,18
323,535	104,29
324,063	116,8
324,591	110
325,118	108,39
325,646	118,91
326,173	117,92
326,701	113,01
327,228	117,67
327,755	106,77
328,282	105,73
328,809	118,64
329,336	110,24
329,862	106,25
330,389	106,64
330,915	105,12
331,441	110,31
331,968	122,07
332,494	100,38
333,02	107,92
333,545	102,61
334,071	129,34
334,597	95,07
335,122	102,96
335,648	105,6
336,173	102,65
336,698	90,82
337,223	102,21
337,748	100,69
338,272	100
338,797	103,26
339,322	93,8
339,846	91,18
340,37	110,08
340,894	94,1
341,419	102,26
341,942	106,64
342,466	95,83
342,99	92,95
343,514	101,06
344,037	90,51
344,56	105,56
345,084	96,58
345,607	102,43
346,13	91,9
346,653	97,67
347,175	94,23
347,698	84,91
348,221	94,29
348,743	87,27
349,265	95,32
349,787	85,58
350,309	89,56
350,831	79,63
351,353	89,94
351,875	84,5
352,397	93,36
352,918	85,86
353,439	95,7
353,961	77,91
354,482	85,67
355,003	79,07
355,524	85
356,044	82,1
356,565	82,83
357,086	83,9
357,606	69,78
358,126	76,33
358,646	77,04
359,167	80,27
359,687	81,64
360,206	75,41
360,726	71,56
361,246	83,24
361,765	75,99
362,285	70,5
362,804	79,21
363,323	70,49
363,842	74,45
364,361	70,65
364,88	69,7
365,398	64,85
365,917	71,23
366,435	80,21
366,954	74,55
367,472	68,63
367,99	73,93
368,508	68,83
369,026	76,82
369,544	68,64
370,061	65,34
370,579	62,09
371,096	76,15
371,613	63,79
372,131	60,63
372,648	62,2
373,165	62,5
373,681	63,92
374,198	67,58
374,715	64,85
375,231	62,12
375,747	61,9
376,264	58,5
376,78	58,99
377,296	61,34
377,812	54,32
378,327	58,77
378,843	60,24
379,359	58,61
379,874	58,13
380,389	54,57
380,905	47,91
381,42	51,37
381,935	54,27
382,449	50,74
382,964	52,14
383,479	49,57
383,993	48,61
384,508	48,16
385,022	45,73
385,536	45,92
386,05	48,43
386,564	46,14
387,078	44,38
387,592	42,58
388,105	47,87
388,619	41,96
389,132	42,02
389,645	41,61
390,158	42,92
390,671	39,1
391,184	39,37
391,697	38,78
392,21	33,61
392,722	38,39
393,235	38,09
393,747	36,48
394,259	38,2
394,771	34,64
395,283	35,44
395,795	34,33
396,307	36,82
396,818	34,21
397,33	29,85
397,841	33,98
398,353	31,35
398,864	31,34
399,375	29,38
399,886	32,12
400,397	29,29
400,907	27,88
401,418	27,54
401,928	26,3
402,439	28,8
402,949	25,56
403,459	25,69
403,969	25,09
404,479	23,17
404,989	22,92
405,498	24
406,008	22,07
406,517	21,9
407,027	19,83
407,536	19,01
408,045	20,91
408,554	19,06
409,063	18,07
409,572	17,81
410,08	17,28
410,589	17,09
411,097	15,95
411,606	16,61
412,114	15,62
412,622	14,68
413,13	14,93
413,638	14,05
414,145	13,18
414,653	13,48
415,16	12,37
415,668	13,41
416,175	11,64
416,682	11,56
417,189	10,46
417,696	11,69
418,203	11,3
418,71	11,03
419,216	11,12
419,723	10,08
420,229	10,31
420,735	10,27
421,242	10,73
421,748	10,38
422,254	9,99
422,759	9,58
423,265	9,52
423,771	9,56
424,276	9,5
424,781	9,17
425,287	9,42
425,792	9,16
426,297	9,25
426,802	9,1
427,306	9,25
427,811	8,64
428,316	9,16
428,82	8,9
429,324	8,32
429,829	8,54
430,333	8,56
430,837	8,52
431,34	8,13
431,844	8,07
432,348	8,29
432,851	7,51
433,355	8,07
433,858	8,12
434,361	7,92
434,864	7,68
435,367	7,66
435,87	8,13
436,373	8,1
436,876	8,12
437,378	7,76
437,88	8,01
438,383	7,71
438,885	7,53
439,387	7,63
439,889	7,87
440,391	7,38
440,892	7,31
441,394	7,45
441,896	7,02
442,397	7,83
442,898	7,25
443,399	7,84
443,9	7,09
444,401	7,09
444,902	7,49
445,403	7,64
445,903	7,54
446,404	7,81
446,904	7,38
447,405	7,38
447,905	7,24
448,405	7,43
448,905	7,58
449,404	7,47
449,904	7,23
450,404	7,51
450,903	7,77
451,403	7,12
451,902	7,65
452,401	7,51
452,9	7,72
453,399	7,41
453,898	6,92
454,396	7,11
454,895	7,18
455,393	7,16
455,892	7,43
456,39	7,78
456,888	7,44
457,386	7,51
457,884	7,56
458,382	7,55
458,879	7,41
459,377	7,61
459,874	7,28
460,372	7,31
460,869	7,5
461,366	7,22
461,863	7,22
462,36	7,3
462,857	7,17
463,353	7,3
463,85	6,94
464,346	7,34
464,843	7,41
465,339	7,26
465,835	7,49
466,331	7,05
466,827	7,3
467,323	7,06
467,818	7,38
468,314	7,49
468,809	6,93
469,305	6,91
469,8	7,24
470,295	7,18
470,79	7,06
471,285	7,25
471,78	6,94
472,274	6,98
472,769	7,11
473,263	6,99
473,758	7,33
474,252	6,85
474,746	7,24
475,24	6,99
475,734	6,95
476,228	7,03
476,721	7,14
477,215	6,86
477,708	7,06
478,202	6,91
478,695	6,93
479,188	7,09
479,681	7,07
480,174	6,87
480,667	7,29
481,159	7,35
481,652	7,04
482,144	7,02
482,637	7,23
483,129	7,02
483,621	7,28
484,113	7,18
484,605	6,92
485,097	7,36
485,588	7,17
486,08	7,37
486,571	7,31
487,063	7,22
487,554	7,07
488,045	7,17
488,536	7,19
489,027	7,33
489,518	7,39
490,008	7,22
490,499	7,49
490,989	7,2
491,48	7,19
491,97	7,56
492,46	7,4
492,95	7,34
493,44	7,55
493,93	7,47
494,419	7,79
494,909	7,9
495,398	7,85
495,888	7,71
496,377	7,83
496,866	8,16
497,355	8,18
497,844	8,16
498,333	8,34
498,821	8,31
499,31	8,33
499,798	8,4
500,287	8,56
500,775	8,78
501,263	8,89
501,751	9,04
502,239	9,04
502,727	8,9
503,215	9,29
503,702	9,2
504,19	9,42
504,677	9,55
505,164	10,08
505,651	10,25
506,139	10,29
506,625	10,14
507,112	11,03
507,599	10,99
508,086	11,02
508,572	11,51
509,058	11,38
509,545	11,61
510,031	12,08
510,517	12,28
511,003	12,16
511,489	12,88
511,974	13,01
512,46	13,1
512,946	13,43
513,431	13,71
513,916	14,14
514,401	14,35
514,887	14,7
515,371	15,08
515,856	15,46
516,341	15,47
516,826	15,91
517,31	16,1
517,795	16,85
518,279	16,72
518,763	17,54
519,247	17,65
519,731	18,31
520,215	18,45
520,699	18,61
521,182	19,17
521,666	19,81
522,149	19,69
522,633	20,39
523,116	20,46
523,599	21,18
524,082	21,32
524,565	21,25
525,048	21,91
525,53	21,93
526,013	22,46
526,495	22,73
526,978	23,05
527,46	23,33
527,942	23,35
528,424	23,94
528,906	23,88
529,388	24,46
529,87	25,01
530,351	24,7
530,833	24,75
531,314	24,97
531,795	25,32
532,277	25,88
532,758	26,05
533,238	25,72
533,719	25,97
534,2	25,9
534,681	26,5
535,161	26,41
535,642	26,95
536,122	26,36
536,602	26,48
537,082	26,6
537,562	26,99
538,042	26,71
538,522	26,99
539,001	27,12
539,481	27,31
539,96	27,11
540,44	27,36
540,919	27,06
541,398	27,54
541,877	27,37
542,356	27,04
542,835	27,58
543,313	27,74
543,792	27,81
544,27	27,95
544,749	27,67
545,227	27,95
545,705	28
546,183	27,92
546,661	28,16
547,139	28,23
547,616	27,82
548,094	27,95
548,571	28,14
549,049	28,36
549,526	27,95
550,003	28,43
550,48	28,32
550,957	28,2
551,434	28,09
551,911	28,54
552,387	27,92
552,864	28,14
553,34	28,82
553,817	28,38
554,293	28,33
554,769	28,52
555,245	28,17
555,721	28,42
556,197	28,55
556,672	28,16
557,148	28,06
557,623	28,65
558,099	27,92
558,574	28,5
559,049	27,78
559,524	28,12
559,999	28,08
560,474	27,57
560,948	27,85
561,423	27,78
561,897	27,61
562,372	27,79
562,846	27,57
563,32	27,35
563,794	27,01
564,268	27,17
564,742	26,87
565,216	26,76
565,69	26,32
566,163	26,8
566,636	26,21
567,11	26,09
567,583	26,02
568,056	25,68
568,529	25,71
569,002	25,38
569,475	25,32
569,947	25,05
570,42	25
570,892	24,6
571,365	24,35
571,837	24,34
572,309	24,41
572,781	23,66
573,253	23,7
573,725	23,42
574,197	23,18
574,668	23,18
575,14	22,88
575,611	22,44
576,082	22,02
576,554	22,2
577,025	22,18
577,496	22,08
577,967	21,83
578,437	21,55
578,908	21,61
579,379	21,46
579,849	21,21
580,319	20,89
580,79	20,85
581,26	20,66
581,73	20,5
582,2	20,36
582,669	20,35
583,139	19,92
583,609	19,77
584,078	20,28
584,548	19,8
585,017	19,76
585,486	19,16
585,955	19,52
586,424	19,28
586,893	19,13
587,362	19,21
587,83	19
588,299	19,02
588,767	18,94
589,236	18,86
589,704	18,61
590,172	18,72
590,64	18,46
591,108	18,33
591,576	18,46
592,043	18,02
592,511	18,23
592,978	18,16
593,446	18,32
593,913	18
594,38	17,96
594,847	17,78
595,314	17,93
595,781	17,66
596,248	17,63
596,715	17,74
597,181	17,6
597,647	17,9
598,114	17,7
598,58	17,61
599,046	17,55
599,512	17,45
599,978	16,96
600,444	17,54
600,91	17,33
601,375	17,17
601,841	17,39
602,306	17,26
602,771	17,17
603,236	17,11
603,702	17,04
604,167	16,88
604,631	16,88
605,096	16,97
605,561	16,8
606,025	16,44
606,49	16,49
606,954	16,58
607,418	16,27
607,882	16,48
608,347	16,22
608,81	16,17
609,274	15,91
609,738	15,83
610,202	15,86
610,665	15,72
611,128	15,51
611,592	15,46
612,055	15,32
612,518	15,37
612,981	15,35
613,444	15,08
613,907	14,87
614,369	14,79
614,832	15,01
615,294	14,51
615,757	14,65
616,219	14,7
616,681	14,14
617,143	14,42
617,605	14,15
618,067	14,01
618,529	14,02
618,99	14,01
619,452	13,85
619,913	13,68
620,375	13,62
620,836	13,74
621,297	13,69
621,758	13,57
622,219	13,54
622,68	13,52
623,14	13,31
623,601	13,39
624,061	13,57
624,522	13,32
624,982	13,34
625,442	13,34
625,902	13,23
626,362	13,15
626,822	13,04
627,282	13,27
627,742	13,31
628,201	13,17
628,661	13,16
629,12	12,95
629,579	13,02
630,038	13,1
630,497	13,09
630,956	12,98
631,415	12,84
631,874	12,62
632,332	13,02
632,791	12,79
633,249	12,81
633,708	12,87
634,166	12,6
634,624	12,65
635,082	12,59
635,54	12,48
635,998	12,23
636,455	12,23
636,913	11,92
637,37	12,05
637,828	11,92
638,285	11,77
638,742	11,78
639,199	11,7
639,656	11,42
640,113	11,35
640,57	11,17
641,027	11,06
641,483	10,98
641,94	10,7
642,396	10,63
642,852	10,47
643,309	10,41
643,765	10,25
644,221	10,07
644,676	9,96
645,132	9,8
645,588	9,66
646,043	9,61
646,499	9,52
646,954	9,39
647,409	9,38
647,864	9,12
648,319	8,97
648,774	8,89
649,229	8,76
649,684	8,75
650,139	8,78
650,593	8,7
651,047	8,56
651,502	8,58
651,956	8,47
652,41	8,38
652,864	8,24
653,318	8,44
653,772	8,28
654,225	8,26
654,679	8,33
655,133	8,17
655,586	8,15
656,039	8,09
656,492	7,99
656,946	7,99
657,399	7,91
657,851	7,84
658,304	7,85
658,757	7,79
659,209	7,62
659,662	7,62
660,114	7,52
660,567	7,48
661,019	7,3
661,471	7,18
661,923	7,22
662,375	7,11
662,826	7,05
663,278	7
663,73	6,94
664,181	6,9
664,632	6,95
665,084	6,89
665,535	6,81
665,986	6,76
666,437	6,8
666,888	6,75
667,338	6,77
667,789	6,83
668,24	6,75
668,69	6,75
669,14	6,96
669,591	6,8
670,041	6,91
670,491	6,97
670,941	6,88
671,391	7,04
671,84	7,02
672,29	7,17
672,74	7,18
673,189	7,27
673,638	7,34
674,088	7,43
674,537	7,49
674,986	7,52
675,435	7,66
675,883	7,73
676,332	7,87
676,781	8,02
677,229	8,03
677,678	8,24
678,126	8,27
678,574	8,41
679,022	8,64
679,47	8,76
679,918	8,94
680,366	9,04
680,814	9,18
681,261	9,17
681,709	9,36
682,156	9,43
682,604	9,51
683,051	9,78
683,498	9,95
683,945	10,03
684,392	10,08
684,839	10,31
685,286	10,32
685,732	10,43
686,179	10,75
686,625	10,77
687,071	10,93
687,518	11,18
687,964	11,46
688,41	11,59
688,856	11,65
689,301	12,04
689,747	12,31
690,193	12,57
690,638	12,9
691,084	13,29
691,529	13,69
691,974	14,36
692,419	14,77
692,864	15,17
693,309	15,77
693,754	16,29
694,199	16,86
694,643	17,26
695,088	18,05
695,532	18,62
695,977	19,27
696,421	19,78
696,865	20,44
697,309	21,03
697,753	21,66
698,197	22,49
698,64	22,86
699,084	23,52
699,527	24,04
699,971	24,62
700,414	25,5
700,857	25,97
701,3	26,28
701,743	27,4
702,186	27,48
702,629	28,12
703,072	28,76
703,515	29,02
703,957	29,61
704,399	30,19
704,842	30,79
705,284	31,09
705,726	31,86
706,168	32,34
706,61	32,65
707,052	32,94
707,494	33,64
707,935	34,02
708,377	34,5
708,818	34,91
709,26	35,51
709,701	35,71
710,142	36,35
710,583	36,43
711,024	36,9
711,465	37,28
711,905	37,77
712,346	37,71
712,787	38,25
713,227	38,75
713,667	39,34
714,108	39,58
714,548	39,81
714,988	40,44
715,428	40,58
715,868	41,1
716,307	40,88
716,747	41,34
717,186	41,87
717,626	41,67
718,065	42,56
718,504	42,52
718,944	43,06
719,383	43,28
719,822	43,64
720,261	43,64
720,699	43,67
721,138	43,95
721,576	44,28
722,015	44,64
722,453	44,95
722,892	44,97
723,33	45,32
723,768	45,79
724,206	45,47
724,644	45,57
725,081	46,37
725,519	46,04
725,957	46,5
726,394	46,31
726,832	46,49
727,269	46,73
727,706	46,84
728,143	46,97
728,58	47,25
729,017	47,04
729,454	47,41
729,89	47,86
730,327	47,67
730,764	48,14
731,2	48,12
731,636	48,12
732,072	48,35
732,509	48,38
732,945	48,56
733,38	48,25
733,816	48,69
734,252	48,44
734,688	48,91
735,123	48,71
735,559	48,74
735,994	48,56
736,429	48,78
736,864	49,09
737,299	49,12
737,734	49,26
738,169	48,98
738,604	49
739,038	48,96
739,473	48,96
739,907	49,31
740,342	49,18
740,776	49,64
741,21	49,1
741,644	49,61
742,078	49,36
742,512	49,09
742,946	49,41
743,379	48,86
743,813	48,83
744,246	49,55
744,68	49,19
745,113	49,05
745,546	48,91
745,979	49,42
746,412	49,27
746,845	49,05
747,278	49,12
747,711	49,08
748,143	49,06
748,576	49,19
749,008	49,2
749,441	48,8
749,873	48,69
750,305	49,21
750,737	48,64
751,169	48,68
751,601	48,56
752,032	48,71
752,464	48,57
752,896	48,41
753,327	48,51
753,758	48,33
754,19	48,6
754,621	48,2
755,052	48,05
755,483	48,45
755,914	48,47
756,344	48,39
756,775	48,07
757,206	48,26
757,636	48,13
758,066	48,15
758,497	48
758,927	48,46
759,357	48,11
759,787	47,92
760,217	48,18
760,647	47,95
761,076	47,82
761,506	47,71
761,935	47,44
762,365	48,01
762,794	47,5
763,223	47,84
763,653	47,73
764,082	47,39
764,51	47,52
764,939	47,96
765,368	47,54
765,797	47,3
766,225	47,36
766,654	47,43
767,082	47,14
767,51	47,27
767,938	47,24
768,367	47,26
768,795	47,04
769,222	47,72
769,65	47,61
770,078	47,12
770,505	47,19
770,933	47,23
771,36	47,44
771,788	47,19
772,215	46,99
772,642	47,1
773,069	46,91
773,496	46,94
773,923	46,73
774,349	46,88
774,776	47,02
775,203	46,72
775,629	47,22
776,055	46,61
776,482	46,7
776,908	46,55
777,334	46,76
777,76	46,79
778,186	46,97
778,611	46,99
779,037	46,63
779,463	46,67
779,888	46,83
780,314	46,53
780,739	46,86
781,164	46,7
781,589	46,54
782,014	46,77
782,439	46,68
782,864	46,72
783,289	46,62
783,713	46,25
784,138	46,47
784,562	46,12
784,987	46,41
785,411	46,47
785,835	46,36
786,259	46,38
786,683	46,64
787,107	46,25
787,531	46,43
787,954	46,36
788,378	46,37
788,802	46,34
789,225	46,15
789,648	46,25
790,071	45,92
790,495	46,45
790,918	46,62
791,34	46,3
791,763	46,29
792,186	46,26
792,609	46,11
793,031	46,17
793,454	46,19
793,876	46,45
794,298	46,28
794,721	46,16
795,143	46,24
795,565	45,94
795,986	46,21
796,408	46,09
796,83	46,21
797,252	45,99
797,673	46,4
798,094	46,77
798,516	46,31
798,937	46,16
799,358	45,95
799,779	45,87
800,2	46,29
800,621	45,91
801,042	46,18
801,462	46,08
801,883	45,95
802,303	45,7
802,724	46,07
803,144	46,15
803,564	46,19
803,984	46,21
804,404	46,37
804,824	46,04
805,244	46,22
805,664	46,57
806,084	46,11
806,503	46
806,923	45,79
807,342	45,9
807,761	45,55
808,18	45,85
808,599	45,64
809,018	46,12
809,437	45,78
809,856	45,65
810,275	46,2
810,693	45,89
811,112	46,31
811,53	46,26
811,949	45,81
812,367	46,08
812,785	46,01
813,203	46,05
813,621	45,67
814,039	45,77
814,457	46
814,874	45,34
815,292	45,79
815,709	45,84
816,127	46,22
816,544	45,89
816,961	46,09
817,378	46,08
817,795	46,03
818,212	45,95
818,629	46,08
819,046	45,51
819,462	45,71
819,879	45,64
820,295	45,55
820,712	45,81
821,128	45,59
821,544	45,48
821,96	45,95
822,376	45,79
822,792	45,96
823,208	45,77
823,624	46,08
824,039	45,75
824,455	46,14
824,87	45,33
825,286	45,58
825,701	45,64
826,116	45,39
826,531	45,79
826,946	45,49
827,361	45,29
827,776	45,31
828,19	45,54
828,605	45,5
829,02	45,48
829,434	45,6
829,848	45,95
830,263	45,82
830,677	45,64
831,091	45,15
831,505	45,4
831,919	45,71
832,332	45,62
832,746	45,69
833,16	45,29
833,573	45,38
833,987	45,77
834,4	45,28
834,813	45,34
835,226	45,46
835,639	45,65
836,052	45,32
836,465	45,34
836,878	45,48
837,29	45,44
837,703	45,48
838,116	45,63
838,528	45,81
838,94	45,55
839,352	45,85
839,765	45,4
840,177	45,7
840,589	45,57
841	45,15
841,412	45,03
841,824	45,27
842,235	45,34
842,647	45,36
843,058	45,55
843,47	45,22
843,881	45,72
844,292	45,39
844,703	45,98
845,114	45,33
845,525	45,29
845,935	45,57
846,346	45,42
846,757	45,3
847,167	45,33
847,577	45,21
847,988	45,37
848,398	45,15
848,808	45,34
849,218	45,3
849,628	45,25
850,038	45,45
850,448	45,37
850,857	45,29
851,267	45,63
851,676	45,12
852,086	45,38
852,495	45,33
852,904	45,29
853,313	44,92
853,722	45,23
854,131	45,33
854,54	45,02
854,949	44,8
855,357	45
855,766	45,33
856,174	44,7
856,583	45,34
856,991	45,33
857,399	45,88
857,807	45,07
858,215	45,13
858,623	45,71
859,031	44,68
859,439	45,76
859,846	45,36
860,254	45,13
860,661	45,76
861,069	45,44
861,476	45,4
861,883	45,08
862,29	45
862,697	45,51
863,104	44,97
863,511	45,03
863,918	45,06
864,325	45,41
864,731	45,26
865,138	44,73
865,544	45,15
865,95	45,31
866,357	44,93
866,763	45,14
867,169	45,24
867,575	45,4
867,98	45,16
868,386	45,41
868,792	45,52
869,197	44,82
869,603	44,96
870,008	44,72
870,414	45,25
870,819	44,8
871,224	44,89
871,629	45,03
872,034	45,08
872,439	44,81
872,844	44,98
873,248	45,25
873,653	45,31
874,057	45,11
874,462	45,38
874,866	45,31
875,27	45,27
875,674	45,49
876,078	44,95
876,482	44,89
876,886	45,09
877,29	44,83
877,694	44,77
878,097	44,89
878,501	44,68
878,904	44,89
879,308	44,9
879,711	45,21
880,114	45,06
880,517	45,37
880,92	45,13
881,323	45,2
881,726	45,5
882,128	45,18
882,531	44,82
882,934	45,2
883,336	45,32
883,738	45,01
884,141	45,12
884,543	45,38
884,945	45,22
885,347	45,03
885,749	45,12
886,151	45,11
886,552	44,99
886,954	44,68
887,355	45,27
887,757	44,87
888,158	44,95
888,56	44,97
888,961	45,26
889,362	44,72
889,763	45,41
890,164	45,23
890,565	44,91
890,965	45,19
891,366	45,23
891,767	45,21
892,167	44,96
892,567	45,33
892,968	44,79
893,368	44,82
893,768	44,68
894,168	44,91
894,568	44,5
894,968	44,88
895,368	44,82
895,767	44,86
896,167	44,76
896,566	44,92
896,966	45,07
897,365	45,35
897,764	45,34
898,164	45,2
898,563	45,21
898,962	45,04
899,361	45,24
899,759	44,96
900,158	44,97
900,557	45,25
900,955	44,62
901,354	44,61
901,752	44,59
902,15	44,47
902,548	44,81
902,947	44,9
903,345	45,06
903,742	44,76
904,14	44,74
904,538	45,02
904,936	45,26
905,333	44,63
905,731	44,52
906,128	44,42
906,525	45,39
906,923	45,27
907,32	45,48
907,717	45,22
908,114	45,33
908,511	45,25
908,907	45,52
909,304	45,1
909,701	44,68
910,097	45,28
910,494	44,66
910,89	45,24
911,286	44,92
911,682	45,46
912,078	45,28
912,474	45,24
912,87	44,97
913,266	44,76
913,662	44,95
914,058	44,7
914,453	44,74
914,849	44,65
915,244	44,9
915,639	45,1
916,034	44,9
916,43	45,33
916,825	45,41
917,22	44,78
917,614	45,04
918,009	45,2
918,404	44,55
918,798	44,64
919,193	44,86
919,587	44,92
919,982	44,64
920,376	44,7
920,77	44,65
921,164	45,35
921,558	45,07
921,952	44,96
922,346	44,94
922,74	45,23
923,133	44,66
923,527	44,77
923,92	44,81
924,314	44,81
924,707	44,95
925,1	44,9
925,493	45,29
925,886	44,7
926,279	44,51
926,672	45,09
927,065	44,42
927,457	44,58
927,85	44,64
928,243	44,67
928,635	44,98
929,027	45,25
929,42	44,92
929,812	44,98
930,204	45,4
930,596	45,31
930,988	44,85
931,379	45,09
931,771	45,13
932,163	45,31
932,554	45,24
932,946	44,42
933,337	44,96
933,729	45,21
934,12	45
934,511	44,74
934,902	45,32
935,293	44,48
935,684	45,44
936,075	45,49
936,465	45,51
936,856	44,31
937,246	45,27
937,637	45,27
938,027	45,11
938,417	44,69
938,808	45,29
939,198	44
939,588	45,31
939,978	45,36
940,368	44,88
940,757	45,63
941,147	45,65
941,537	45,14
941,926	45,37
942,315	45,99
942,705	45,19
943,094	45,67
943,483	44,83
943,872	44,53
944,261	45,25
944,65	44,83
945,039	45,27
945,428	45,8
945,816	45,83
946,205	45,13
946,593	45,36
946,982	45,59
947,37	45,42
947,758	45,6
948,146	45,09
948,534	45,18
948,922	45,35
949,31	45,11
949,698	45,77
950,086	45,62
950,473	45,08
950,861	45,48
951,248	44,94
951,636	45,02
952,023	44,94
952,41	45,17
952,797	44,42
953,184	45,54
953,571	45,43
953,958	44,42
954,345	44,12
954,731	45,36
955,118	45,35
955,505	44,44
955,891	44,92
956,277	44,56
956,664	44,69
957,05	44,18
957,436	44,07
957,822	44,22
958,208	43,81
958,594	44,36
958,979	44,19
959,365	44,09
959,751	44,33
960,136	43,96
960,522	44,36
960,907	44,59
961,292	43,95
961,677	44,83
962,062	44,64
962,447	44,45
962,832	44,84
963,217	44,42
963,602	44,6
963,986	45
964,371	44,22
964,756	44,48
965,14	44,55
965,524	44,63
965,908	44,62
966,293	44,3
966,677	44,18
967,061	45,42
967,445	44,13
967,828	44,97
968,212	44,8
968,596	44,53
968,979	44,73
969,363	44,63
969,746	44,71
970,129	44,34
970,513	44,54
970,896	44,2
971,279	44,94
971,662	44,36
972,045	44,37
972,428	45,5
972,81	44,31
973,193	45,14
973,575	44,35
973,958	43,9
974,34	44,4
974,723	45,09
975,105	44,35
975,487	44,58
975,869	44,6
976,251	44,64
976,633	44,45
977,015	45,07
977,396	45,05
977,778	44,98
978,16	44,15
978,541	44,4
978,922	44,85
979,304	44,68
979,685	45
980,066	44,54
980,447	45
980,828	44,77
981,209	44,62
981,59	44,8
981,97	44,19
982,351	44,47
982,732	44,96
983,112	44,9
983,493	45,51
983,873	44,24
984,253	44,88
984,633	45
985,013	44,09
985,393	45,45
985,773	44,75
986,153	44,54
986,533	44,62
986,912	44,96
987,292	45,04
987,671	44,96
988,051	45,3
988,43	44,22
988,809	44,61
989,188	45,3
989,567	44,74
989,946	45,04
990,325	44,95
990,704	44,75
991,083	45,15
991,461	44,87
991,84	45,1
992,218	44,85
992,597	45,15
992,975	45,34
993,353	45
993,732	45,49
994,11	45,17
994,488	45,74
994,866	44,52
995,243	45,25
995,621	45,65
995,999	44,58
996,376	45,31
996,754	44,62
997,131	44,81
997,509	45,17
997,886	44,57
998,263	45,55
998,64	44,25
999,017	45,45
999,394	45,09
999,771	45,67
1000,148	44,9
1000,524	44,81
1000,901	44,87
1001,277	45,83
1001,654	45,14
1002,03	45,83
1002,406	45,23
1002,783	44,98
1003,159	45,36
1003,535	45,29
1003,911	45,51
1004,286	45,63
1004,662	45,43
1005,038	46,14
1005,414	45,76
1005,789	45,56
1006,164	45,53
1006,54	46,05
1006,915	45,39
1007,29	44,69
1007,665	45,86
1008,04	45,28
1008,415	45,79
1008,79	45,77
1009,165	44,83
1009,54	45,88
1009,914	46,16
1010,289	45,1
1010,663	45,96
1011,038	46,34
1011,412	45,62
1011,786	45,97
1012,16	46,07
1012,535	46,05
1012,909	46,53
1013,282	46,12
1013,656	45,32
1014,03	45,4
1014,404	45,34
1014,777	45,48
1015,151	46,32
1015,524	45,24
1015,897	45,97
1016,271	46,47
1016,644	46
1017,017	46,16
1017,39	45,54
1017,763	45,38
1018,136	46,08
1018,508	46,38
1018,881	45,67
1019,254	45,95
1019,626	45,85
1019,999	45,69
1020,371	46,53
1020,743	46,09
1021,116	46,05
1021,488	46,82
1021,86	47,67
1022,232	47,17
1022,604	46,68
1022,975	46,88
1023,347	46,23
1023,719	46,75
1024,09	47,79
1024,462	45,85
1024,833	47,68
1025,204	47,5
1025,576	46,35
1025,947	45,83
1026,318	46,63
1026,689	46,98
1027,06	46,65
1027,431	46,89
1027,801	46,89
1028,172	46,36
1028,543	47,73
1028,913	47,13
1029,284	46,89
1029,654	46,38
1030,024	46,74
1030,394	46,93
1030,764	46,87
1031,135	46,93
1031,504	46,26
1031,874	46,79
1032,244	47,04
1032,614	46,21
1032,983	47,24
1033,353	46,35
1033,722	46,73
1034,092	47,67
1034,461	47,49
1034,83	46,39
1035,2	47,9
1035,569	47,29
1035,938	47,09
1036,307	48,39
1036,675	47,61
1037,044	47,57
1037,413	47,78
1037,781	48,44
1038,15	49,55
1038,518	48,32
1038,887	47,55
1039,255	47,44
1039,623	47,82
1039,991	47,58
1040,359	46,62
1040,727	48,08
1041,095	48,11
1041,463	48,02
1041,831	47,38
1042,198	47,43
1042,566	48,53
1042,933	48,75
1043,301	47,94
1043,668	48,07
1044,035	47,33
1044,402	48,62
1044,77	47,64
1045,137	48,99
1045,503	48,48
1045,87	48,24
1046,237	48
1046,604	48,75
1046,97	48,03
1047,337	48,57
1047,703	49,03
1048,07	48,46
1048,436	49,78
1048,802	48,65
1049,168	50,34
1049,534	48,35
1049,9	50,91
1050,266	49,34
1050,632	48,44
1050,998	49,26
1051,364	49,07
1051,729	49,68
1052,095	49,06
1052,46	49,06
1052,825	49,28
1053,191	48,99
1053,556	48,62
1053,921	48,83
1054,286	48,88
1054,651	50,07
1055,016	50,12
1055,381	49,38
1055,745	48,93
1056,11	49,8
1056,475	50,69
1056,839	49,57
1057,203	50,36
1057,568	51,02
1057,932	50,76
1058,296	49,9
1058,66	50,56
1059,024	51,29
1059,388	50,59
1059,752	50,32
1060,116	50,17
1060,48	53,44
1060,843	49,66
1061,207	50,05
1061,57	50,27
1061,934	51,03
1062,297	50,02
1062,66	50,56
1063,023	50,36
1063,386	52,3
1063,749	51,28
1064,112	50,93
1064,475	50,98
1064,838	51,12
1065,201	51,97
1065,563	51,85
1065,926	49,74
1066,288	50,99
1066,651	50,11
1067,013	51,61
1067,375	50,91
1067,737	51,32
1068,099	51,61
1068,461	51,66
1068,823	50,44
1069,185	50,57
1069,547	50,82
1069,909	49,38
1070,27	51,95
1070,632	50,69
1070,993	53,03
1071,355	50,73
1071,716	52,15
1072,077	52,6
1072,438	51,69
1072,799	52,76
1073,16	53,6
1073,521	51,05
1073,882	51,83
1074,243	52,44
1074,603	51,73
1074,964	50,98
1075,325	52
1075,685	50
1076,045	51,35
1076,406	51,75
1076,766	52,61
1077,126	51,78
1077,486	52,04
1077,846	51,73
1078,206	52,47
1078,566	52,54
1078,925	51,78
1079,285	52,71
1079,645	53,07
1080,004	51,79
1080,364	52,09
1080,723	51,68
1081,082	54,74
1081,442	53,15
1081,801	53,03
1082,16	52,15
1082,519	53,2
1082,878	54,18
1083,237	50,85
1083,595	54,15
1083,954	53,25
1084,313	53,29
1084,671	51,79
1085,03	53,44
1085,388	52,25
1085,746	54,04
1086,104	53,1
1086,463	53,24
1086,821	54,98
1087,179	54,27
1087,537	56,31
1087,894	54,6
1088,252	53,41
1088,61	54,23
1088,967	54,25
1089,325	54,08
1089,682	53,5
1090,04	55,3
1090,397	53,66
1090,754	54,2
1091,111	52,76
1091,469	57,76
1091,826	55,21
1092,182	56,01
1092,539	53,81
1092,896	55,56
1093,253	54,32
1093,609	55,55
1093,966	55,66
1094,322	53,67
1094,679	53,85
1095,035	56,06
1095,391	53,39
1095,748	55
1096,104	54,28
1096,46	57,51
1096,816	56,14
1097,171	56,72
1097,527	56,95
1097,883	57,45
1098,239	57,06
1098,594	57,06
1098,95	57,03
1099,305	57,24
1099,66	57,03
1100,016	53,91
1100,371	56,58
1100,726	56,3
1101,081	54,92
1101,436	57,91
1101,791	58,83
1102,146	56,5
1102,5	55,35
1102,855	55,56
1103,21	55,81
1103,564	57,91
1103,918	57,02
1104,273	58,27
1104,627	58,53
1104,981	54,76
1105,335	56,19
1105,69	58,45
1106,043	58
1106,397	57,38
1106,751	58,95
1107,105	59,04
1107,459	59,83
1107,812	60,92
1108,166	63,37
1108,519	59,06
1108,873	58,51
1109,226	64,27
1109,579	59,33
1109,932	62,54
1110,285	59,32
1110,638	63,54
1110,991	62,81
1111,344	56,54
1111,697	58,96
1112,05	61,22
1112,402	66,76
1112,755	65,17
1113,107	64,73
1113,46	67,64
1113,812	62,92
1114,164	69,26
1114,517	65,62
1114,869	168,52
1115,221	168,42
1115,573	160,61
1115,924	185,85
