Data from G4__Relative__1__00125.txt Node

Date: Wed Jan 31 18:38:06 CET 2024
User: diatiterra
Spectrometer: HDX00911
Trigger mode: 0
Integration Time (sec): 6,000000E-3
Scans to average: 2
Nonlinearity correction enabled: false
Boxcar width: 0
Storing dark spectrum: false
XAxis mode: Wavelengths
Number of Pixels in Spectrum: 2068
>>>>>Begin Spectral Data<<<<<
194,468	250
195,025	167,27
195,581	235,37
196,138	223,08
196,694	149,38
197,251	122,73
197,807	108,27
198,363	110
198,919	91,72
199,474	99,26
200,03	111,89
200,586	110,27
201,141	90,32
201,696	96,64
202,251	92,42
202,806	91,96
203,361	106,67
203,916	94,44
204,471	102,19
205,025	116,94
205,58	96,07
206,134	97,2
206,688	100
207,242	115,04
207,796	98,12
208,35	97,1
208,904	105,86
209,457	87,5
210,011	91,49
210,564	97,54
211,117	97,74
211,67	103,36
212,223	101,71
212,776	106,85
213,329	92,33
213,881	123,04
214,434	91,45
214,986	114,46
215,538	104,41
216,09	93,31
216,642	111,16
217,194	110,23
217,746	101,5
218,297	103,44
218,849	103,68
219,4	113,03
219,951	106,05
220,502	103,72
221,053	109,92
221,604	96,31
222,155	96,03
222,705	98,53
223,256	104,1
223,806	102,36
224,356	96,92
224,906	118,15
225,456	106,59
226,006	93,25
226,556	86,69
227,106	113,71
227,655	87,15
228,204	105,83
228,754	100,35
229,303	97,14
229,852	93,17
230,401	100,37
230,949	101,44
231,498	93,66
232,047	90,26
232,595	95,86
233,143	104,72
233,691	97,67
234,239	95,71
234,787	104
235,335	104,48
235,883	96,5
236,43	98,86
236,978	107,31
237,525	102,92
238,072	94,33
238,619	107,58
239,166	98,94
239,713	95,99
240,26	101,43
240,806	98,61
241,353	102,78
241,899	96,85
242,445	102,19
242,991	107,25
243,537	98,48
244,083	113,74
244,629	102,31
245,174	111,5
245,72	97,41
246,265	92,86
246,81	102,4
247,355	110,71
247,9	94,78
248,445	113,1
248,99	100,38
249,534	131,3
250,079	107,52
250,623	97,41
251,168	115,7
251,712	107,03
252,256	107,38
252,8	109,62
253,343	98,93
253,887	100,4
254,43	98,47
254,974	100
255,517	92,47
256,06	106,54
256,603	100,37
257,146	105,43
257,689	107,48
258,232	105,93
258,774	101,06
259,317	113,98
259,859	115,14
260,401	109,69
260,943	92,91
261,485	100,71
262,027	104
262,569	103,73
263,11	101,92
263,652	116,93
264,193	107,85
264,734	106,2
265,275	109,84
265,816	100,38
266,357	111,24
266,898	104,23
267,438	110,24
267,979	100
268,519	97,01
269,059	117,29
269,6	101,88
270,14	115,32
270,68	106,88
271,219	111,02
271,759	93,23
272,298	106,02
272,838	100,38
273,377	109,52
273,916	94,24
274,455	106,93
274,994	103,2
275,533	102,54
276,072	100
276,61	96,38
277,149	111,25
277,687	102,26
278,225	91,33
278,763	124,12
279,301	110
279,839	108,87
280,377	107,38
280,914	91,26
281,452	108,12
281,989	108,26
282,526	111,02
283,064	116,81
283,601	90,54
284,137	104,96
284,674	108,75
285,211	116,23
285,747	106,82
286,284	123,42
286,82	101,24
287,356	91,45
287,892	100,78
288,428	106,61
288,964	123,95
289,5	117,36
290,035	102,4
290,571	110,92
291,106	113,41
291,641	114,29
292,176	108,59
292,711	109,76
293,246	93,85
293,781	104,13
294,315	88,73
294,85	112,5
295,384	107,38
295,918	97,43
296,453	85,82
296,987	107,44
297,52	109,92
298,054	96,56
298,588	107,92
299,121	97,76
299,655	109,12
300,188	109,17
300,721	108,13
301,254	103,23
301,787	96,09
302,32	113,82
302,853	100
303,385	102,86
303,918	101,94
304,45	100
304,982	96,45
305,514	107,36
306,046	103,72
306,578	100,39
307,11	106,2
307,641	106,47
308,173	110,33
308,704	103,72
309,236	98,5
309,767	100,35
310,298	103,23
310,829	110
311,359	104,03
311,89	102,1
312,421	114,41
312,951	118,7
313,481	90,69
314,012	102,61
314,542	113,56
315,072	101,91
315,601	109,2
316,131	112,99
316,661	102,92
317,19	99,63
317,72	119,42
318,249	107,14
318,778	103,12
319,307	99,61
319,836	113,27
320,365	112,17
320,893	110,33
321,422	111,38
321,95	110,53
322,479	96,95
323,007	109,55
323,535	97,86
324,063	104
324,591	107,6
325,118	106,2
325,646	108,82
326,173	106,25
326,701	108,94
327,228	112,07
327,755	101,88
328,282	101,15
328,809	110,59
329,336	112,2
329,862	105,51
330,389	99,22
330,915	106,3
331,441	101,91
331,968	116,22
332,494	94,32
333,02	107,5
333,545	98,88
334,071	113,22
334,597	90,49
335,122	102,96
335,648	108,62
336,173	97,73
336,698	86,08
337,223	94,12
337,748	92,71
338,272	98,29
338,797	97,46
339,322	94,16
339,846	85,29
340,37	109,68
340,894	92,01
341,419	98,87
341,942	94,06
342,466	88,78
342,99	81,88
343,514	101,06
344,037	82,91
344,56	108,15
345,084	91,78
345,607	98,61
346,13	89,44
346,653	97,67
347,175	91,35
347,698	85,53
348,221	87,86
348,743	83,85
349,265	89,93
349,787	78,53
350,309	86,71
350,831	79,01
351,353	85,67
351,875	84,8
352,397	94,06
352,918	88,82
353,439	90,4
353,961	73,26
354,482	80,41
355,003	78,78
355,524	85,83
356,044	77,56
356,565	90,66
357,086	80,51
357,606	69,23
358,126	71,81
358,646	69,13
359,167	76,49
359,687	83,05
360,206	74,86
360,726	71,56
361,246	75
361,765	77,12
362,285	72
362,804	77,89
363,323	68,54
363,842	72,8
364,361	74,88
364,88	74,14
365,398	69,65
365,917	68,16
366,435	80,73
366,954	69,2
367,472	72,88
367,99	70,62
368,508	63,36
369,026	71,59
369,544	67,76
370,061	68,49
370,579	63,52
371,096	69,95
371,613	67,67
372,131	61,42
372,648	62,01
373,165	59,38
373,681	62,45
374,198	67,77
374,715	60,71
375,231	62,88
375,747	61,72
376,264	54,76
376,78	59,35
377,296	65,24
377,812	58,8
378,327	56,95
378,843	60,07
379,359	62,09
379,874	59,86
380,389	56,78
380,905	54,18
381,42	53,04
381,935	56,86
382,449	53,69
382,964	53,14
383,479	49,43
383,993	49,86
384,508	49,61
385,022	47,54
385,536	52,5
386,05	48,56
386,564	47,14
387,078	48,68
387,592	47,32
388,105	47,16
388,619	43,64
389,132	41,91
389,645	46,67
390,158	42,49
390,671	39,92
391,184	38,77
391,697	40,68
392,21	36,79
392,722	38,19
393,235	39,68
393,747	40,08
394,259	39,14
394,771	36,38
395,283	37,27
395,795	35,45
396,307	38,13
396,818	37,02
397,33	35,37
397,841	34,42
398,353	35,52
398,864	34,33
399,375	33,97
399,886	32,57
400,397	31,98
400,907	31,73
401,418	29,18
401,928	27,73
402,439	29,78
402,949	26,38
403,459	28,7
403,969	27,83
404,479	25,06
404,989	26,61
405,498	25,11
406,008	23,76
406,517	23,42
407,027	20,46
407,536	20,76
408,045	20,86
408,554	21,53
409,063	18,78
409,572	19,02
410,08	17,94
410,589	17,89
411,097	17,53
411,606	16,82
412,114	17,01
412,622	15,81
413,13	16,32
413,638	14,57
414,145	14,69
414,653	14,71
415,16	13,87
415,668	14,34
416,175	12,72
416,682	12,3
417,189	12,44
417,696	12,96
418,203	12,4
418,71	12,4
419,216	11,9
419,723	11,35
420,229	11,37
420,735	10,62
421,242	11,11
421,748	10,28
422,254	10,66
422,759	10,3
423,265	11,01
423,771	10,11
424,276	10,03
424,781	10,02
425,287	9,96
425,792	10,14
426,297	10,14
426,802	9,24
427,306	9,74
427,811	9,08
428,316	10,06
428,82	9,74
429,324	9,42
429,829	9,41
430,333	9,12
430,837	8,99
431,34	9,03
431,844	8,93
432,348	8,47
432,851	8,66
433,355	8,69
433,858	9,28
434,361	8,63
434,864	8,76
435,367	8,57
435,87	8,96
436,373	8,73
436,876	8,58
437,378	8,57
437,88	8,11
438,383	8,38
438,885	8,78
439,387	8,36
439,889	8,28
440,391	8,49
440,892	8,57
441,394	8,25
441,896	8,22
442,397	8,52
442,898	7,67
443,399	8,15
443,9	8,1
444,401	7,89
444,902	8,18
445,403	8,5
445,903	8,59
446,404	8,26
446,904	8,39
447,405	7,62
447,905	8,14
448,405	8,07
448,905	8,31
449,404	8,5
449,904	8,04
450,404	7,88
450,903	8,34
451,403	8,03
451,902	8,59
452,401	8,24
452,9	8,54
453,399	8,2
453,898	8,49
454,396	8,37
454,895	8,3
455,393	8,25
455,892	8,06
456,39	8,16
456,888	8,6
457,386	8,47
457,884	8,14
458,382	8,6
458,879	8,48
459,377	8,46
459,874	8,29
460,372	8,51
460,869	8,43
461,366	8,22
461,863	8,43
462,36	8,34
462,857	8,68
463,353	8,29
463,85	7,98
464,346	7,84
464,843	8,55
465,339	8,13
465,835	8,42
466,331	8,34
466,827	7,93
467,323	8,18
467,818	8,2
468,314	8,33
468,809	8,34
469,305	7,95
469,8	8,16
470,295	7,81
470,79	8,05
471,285	8,28
471,78	7,9
472,274	7,85
472,769	8,22
473,263	8,13
473,758	8,18
474,252	8,02
474,746	8,29
475,24	8,04
475,734	7,73
476,228	8,01
476,721	7,9
477,215	8,04
477,708	7,83
478,202	7,96
478,695	8,33
479,188	7,81
479,681	7,97
480,174	7,97
480,667	8,13
481,159	8,11
481,652	8
482,144	8,08
482,637	8,1
483,129	8,13
483,621	8,21
484,113	8,12
484,605	8,23
485,097	8,04
485,588	7,93
486,08	8,1
486,571	8,31
487,063	8,06
487,554	8,45
488,045	8,24
488,536	8,39
489,027	8,27
489,518	8,43
490,008	8,07
490,499	8,4
490,989	8,41
491,48	8,54
491,97	8,53
492,46	8,58
492,95	8,54
493,44	8,87
493,93	8,62
494,419	8,62
494,909	8,69
495,398	8,67
495,888	8,67
496,377	9,26
496,866	9,05
497,355	9,18
497,844	9,36
498,333	9,37
498,821	9,42
499,31	9,45
499,798	9,95
500,287	9,8
500,775	9,8
501,263	10,12
501,751	9,97
502,239	10,13
502,727	9,94
503,215	10,47
503,702	10,6
504,19	10,62
504,677	10,91
505,164	11,28
505,651	11,03
506,139	11,37
506,625	11,47
507,112	11,47
507,599	11,65
508,086	11,71
508,572	12,59
509,058	12,32
509,545	12,45
510,031	12,58
510,517	13,14
511,003	13,17
511,489	13,41
511,974	13,88
512,46	13,8
512,946	13,95
513,431	14,56
513,916	14,62
514,401	14,77
514,887	14,84
515,371	15,36
515,856	15,73
516,341	15,95
516,826	15,75
517,31	16,32
517,795	16,93
518,279	16,33
518,763	17,46
519,247	17,65
519,731	18
520,215	18,12
520,699	18,22
521,182	18,83
521,666	18,93
522,149	19,22
522,633	19,46
523,116	20,06
523,599	20,33
524,082	20,39
524,565	20,39
525,048	20,66
525,53	20,99
526,013	21,23
526,495	21,42
526,978	21,52
527,46	21,63
527,942	21,6
528,424	22,21
528,906	22,29
529,388	22,06
529,87	22,92
530,351	22,48
530,833	22,98
531,314	23,24
531,795	23,14
532,277	23,61
532,758	23,91
533,238	22,98
533,719	23,61
534,2	23,92
534,681	24,55
535,161	24,41
535,642	24,24
536,122	23,83
536,602	24,21
537,082	23,88
537,562	24,7
538,042	24,39
538,522	24,89
539,001	24,72
539,481	24,48
539,96	24,93
540,44	24,5
540,919	24,85
541,398	24,94
541,877	24,78
542,356	24,7
542,835	24,62
543,313	24,82
543,792	25,05
544,27	25,06
544,749	25,24
545,227	25,41
545,705	25,2
546,183	25,21
546,661	25,14
547,139	25,3
547,616	25,1
548,094	25,12
548,571	25,54
549,049	25,73
549,526	25,26
550,003	25,63
550,48	25,15
550,957	25,44
551,434	25,34
551,911	25,46
552,387	25,4
552,864	25,51
553,34	25,91
553,817	25,47
554,293	25,88
554,769	25,45
555,245	25,52
555,721	25,68
556,197	25,51
556,672	25,69
557,148	25,45
557,623	25,55
558,099	25,61
558,574	25,84
559,049	25,17
559,524	25,34
559,999	25,4
560,474	24,82
560,948	24,89
561,423	25,31
561,897	25,01
562,372	25,18
562,846	25,22
563,32	24,93
563,794	24,69
564,268	25,09
564,742	24,61
565,216	24,58
565,69	24,33
566,163	24,53
566,636	23,77
567,11	24,02
567,583	23,69
568,056	23,84
568,529	24
569,002	23,57
569,475	23,43
569,947	23,08
570,42	23,46
570,892	23,15
571,365	23,19
571,837	23,05
572,309	22,68
572,781	22,4
573,253	22,23
573,725	22,26
574,197	21,87
574,668	21,9
575,14	21,88
575,611	21,58
576,082	21,3
576,554	21,51
577,025	21,26
577,496	20,95
577,967	20,93
578,437	20,97
578,908	20,67
579,379	20,64
579,849	20,78
580,319	20,43
580,79	20,31
581,26	20,31
581,73	20,02
582,2	20,13
582,669	19,81
583,139	19,75
583,609	19,44
584,078	19,82
584,548	19,54
585,017	19,72
585,486	19,49
585,955	19,43
586,424	19,22
586,893	19,03
587,362	18,88
587,83	19,11
588,299	18,77
588,767	18,84
589,236	18,8
589,704	18,71
590,172	18,67
590,64	18,57
591,108	18,42
591,576	18,52
592,043	18,2
592,511	18,1
592,978	18,23
593,446	17,95
593,913	17,95
594,38	18,07
594,847	17,96
595,314	17,99
595,781	17,84
596,248	17,74
596,715	17,85
597,181	17,7
597,647	17,63
598,114	17,97
598,58	17,4
599,046	17,5
599,512	17,71
599,978	17,66
600,444	17,52
600,91	17,52
601,375	17,49
601,841	17,33
602,306	17,53
602,771	17,28
603,236	17,15
603,702	17,43
604,167	17,43
604,631	17,2
605,096	17,16
605,561	17,04
606,025	17,17
606,49	16,83
606,954	16,79
607,418	16,7
607,882	16,79
608,347	16,76
608,81	16,63
609,274	16,36
609,738	16,46
610,202	16,48
610,665	16,43
611,128	16,13
611,592	16,12
612,055	15,94
612,518	16,05
612,981	16,05
613,444	15,78
613,907	15,62
614,369	15,64
614,832	15,48
615,294	15,45
615,757	15,39
616,219	15,36
616,681	15,21
617,143	15,28
617,605	15,25
618,067	15,02
618,529	15,02
618,99	14,9
619,452	14,84
619,913	14,79
620,375	15
620,836	14,78
621,297	14,93
621,758	14,51
622,219	14,49
622,68	14,44
623,14	14,27
623,601	14,3
624,061	14,32
624,522	14,28
624,982	14,23
625,442	14,46
625,902	14,47
626,362	14,18
626,822	14,16
627,282	14,33
627,742	14,21
628,201	14,11
628,661	14,07
629,12	14,09
629,579	13,99
630,038	14,12
630,497	14,21
630,956	13,94
631,415	13,84
631,874	13,73
632,332	13,66
632,791	13,8
633,249	13,63
633,708	13,97
634,166	13,61
634,624	13,4
635,082	13,56
635,54	13,45
635,998	13,13
636,455	13,37
636,913	13,2
637,37	12,86
637,828	13,03
638,285	12,83
638,742	12,6
639,199	12,63
639,656	12,57
640,113	12,47
640,57	12,14
641,027	11,95
641,483	12,08
641,94	11,91
642,396	11,86
642,852	11,64
643,309	11,38
643,765	11,37
644,221	11,2
644,676	10,95
645,132	10,92
645,588	10,87
646,043	10,58
646,499	10,51
646,954	10,43
647,409	10,37
647,864	10,19
648,319	9,98
648,774	10
649,229	10,06
649,684	9,82
650,139	9,77
650,593	9,78
651,047	9,77
651,502	9,7
651,956	9,61
652,41	9,54
652,864	9,42
653,318	9,56
653,772	9,38
654,225	9,49
654,679	9,27
655,133	9,33
655,586	9,29
656,039	9,19
656,492	9,25
656,946	9,01
657,399	9,07
657,851	8,96
658,304	8,96
658,757	8,95
659,209	8,74
659,662	8,59
660,114	8,64
660,567	8,5
661,019	8,44
661,471	8,29
661,923	8,21
662,375	8,23
662,826	8,14
663,278	8
663,73	8,01
664,181	7,83
664,632	7,95
665,084	7,87
665,535	7,81
665,986	7,74
666,437	7,69
666,888	7,53
667,338	7,55
667,789	7,76
668,24	7,53
668,69	7,51
669,14	7,62
669,591	7,54
670,041	7,46
670,491	7,43
670,941	7,44
671,391	7,59
671,84	7,48
672,29	7,53
672,74	7,6
673,189	7,63
673,638	7,75
674,088	7,79
674,537	7,84
674,986	7,83
675,435	7,91
675,883	7,94
676,332	8,1
676,781	8,13
677,229	8,27
677,678	8,33
678,126	8,34
678,574	8,44
679,022	8,5
679,47	8,63
679,918	8,7
680,366	8,8
680,814	9
681,261	9,08
681,709	9,24
682,156	9,22
682,604	9,55
683,051	9,55
683,498	9,73
683,945	9,89
684,392	10,01
684,839	10,17
685,286	10,3
685,732	10,42
686,179	10,67
686,625	10,81
687,071	11,17
687,518	11,28
687,964	11,63
688,41	11,8
688,856	12,11
689,301	12,38
689,747	12,68
690,193	13,1
690,638	13,41
691,084	13,76
691,529	14,03
691,974	14,57
692,419	15,04
692,864	15,59
693,309	15,92
693,754	16,42
694,199	16,81
694,643	17,21
695,088	17,86
695,532	18,2
695,977	18,91
696,421	19,14
696,865	19,44
697,309	20,01
697,753	20,29
698,197	21,04
698,64	21,23
699,084	21,97
699,527	22,23
699,971	22,67
700,414	23,06
700,857	23,41
701,3	23,7
701,743	24,38
702,186	24,77
702,629	25,07
703,072	25,44
703,515	25,75
703,957	26,09
704,399	26,38
704,842	26,79
705,284	27,13
705,726	27,74
706,168	27,6
706,61	28,09
707,052	28,11
707,494	28,68
707,935	29,06
708,377	29,27
708,818	29,7
709,26	29,68
709,701	30,09
710,142	30,26
710,583	30,5
711,024	30,72
711,465	31,07
711,905	31,45
712,346	31,21
712,787	31,33
713,227	32,06
713,667	32,14
714,108	32,47
714,548	32,53
714,988	33,05
715,428	33,38
715,868	33,47
716,307	33,38
716,747	33,73
717,186	33,7
717,626	33,8
718,065	34,39
718,504	34,27
718,944	34,25
719,383	34,6
719,822	34,83
720,261	34,91
720,699	34,9
721,138	35,12
721,576	35,38
722,015	35,43
722,453	35,33
722,892	35,76
723,33	35,97
723,768	36,37
724,206	36,24
724,644	36,19
725,081	36,33
725,519	36,41
725,957	36,51
726,394	36,69
726,832	36,53
727,269	36,66
727,706	36,87
728,143	36,8
728,58	37,33
729,017	36,85
729,454	37,15
729,89	37,18
730,327	37,03
730,764	37,37
731,2	37,3
731,636	37,26
732,072	37,51
732,509	37,66
732,945	37,62
733,38	37,7
733,816	37,55
734,252	37,58
734,688	37,73
735,123	37,96
735,559	37,8
735,994	37,73
736,429	38,14
736,864	38,03
737,299	37,8
737,734	38,55
738,169	37,87
738,604	38,08
739,038	37,94
739,473	38,08
739,907	38,03
740,342	37,94
740,776	38,16
741,21	37,97
741,644	38,19
742,078	37,95
742,512	37,81
742,946	37,97
743,379	37,96
743,813	37,97
744,246	37,89
744,68	37,94
745,113	37,72
745,546	37,7
745,979	38,14
746,412	37,78
746,845	37,65
747,278	37,92
747,711	37,78
748,143	37,61
748,576	37,8
749,008	37,84
749,441	37,76
749,873	37,55
750,305	37,67
750,737	37,38
751,169	37,41
751,601	37,27
752,032	37,04
752,464	37,32
752,896	37,17
753,327	37,28
753,758	37,18
754,19	37,48
754,621	37,06
755,052	37,21
755,483	37,47
755,914	37,37
756,344	37,05
756,775	37,19
757,206	37,11
757,636	37,23
758,066	37,13
758,497	37,14
758,927	37,19
759,357	37,17
759,787	36,97
760,217	37,01
760,647	36,99
761,076	36,94
761,506	36,57
761,935	36,64
762,365	36,93
762,794	36,8
763,223	36,77
763,653	36,63
764,082	36,45
764,51	36,56
764,939	36,56
765,368	36,49
765,797	37,02
766,225	36,47
766,654	36,31
767,082	36,37
767,51	36,49
767,938	36,49
768,367	36,53
768,795	36,28
769,222	36,79
769,65	36,52
770,078	36,18
770,505	36,64
770,933	36,67
771,36	36,65
771,788	36,08
772,215	36,17
772,642	36,35
773,069	36,4
773,496	35,98
773,923	35,9
774,349	36,08
774,776	36,36
775,203	35,96
775,629	36,11
776,055	35,74
776,482	36,09
776,908	36,08
777,334	36,01
777,76	36,17
778,186	36,11
778,611	36,17
779,037	35,87
779,463	36,17
779,888	35,95
780,314	35,88
780,739	35,86
781,164	36,27
781,589	35,77
782,014	35,88
782,439	35,78
782,864	35,97
783,289	35,91
783,713	35,93
784,138	36,08
784,562	35,86
784,987	35,94
785,411	35,42
785,835	35,71
786,259	35,75
786,683	36,08
787,107	35,64
787,531	35,99
787,954	35,76
788,378	35,92
788,802	35,94
789,225	35,41
789,648	35,84
790,071	35,22
790,495	35,76
790,918	35,69
791,34	35,4
791,763	35,72
792,186	35,65
792,609	35,61
793,031	35,35
793,454	35,59
793,876	35,85
794,298	35,58
794,721	35,29
795,143	35,64
795,565	35,45
795,986	35,53
796,408	35,61
796,83	35,37
797,252	35,57
797,673	35,9
798,094	35,72
798,516	35,74
798,937	35,66
799,358	35,51
799,779	35,75
800,2	35,63
800,621	35,3
801,042	35,56
801,462	35,39
801,883	35,35
802,303	35,22
802,724	35,42
803,144	35,29
803,564	35,28
803,984	35,49
804,404	35,35
804,824	35,54
805,244	35,51
805,664	35,59
806,084	35,63
806,503	35,58
806,923	35,46
807,342	35,3
807,761	35,24
808,18	35,41
808,599	35,1
809,018	35,33
809,437	35,58
809,856	35,53
810,275	35,32
810,693	35,15
811,112	35,65
811,53	35,39
811,949	35,42
812,367	35,5
812,785	35,42
813,203	35,37
813,621	35,29
814,039	35,47
814,457	35,3
814,874	35,16
815,292	35,33
815,709	35,41
816,127	35,41
816,544	35,22
816,961	35,29
817,378	35,67
817,795	35,41
818,212	35,33
818,629	35,68
819,046	35,25
819,462	35,39
819,879	35,29
820,295	35,29
820,712	35,34
821,128	35,21
821,544	35,5
821,96	35,16
822,376	35,36
822,792	35,45
823,208	35,4
823,624	35,58
824,039	35,27
824,455	35,3
824,87	34,93
825,286	35,24
825,701	35,07
826,116	35,43
826,531	35,37
826,946	35,16
827,361	34,96
827,776	35,29
828,19	35,13
828,605	34,97
829,02	34,96
829,434	35,34
829,848	35,14
830,263	35,47
830,677	35,19
831,091	34,95
831,505	34,99
831,919	35,11
832,332	35,64
832,746	35,29
833,16	34,83
833,573	34,9
833,987	35,42
834,4	34,89
834,813	34,77
835,226	34,87
835,639	34,87
836,052	34,74
836,465	35,33
836,878	35,32
837,29	35,16
837,703	35,08
838,116	34,94
838,528	35,19
838,94	35,48
839,352	35,04
839,765	35,29
840,177	35,25
840,589	35,2
841	34,46
841,412	35,01
841,824	34,99
842,235	35
842,647	34,7
843,058	35,14
843,47	35,02
843,881	35,05
844,292	35,15
844,703	35,01
845,114	35,14
845,525	35,07
845,935	34,88
846,346	34,92
846,757	35,09
847,167	34,94
847,577	34,98
847,988	34,91
848,398	34,73
848,808	34,96
849,218	35,23
849,628	34,83
850,038	34,8
850,448	35,06
850,857	35,11
851,267	35,18
851,676	35,04
852,086	34,94
852,495	35,04
852,904	34,99
853,313	34,8
853,722	35,01
854,131	35,23
854,54	34,67
854,949	34,82
855,357	34,92
855,766	35,08
856,174	34,81
856,583	34,83
856,991	34,73
857,399	35,07
857,807	34,84
858,215	35,14
858,623	35,42
859,031	34,7
859,439	35,19
859,846	34,93
860,254	34,76
860,661	35,21
861,069	35
861,476	34,99
861,883	34,61
862,29	34,58
862,697	35
863,104	34,94
863,511	34,81
863,918	34,35
864,325	34,82
864,731	34,94
865,138	34,52
865,544	34,64
865,95	34,99
866,357	34,95
866,763	35,21
867,169	34,78
867,575	34,64
867,98	34,9
868,386	34,75
868,792	35,09
869,197	34,71
869,603	34,7
870,008	34,88
870,414	35,12
870,819	34,7
871,224	34,91
871,629	34,77
872,034	34,65
872,439	34,42
872,844	34,83
873,248	34,66
873,653	34,87
874,057	34,88
874,462	34,84
874,866	34,85
875,27	34,78
875,674	35,01
876,078	34,81
876,482	34,69
876,886	34,68
877,29	34,8
877,694	34,88
878,097	34,46
878,501	34,41
878,904	34,41
879,308	34,48
879,711	34,8
880,114	34,61
880,517	35,23
880,92	35,27
881,323	34,96
881,726	34,97
882,128	34,99
882,531	34,95
882,934	34,78
883,336	34,82
883,738	34,85
884,141	34,89
884,543	34,86
884,945	34,63
885,347	34,76
885,749	34,6
886,151	35,07
886,552	34,66
886,954	34,46
887,355	34,9
887,757	34,42
888,158	34,83
888,56	34,88
888,961	34,73
889,362	34,72
889,763	34,82
890,164	35,14
890,565	34,72
890,965	35,24
891,366	35,24
891,767	34,77
892,167	34,65
892,567	34,83
892,968	34,77
893,368	34,57
893,768	34,46
894,168	34,63
894,568	34,34
894,968	34,52
895,368	34,5
895,767	34,92
896,167	34,93
896,566	34,62
896,966	34,93
897,365	34,68
897,764	34,68
898,164	34,84
898,563	34,95
898,962	34,77
899,361	35,19
899,759	35,02
900,158	34,69
900,557	34,72
900,955	34,55
901,354	34,76
901,752	34,6
902,15	34,64
902,548	34,67
902,947	34,79
903,345	34,86
903,742	34,67
904,14	34,98
904,538	34,66
904,936	34,84
905,333	34,85
905,731	34,96
906,128	34,55
906,525	35,11
906,923	35,07
907,32	34,94
907,717	34,65
908,114	34,9
908,511	34,6
908,907	35,06
909,304	34,84
909,701	34,71
910,097	34,76
910,494	34,61
910,89	35,17
911,286	34,85
911,682	35
912,078	35,37
912,474	35,31
912,87	34,68
913,266	34,84
913,662	34,6
914,058	34,49
914,453	34,71
914,849	34,55
915,244	34,67
915,639	35,12
916,034	34,38
916,43	35,1
916,825	34,75
917,22	34,92
917,614	34,72
918,009	34,84
918,404	34,64
918,798	34,67
919,193	34,88
919,587	34,61
919,982	34,91
920,376	34,61
920,77	34,95
921,164	34,62
921,558	34,76
921,952	34,91
922,346	34,5
922,74	34,81
923,133	34,97
923,527	34,91
923,92	34,57
924,314	34,84
924,707	34,76
925,1	34,75
925,493	34,42
925,886	34,75
926,279	34,37
926,672	34,77
927,065	34,54
927,457	34,79
927,85	34,33
928,243	35,05
928,635	34,61
929,027	34,74
929,42	34,93
929,812	34,61
930,204	35,18
930,596	35,02
930,988	35,15
931,379	35,08
931,771	35,08
932,163	34,45
932,554	34,76
932,946	34,35
933,337	34,41
933,729	34,96
934,12	34,8
934,511	35
934,902	34,63
935,293	34,42
935,684	35
936,075	35,44
936,465	34,88
936,856	34,58
937,246	35,23
937,637	34,98
938,027	34,89
938,417	34,68
938,808	34,56
939,198	34,49
939,588	35,38
939,978	34,99
940,368	35,38
940,757	35,16
941,147	35,16
941,537	35,21
941,926	35,42
942,315	36,37
942,705	35,26
943,094	35,13
943,483	35,61
943,872	34,81
944,261	34,51
944,65	34,98
945,039	35,2
945,428	35,36
945,816	34,67
946,205	35,51
946,593	35,18
946,982	35,59
947,37	34,91
947,758	35,74
948,146	35,24
948,534	35,76
948,922	35,49
949,31	34,63
949,698	35,33
950,086	35,29
950,473	34,99
950,861	35,45
951,248	35,07
951,636	34,66
952,023	34,68
952,41	34,48
952,797	34,79
953,184	35,01
953,571	35
953,958	33,81
954,345	34,02
954,731	34,83
955,118	34,48
955,505	34,24
955,891	34,57
956,277	34,69
956,664	35,04
957,05	34,28
957,436	34,37
957,822	34,42
958,208	33,98
958,594	34,08
958,979	34,47
959,365	34,13
959,751	34,63
960,136	34,35
960,522	34,44
960,907	34,71
961,292	33,99
961,677	34,86
962,062	34,49
962,447	34,74
962,832	34,01
963,217	34,04
963,602	34,48
963,986	34,63
964,371	34,32
964,756	34,41
965,14	34,35
965,524	35,04
965,908	34,53
966,293	33,75
966,677	34,43
967,061	35,02
967,445	34,5
967,828	34,71
968,212	34,5
968,596	34,45
968,979	33,96
969,363	34,23
969,746	34,76
970,129	33,72
970,513	34,27
970,896	34,33
971,279	34,64
971,662	34,61
972,045	34,04
972,428	34,88
972,81	34,58
973,193	34,74
973,575	34,23
973,958	34,02
974,34	34,36
974,723	34,54
975,105	34,23
975,487	34,59
975,869	34,2
976,251	35,04
976,633	34,41
977,015	34,24
977,396	34,59
977,778	34,42
978,16	34,28
978,541	34,77
978,922	34,71
979,304	34,57
979,685	34,62
980,066	34,56
980,447	34,46
980,828	34,69
981,209	34,03
981,59	34,53
981,97	34,38
982,351	34,6
982,732	34,69
983,112	34,84
983,493	34,67
983,873	34,88
984,253	34,44
984,633	34,92
985,013	34,71
985,393	34,77
985,773	34,72
986,153	34,77
986,533	34,64
986,912	34,74
987,292	34,69
987,671	34,7
988,051	34,83
988,43	34,59
988,809	34,4
989,188	35,19
989,567	34,98
989,946	34,7
990,325	34,93
990,704	34,99
991,083	35
991,461	35,12
991,84	34,94
992,218	34,76
992,597	35,06
992,975	35,19
993,353	35,08
993,732	34,57
994,11	35,26
994,488	34,89
994,866	34,42
995,243	35,24
995,621	35,55
995,999	34,6
996,376	34,84
996,754	35,09
997,131	34,89
997,509	35,34
997,886	34,9
998,263	35,18
998,64	34,9
999,017	34,87
999,394	34,43
999,771	35,37
1000,148	34,75
1000,524	34,87
1000,901	34,49
1001,277	35,1
1001,654	34,83
1002,03	35,21
1002,406	35,16
1002,783	35,21
1003,159	35,19
1003,535	35,13
1003,911	34,91
1004,286	35,36
1004,662	34,97
1005,038	35,69
1005,414	35,38
1005,789	35,35
1006,164	35,21
1006,54	35,35
1006,915	35,17
1007,29	34,9
1007,665	35,05
1008,04	34,79
1008,415	35,59
1008,79	34,95
1009,165	34,86
1009,54	35,21
1009,914	35,56
1010,289	35,57
1010,663	35,5
1011,038	35,38
1011,412	35,75
1011,786	35,76
1012,16	35,48
1012,535	35,27
1012,909	36,02
1013,282	36,05
1013,656	35,31
1014,03	35,47
1014,404	35,26
1014,777	34,99
1015,151	35,69
1015,524	35,7
1015,897	36,1
1016,271	35,58
1016,644	35,84
1017,017	35,77
1017,39	35,57
1017,763	35,66
1018,136	36,16
1018,508	35,78
1018,881	35,35
1019,254	35,37
1019,626	35,83
1019,999	35,32
1020,371	35,34
1020,743	35,67
1021,116	35,83
1021,488	35,98
1021,86	36,95
1022,232	36,63
1022,604	36,23
1022,975	36,6
1023,347	35,47
1023,719	36,14
1024,09	35,94
1024,462	36,53
1024,833	36,69
1025,204	36,3
1025,576	36,4
1025,947	35,81
1026,318	36,36
1026,689	36,77
1027,06	36,7
1027,431	36,73
1027,801	36,57
1028,172	35,99
1028,543	36,71
1028,913	37,13
1029,284	36,73
1029,654	36,52
1030,024	37,11
1030,394	36,5
1030,764	36,41
1031,135	36,74
1031,504	35,52
1031,874	36,46
1032,244	36,42
1032,614	36,22
1032,983	36,73
1033,353	36,9
1033,722	36,56
1034,092	36,63
1034,461	36,66
1034,83	37,23
1035,2	36,87
1035,569	36,97
1035,938	36,57
1036,307	37,08
1036,675	37,04
1037,044	36,76
1037,413	37,74
1037,781	37,84
1038,15	38,23
1038,518	37,68
1038,887	37,55
1039,255	36,97
1039,623	36,76
1039,991	37,19
1040,359	36,89
1040,727	36,95
1041,095	37,68
1041,463	37,65
1041,831	37,28
1042,198	36,6
1042,566	37,72
1042,933	38,06
1043,301	37,28
1043,668	37,45
1044,035	36,45
1044,402	38,06
1044,77	37,31
1045,137	37,89
1045,503	38,37
1045,87	38,53
1046,237	37,43
1046,604	38,43
1046,97	37,17
1047,337	38,04
1047,703	38,02
1048,07	39,03
1048,436	39,55
1048,802	38,2
1049,168	38,75
1049,534	38,47
1049,9	38,75
1050,266	39
1050,632	38,14
1050,998	38,92
1051,364	38,98
1051,729	39,54
1052,095	38,45
1052,46	39,34
1052,825	38,92
1053,191	38,2
1053,556	39,21
1053,921	37,89
1054,286	39,99
1054,651	38,77
1055,016	40,07
1055,381	38,92
1055,745	37,71
1056,11	39,51
1056,475	39,3
1056,839	39,31
1057,203	39,52
1057,568	39,57
1057,932	39,13
1058,296	39,91
1058,66	39,81
1059,024	40,11
1059,388	40,34
1059,752	38,87
1060,116	39,86
1060,48	41,33
1060,843	38,7
1061,207	40,72
1061,57	40,19
1061,934	39,7
1062,297	39,86
1062,66	39,45
1063,023	40,55
1063,386	41,61
1063,749	40,27
1064,112	39,76
1064,475	39,8
1064,838	39,47
1065,201	41,42
1065,563	39,84
1065,926	38,64
1066,288	40,44
1066,651	40,59
1067,013	41,1
1067,375	40,08
1067,737	42,34
1068,099	40,24
1068,461	41,14
1068,823	40,13
1069,185	40,52
1069,547	41,76
1069,909	38,41
1070,27	40,12
1070,632	39,13
1070,993	41,79
1071,355	39,95
1071,716	40,75
1072,077	41,48
1072,438	41,88
1072,799	42,39
1073,16	41,68
1073,521	40,27
1073,882	42,37
1074,243	41,13
1074,603	43,28
1074,964	40,27
1075,325	42,22
1075,685	40,53
1076,045	40,78
1076,406	40,33
1076,766	41,75
1077,126	42,19
1077,486	42,05
1077,846	42,41
1078,206	42,15
1078,566	41,15
1078,925	41,17
1079,285	42,78
1079,645	42,65
1080,004	42,03
1080,364	41,96
1080,723	42,17
1081,082	43,57
1081,442	42,1
1081,801	41,22
1082,16	41,73
1082,519	42,02
1082,878	43,27
1083,237	42,42
1083,595	42,96
1083,954	42,65
1084,313	43,36
1084,671	42,23
1085,03	41,76
1085,388	43,65
1085,746	43,22
1086,104	43,34
1086,463	41,98
1086,821	44,16
1087,179	44,72
1087,537	43,16
1087,894	44,11
1088,252	44,1
1088,61	41,85
1088,967	44,3
1089,325	45,16
1089,682	44,79
1090,04	45,58
1090,397	45,62
1090,754	43,71
1091,111	43,23
1091,469	45,19
1091,826	43,15
1092,182	46,62
1092,539	44,23
1092,896	43,33
1093,253	44,02
1093,609	44,72
1093,966	44,2
1094,322	45,17
1094,679	46,06
1095,035	45,24
1095,391	44,42
1095,748	45,32
1096,104	44,07
1096,46	46,71
1096,816	44,29
1097,171	45,34
1097,527	45,85
1097,883	46,35
1098,239	45,81
1098,594	46,05
1098,95	47,17
1099,305	46,49
1099,66	47,15
1100,016	42,7
1100,371	45,65
1100,726	45,98
1101,081	43,81
1101,436	48,41
1101,791	50,06
1102,146	46,16
1102,5	46,41
1102,855	45,44
1103,21	47,5
1103,564	47,36
1103,918	48
1104,273	48,12
1104,627	48,67
1104,981	44,47
1105,335	47,91
1105,69	49,2
1106,043	47,35
1106,397	47,26
1106,751	50,33
1107,105	50,27
1107,459	49,09
1107,812	51,38
1108,166	48,7
1108,519	48,91
1108,873	50
1109,226	50,56
1109,579	48,3
1109,932	50,23
1110,285	50,24
1110,638	53,47
1110,991	49,83
1111,344	46,57
1111,697	50,17
1112,05	49,74
1112,402	56,21
1112,755	53,22
1113,107	56,01
1113,46	54,03
1113,812	53,68
1114,164	59,57
1114,517	57,92
1114,869	171,3
1115,221	178,95
1115,573	163,64
1115,924	181,13
