Data from G4__Relative__4__00128.txt Node

Date: Wed Jan 31 18:38:25 CET 2024
User: diatiterra
Spectrometer: HDX00911
Trigger mode: 0
Integration Time (sec): 6,000000E-3
Scans to average: 2
Nonlinearity correction enabled: false
Boxcar width: 0
Storing dark spectrum: false
XAxis mode: Wavelengths
Number of Pixels in Spectrum: 2068
>>>>>Begin Spectral Data<<<<<
194,468	246,23
195,025	164,55
195,581	231,71
196,138	250
196,694	156,17
197,251	131,31
197,807	107,09
198,363	104
198,919	95,86
199,474	97,79
200,03	106,97
200,586	125,45
201,141	91,94
201,696	96,31
202,251	99,62
202,806	88,81
203,361	102,96
203,916	95,83
204,471	100,36
205,025	111,69
205,58	94,29
206,134	107,6
206,688	103,46
207,242	113,27
207,796	109,02
208,35	103,26
208,904	111,72
209,457	87,85
210,011	91,84
210,564	90,49
211,117	99,25
211,67	105,22
212,223	101,37
212,776	114,52
213,329	91
213,881	133,82
214,434	91,45
214,986	108,68
215,538	112,5
216,09	92,25
216,642	109,92
217,194	106,82
217,746	106,02
218,297	107,63
218,849	102,94
219,4	111,76
219,951	105,65
220,502	107,43
221,053	113,74
221,604	101,68
222,155	107,14
222,705	102,21
223,256	103,73
223,806	108,66
224,356	108,85
224,906	118,95
225,456	108,53
226,006	108,73
226,556	83,77
227,106	112,9
227,655	97,57
228,204	97,08
228,754	96,13
229,303	99,64
229,852	96,76
230,401	107,09
230,949	103,96
231,498	91,2
232,047	91,88
232,595	99,66
233,143	107,87
233,691	104,65
234,239	96,79
234,787	101,6
235,335	101,87
235,883	101,05
236,43	107,95
236,978	105,38
237,525	98,54
238,072	97,16
238,619	100,76
239,166	94,68
239,713	100
240,26	96,79
240,806	105,9
241,353	101,19
241,899	96,85
242,445	103,28
242,991	104,58
243,537	98,11
244,083	111,45
244,629	103,46
245,174	113,27
245,72	100,37
246,265	100,79
246,81	102,8
247,355	105,95
247,9	91,42
248,445	109,13
248,99	96,59
249,534	126,52
250,079	104,51
250,623	98,15
251,168	114,46
251,712	103,52
252,256	110,66
252,8	108,46
253,343	104,64
253,887	102,82
254,43	104,96
254,974	104,2
255,517	97,95
256,06	113,08
256,603	99,63
257,146	112,4
257,689	111,81
258,232	112,29
258,774	106,38
259,317	113,98
259,859	122,48
260,401	112,4
260,943	101,42
261,485	107,09
262,027	113,6
262,569	106,34
263,11	106,92
263,652	118,9
264,193	116,53
264,734	108,03
265,275	114,75
265,816	105,73
266,357	109,3
266,898	104,23
267,438	110,24
267,979	103,24
268,519	101,49
269,059	135,05
269,6	114,29
270,14	115,32
270,68	106,88
271,219	109,75
271,759	99,62
272,298	106,02
272,838	106,54
273,377	112,7
273,916	100
274,455	99,64
274,994	101,6
275,533	101,81
276,072	115,04
276,61	101,09
277,149	109,58
277,687	103,01
278,225	98,67
278,763	121,05
279,301	109,58
279,839	114,92
280,377	114,75
280,914	94,76
281,452	130,34
281,989	111,98
282,526	107,87
283,064	118,91
283,601	98,65
284,137	114,46
284,674	110,83
285,211	121,05
285,747	101,89
286,284	123,42
286,82	110,33
287,356	96,05
287,892	107,36
288,428	116,12
288,964	130,25
289,5	114,46
290,035	115,2
290,571	109,24
291,106	113,01
291,641	129,02
292,176	110,94
292,711	107,72
293,246	108,08
293,781	112,4
294,315	94,01
294,85	127,31
295,384	107,79
295,918	102,94
296,453	102,24
296,987	113,22
297,52	111,98
298,054	106,11
298,588	116,25
299,121	104,1
299,655	102,19
300,188	107,5
300,721	115,04
301,254	106,05
301,787	112,89
302,32	130,89
302,853	108,8
303,385	106,07
303,918	108,53
304,45	113,85
304,982	100
305,514	104,65
306,046	106,61
306,578	103,49
307,11	112,4
307,641	114,22
308,173	114,46
308,704	108,26
309,236	98,87
309,767	108,16
310,298	106,85
310,829	115,22
311,359	119,76
311,89	107,56
312,421	122,52
312,951	113,01
313,481	96,9
314,012	103,73
314,542	125,42
315,072	101,91
315,601	107,2
316,131	109,84
316,661	112,08
317,19	104,81
317,72	119,01
318,249	113,89
318,778	113,67
319,307	105,47
319,836	116,37
320,365	112,61
320,893	107,02
321,422	111,79
321,95	114,66
322,479	104,96
323,007	123,18
323,535	100,36
324,063	110,8
324,591	117,2
325,118	106,2
325,646	118,07
326,173	100
326,701	120,33
327,228	123,28
327,755	102,26
328,282	107,25
328,809	116,53
329,336	112,99
329,862	103,31
330,389	95,31
330,915	107,48
331,441	103,05
331,968	118,92
332,494	106,82
333,02	105
333,545	99,63
334,071	120,66
334,597	100,7
335,122	101,48
335,648	115,95
336,173	98,48
336,698	87,34
337,223	97,43
337,748	104,86
338,272	98,63
338,797	105,8
339,322	93,8
339,846	95,96
340,37	119,76
340,894	90,28
341,419	108,65
341,942	97,9
342,466	90,06
342,99	90,27
343,514	105,63
344,037	91,46
344,56	107,04
345,084	94,86
345,607	97,57
346,13	100,7
346,653	89,67
347,175	90,06
347,698	84,59
348,221	94,29
348,743	88,2
349,265	97,12
349,787	82,21
350,309	87,66
350,831	82,1
351,353	87,8
351,875	84,21
352,397	94,41
352,918	91,12
353,439	96,69
353,961	79,07
354,482	84,5
355,003	83,72
355,524	80,28
356,044	78,41
356,565	87,65
357,086	87,01
357,606	74,73
358,126	75,53
358,646	69,9
359,167	80,27
359,687	81,92
360,206	77,6
360,726	70,62
361,246	80,85
361,765	78,53
362,285	73,25
362,804	78,68
363,323	68,29
363,842	78,85
364,361	72,39
364,88	74,14
365,398	67,47
365,917	70,52
366,435	79,69
366,954	73,88
367,472	67,69
367,99	78,2
368,508	68,42
369,026	72,5
369,544	68,86
370,061	63,45
370,579	67,62
371,096	75
371,613	66,38
372,131	60,24
372,648	64,17
373,165	63,48
373,681	61,81
374,198	73,63
374,715	65,79
375,231	63,64
375,747	56,38
376,264	56,12
376,78	57,55
377,296	62,45
377,812	59,14
378,327	61,09
378,843	64,33
379,359	57,95
379,874	62,46
380,389	58,68
380,905	51,19
381,42	53,65
381,935	58,54
382,449	55,6
382,964	52,43
383,479	52,87
383,993	50,28
384,508	50,13
385,022	46,5
385,536	47,37
386,05	49,61
386,564	50,12
387,078	47,85
387,592	45,62
388,105	48,58
388,619	44,31
389,132	42,58
389,645	45,63
390,158	42,7
390,671	44,6
391,184	39,98
391,697	41,58
392,21	36,7
392,722	39,19
393,235	40,15
393,747	41,25
394,259	39,23
394,771	37,84
395,283	39,01
395,795	37,97
396,307	38,13
396,818	37,19
397,33	33,16
397,841	35,84
398,353	35,35
398,864	34,91
399,375	33,06
399,886	33,03
400,397	32,49
400,907	34
401,418	31,03
401,928	29,43
402,439	32,46
402,949	27,25
403,459	27,72
403,969	29,02
404,479	26,24
404,989	27,32
405,498	25,33
406,008	25,84
406,517	23,69
407,027	21,82
407,536	22,27
408,045	21,16
408,554	20,57
409,063	19,48
409,572	19,89
410,08	19,23
410,589	18,85
411,097	18,85
411,606	17,63
412,114	17,19
412,622	16,32
413,13	16,69
413,638	16,17
414,145	14,39
414,653	14,77
415,16	14,12
415,668	14,39
416,175	13,69
416,682	13,26
417,189	12,24
417,696	13,31
418,203	12,18
418,71	12,81
419,216	12,16
419,723	11,81
420,229	11,93
420,735	11,41
421,242	11,29
421,748	11,29
422,254	11,5
422,759	11,37
423,265	10,81
423,771	10,83
424,276	10,66
424,781	10,13
425,287	10,6
425,792	10,96
426,297	9,85
426,802	9,63
427,306	10,37
427,811	9,99
428,316	9,87
428,82	9,93
429,324	9,81
429,829	9,88
430,333	9,41
430,837	9,73
431,34	9,39
431,844	9,01
432,348	9,19
432,851	9,29
433,355	9,24
433,858	9,22
434,361	8,6
434,864	9,02
435,367	8,81
435,87	9,25
436,373	9,4
436,876	9,03
437,378	9,11
437,88	8,85
438,383	8,76
438,885	9,01
439,387	8,97
439,889	8,88
440,391	8,7
440,892	8,57
441,394	8,88
441,896	8,32
442,397	8,46
442,898	8,76
443,399	8,89
443,9	9,15
444,401	8,41
444,902	8,76
445,403	9,34
445,903	8,42
446,404	8,5
446,904	8,96
447,405	8,75
447,905	8,51
448,405	9,1
448,905	9,26
449,404	9
449,904	8,51
450,404	8,77
450,903	9,03
451,403	8,46
451,902	9,17
452,401	9,04
452,9	9,09
453,399	9,05
453,898	8,82
454,396	9,01
454,895	8,78
455,393	9,25
455,892	9,01
456,39	9,13
456,888	9,05
457,386	9,41
457,884	8,98
458,382	9,14
458,879	9,07
459,377	8,62
459,874	8,66
460,372	8,98
460,869	8,86
461,366	8,89
461,863	8,83
462,36	9,1
462,857	9,2
463,353	8,6
463,85	8,6
464,346	8,95
464,843	8,89
465,339	8,52
465,835	9,13
466,331	9,15
466,827	8,91
467,323	8,97
467,818	8,98
468,314	8,99
468,809	8,8
469,305	8,97
469,8	8,78
470,295	8,56
470,79	8,78
471,285	8,71
471,78	8,53
472,274	8,53
472,769	8,66
473,263	8,86
473,758	8,38
474,252	8,34
474,746	9,08
475,24	9,01
475,734	8,46
476,228	8,92
476,721	8,91
477,215	8,56
477,708	8,79
478,202	8,91
478,695	9
479,188	8,59
479,681	8,71
480,174	8,61
480,667	8,89
481,159	8,9
481,652	8,88
482,144	8,92
482,637	8,99
483,129	8,8
483,621	8,7
484,113	8,89
484,605	8,83
485,097	8,85
485,588	8,97
486,08	8,87
486,571	9,33
487,063	9,1
487,554	9,12
488,045	9,15
488,536	9,04
489,027	9,24
489,518	9,14
490,008	9,06
490,499	9,4
490,989	9,13
491,48	9
491,97	9,14
492,46	9,44
492,95	9,41
493,44	9,62
493,93	9,63
494,419	9,53
494,909	9,67
495,398	9,66
495,888	9,8
496,377	10
496,866	9,99
497,355	10,08
497,844	10,24
498,333	10,54
498,821	10,52
499,31	10,56
499,798	10,65
500,287	10,64
500,775	11,19
501,263	11,13
501,751	11,2
502,239	11,44
502,727	11,64
503,215	11,5
503,702	12,03
504,19	11,89
504,677	12,38
505,164	12,05
505,651	12,63
506,139	12,63
506,625	12,84
507,112	13,62
507,599	13,51
508,086	13,48
508,572	14,11
509,058	13,9
509,545	13,71
510,031	14,31
510,517	14,81
511,003	14,6
511,489	15,42
511,974	15,4
512,46	15,36
512,946	16,04
513,431	16,2
513,916	16,26
514,401	16,73
514,887	16,94
515,371	17,43
515,856	17,78
516,341	17,65
516,826	17,85
517,31	18,37
517,795	18,59
518,279	18,62
518,763	19,06
519,247	19,44
519,731	19,97
520,215	20,28
520,699	19,96
521,182	20,52
521,666	20,77
522,149	20,92
522,633	21,4
523,116	21,88
523,599	22,29
524,082	21,99
524,565	22,34
525,048	22,45
525,53	22,91
526,013	22,96
526,495	23,66
526,978	23,44
527,46	23,79
527,942	23,64
528,424	24,66
528,906	24,48
529,388	24,93
529,87	25,14
530,351	24,57
530,833	24,95
531,314	25,4
531,795	25,21
532,277	25,44
532,758	25,71
533,238	25,52
533,719	25,7
534,2	25,72
534,681	26,59
535,161	26,01
535,642	26,78
536,122	26,31
536,602	26,49
537,082	26,6
537,562	26,64
538,042	26,75
538,522	26,91
539,001	26,89
539,481	27,23
539,96	26,4
540,44	26,68
540,919	26,83
541,398	27,02
541,877	26,73
542,356	27,18
542,835	26,91
543,313	26,79
543,792	27,37
544,27	26,92
544,749	27,29
545,227	27,33
545,705	27,41
546,183	27,68
546,661	27,26
547,139	27,59
547,616	27,08
548,094	27,39
548,571	27,48
549,049	27,8
549,526	27,84
550,003	27,79
550,48	27,81
550,957	27,74
551,434	27,45
551,911	27,96
552,387	27,65
552,864	27,42
553,34	27,75
553,817	27
554,293	27,67
554,769	27,44
555,245	27,65
555,721	27,72
556,197	27,64
556,672	27,5
557,148	27,57
557,623	27,48
558,099	27,48
558,574	27,62
559,049	27,22
559,524	27,58
559,999	27,43
560,474	27,18
560,948	27,21
561,423	27,27
561,897	26,92
562,372	27,35
562,846	27,3
563,32	27
563,794	26,58
564,268	27,21
564,742	26,83
565,216	26,47
565,69	26,16
566,163	26,35
566,636	26,21
567,11	26,29
567,583	26,24
568,056	25,66
568,529	25,98
569,002	25,53
569,475	25,56
569,947	25,38
570,42	25,4
570,892	24,96
571,365	24,8
571,837	24,94
572,309	24,19
572,781	24,58
573,253	24,54
573,725	24,23
574,197	23,77
574,668	23,75
575,14	23,67
575,611	23,56
576,082	22,91
576,554	23,04
577,025	23,06
577,496	22,72
577,967	22,76
578,437	22,92
578,908	22,42
579,379	22,31
579,849	22,3
580,319	22,41
580,79	21,92
581,26	21,84
581,73	21,93
582,2	21,74
582,669	21,6
583,139	21,4
583,609	21,13
584,078	21,65
584,548	21,13
585,017	21,25
585,486	21,01
585,955	21,07
586,424	21,17
586,893	20,77
587,362	20,55
587,83	20,73
588,299	20,6
588,767	20,64
589,236	20,62
589,704	20,35
590,172	20,07
590,64	20,33
591,108	19,92
591,576	20,12
592,043	19,97
592,511	19,88
592,978	20,03
593,446	19,65
593,913	19,71
594,38	19,81
594,847	19,71
595,314	19,63
595,781	19,46
596,248	19,4
596,715	19,46
597,181	19,34
597,647	19,39
598,114	19,49
598,58	19,07
599,046	19,31
599,512	19,02
599,978	18,97
600,444	19,16
600,91	19,04
601,375	19,06
601,841	19,27
602,306	19,02
602,771	18,9
603,236	18,87
603,702	19,24
604,167	19,01
604,631	18,89
605,096	18,66
605,561	18,91
606,025	18,54
606,49	18,68
606,954	18,32
607,418	18,42
607,882	18,21
608,347	18,32
608,81	18,29
609,274	18,05
609,738	17,95
610,202	18,18
610,665	17,78
611,128	17,71
611,592	17,53
612,055	17,49
612,518	17,76
612,981	17,52
613,444	17,16
613,907	17,22
614,369	17,16
614,832	17,16
615,294	16,87
615,757	16,99
616,219	16,9
616,681	16,4
617,143	16,74
617,605	16,57
618,067	16,44
618,529	16,41
618,99	16,36
619,452	16,27
619,913	16,31
620,375	16,36
620,836	16,31
621,297	16,33
621,758	15,97
622,219	15,98
622,68	15,91
623,14	15,81
623,601	15,79
624,061	15,72
624,522	15,6
624,982	15,66
625,442	15,81
625,902	15,67
626,362	15,58
626,822	15,7
627,282	15,55
627,742	15,56
628,201	15,45
628,661	15,6
629,12	15,47
629,579	15,32
630,038	15,58
630,497	15,58
630,956	15,47
631,415	15,18
631,874	15,21
632,332	15,29
632,791	15,28
633,249	15,22
633,708	15,28
634,166	15,04
634,624	14,99
635,082	15,03
635,54	14,88
635,998	14,54
636,455	14,67
636,913	14,66
637,37	14,29
637,828	14,35
638,285	14,26
638,742	14,22
639,199	14,02
639,656	13,91
640,113	13,79
640,57	13,56
641,027	13,48
641,483	13,4
641,94	13,29
642,396	13,15
642,852	13,1
643,309	12,86
643,765	12,6
644,221	12,63
644,676	12,37
645,132	12,16
645,588	12,12
646,043	11,86
646,499	11,94
646,954	11,7
647,409	11,71
647,864	11,45
648,319	11,28
648,774	11,34
649,229	11,29
649,684	11,06
650,139	11
650,593	10,86
651,047	10,98
651,502	10,78
651,956	10,69
652,41	10,78
652,864	10,56
653,318	10,62
653,772	10,53
654,225	10,45
654,679	10,48
655,133	10,4
655,586	10,27
656,039	10,35
656,492	10,2
656,946	10,22
657,399	10,21
657,851	10,04
658,304	9,98
658,757	9,95
659,209	9,7
659,662	9,7
660,114	9,58
660,567	9,54
661,019	9,36
661,471	9,33
661,923	9,31
662,375	9,14
662,826	9,2
663,278	9,02
663,73	8,91
664,181	8,94
664,632	8,8
665,084	8,8
665,535	8,7
665,986	8,63
666,437	8,52
666,888	8,43
667,338	8,51
667,789	8,64
668,24	8,57
668,69	8,4
669,14	8,51
669,591	8,44
670,041	8,56
670,491	8,47
670,941	8,46
671,391	8,52
671,84	8,54
672,29	8,61
672,74	8,63
673,189	8,65
673,638	8,76
674,088	8,77
674,537	8,72
674,986	8,95
675,435	8,94
675,883	9,11
676,332	9,13
676,781	9,2
677,229	9,31
677,678	9,35
678,126	9,41
678,574	9,67
679,022	9,84
679,47	9,84
679,918	10,04
680,366	10,09
680,814	10,29
681,261	10,28
681,709	10,51
682,156	10,72
682,604	11,06
683,051	10,95
683,498	11,09
683,945	11,17
684,392	11,44
684,839	11,61
685,286	11,62
685,732	11,98
686,179	12,04
686,625	12,32
687,071	12,48
687,518	12,8
687,964	12,92
688,41	13,35
688,856	13,62
689,301	13,84
689,747	14,3
690,193	14,66
690,638	14,94
691,084	15,27
691,529	15,8
691,974	16,28
692,419	16,86
692,864	17,22
693,309	17,56
693,754	18,12
694,199	18,63
694,643	19,02
695,088	19,65
695,532	20,06
695,977	20,62
696,421	21,23
696,865	21,42
697,309	22,07
697,753	22,49
698,197	23,09
698,64	23,34
699,084	23,88
699,527	24,4
699,971	24,56
700,414	25,06
700,857	25,51
701,3	25,94
701,743	26,66
702,186	26,63
702,629	27,17
703,072	27,61
703,515	27,71
703,957	28,11
704,399	28,42
704,842	28,9
705,284	29,03
705,726	29,59
706,168	29,85
706,61	30,02
707,052	30,12
707,494	30,83
707,935	31,09
708,377	31,2
708,818	31,65
709,26	31,85
709,701	31,89
710,142	32,15
710,583	32,26
711,024	32,72
711,465	33,08
711,905	33,28
712,346	33,35
712,787	33,08
713,227	33,9
713,667	33,88
714,108	34,44
714,548	34,47
714,988	34,64
715,428	35,07
715,868	35,39
716,307	35,27
716,747	35,3
717,186	35,57
717,626	35,62
718,065	35,94
718,504	35,98
718,944	36,31
719,383	36,43
719,822	36,55
720,261	36,61
720,699	36,86
721,138	36,92
721,576	37,16
722,015	37,4
722,453	37,41
722,892	37,19
723,33	37,74
723,768	38,06
724,206	37,96
724,644	37,78
725,081	38,09
725,519	38,08
725,957	37,96
726,394	38,19
726,832	38,26
727,269	38,46
727,706	38,51
728,143	38,64
728,58	38,62
729,017	38,48
729,454	38,57
729,89	39,06
730,327	38,63
730,764	39,21
731,2	39,07
731,636	39,04
732,072	39,28
732,509	39,23
732,945	39,3
733,38	39,36
733,816	39,62
734,252	39,38
734,688	39,32
735,123	39,25
735,559	39,47
735,994	39,3
736,429	39,74
736,864	39,43
737,299	39,32
737,734	39,7
738,169	39,41
738,604	39,63
739,038	39,28
739,473	39,58
739,907	39,67
740,342	39,52
740,776	39,66
741,21	39,56
741,644	39,87
742,078	39,65
742,512	39,43
742,946	39,86
743,379	39,32
743,813	39,26
744,246	39,43
744,68	39,24
745,113	39,22
745,546	39,31
745,979	39,23
746,412	39,45
746,845	38,99
747,278	39,37
747,711	39,15
748,143	39,15
748,576	39,32
749,008	39,31
749,441	39,1
749,873	38,98
750,305	39,24
750,737	39,01
751,169	38,72
751,601	39,07
752,032	38,84
752,464	38,5
752,896	38,72
753,327	38,81
753,758	38,59
754,19	38,82
754,621	38,56
755,052	38,55
755,483	38,67
755,914	38,77
756,344	38,58
756,775	38,77
757,206	38,57
757,636	38,69
758,066	38,65
758,497	38,32
758,927	39,01
759,357	38,62
759,787	38,49
760,217	38,54
760,647	38,29
761,076	38,24
761,506	38,37
761,935	38,24
762,365	38,38
762,794	38,15
763,223	38,3
763,653	38,22
764,082	38
764,51	38,18
764,939	38,15
765,368	37,94
765,797	38,07
766,225	37,94
766,654	37,81
767,082	37,9
767,51	37,74
767,938	37,59
768,367	37,64
768,795	37,48
769,222	37,77
769,65	37,97
770,078	37,58
770,505	37,9
770,933	37,78
771,36	37,82
771,788	37,67
772,215	37,62
772,642	37,78
773,069	37,67
773,496	37,54
773,923	37,48
774,349	37,44
774,776	37,64
775,203	37,24
775,629	37,53
776,055	37,13
776,482	37,33
776,908	37,41
777,334	37,11
777,76	37,26
778,186	37,15
778,611	37,05
779,037	37,32
779,463	37,16
779,888	37,37
780,314	37,22
780,739	37,33
781,164	37,48
781,589	37
782,014	37,33
782,439	37,14
782,864	37,17
783,289	37,3
783,713	36,79
784,138	37,2
784,562	36,86
784,987	36,8
785,411	36,88
785,835	37,17
786,259	37,05
786,683	37,26
787,107	36,92
787,531	37,36
787,954	37,05
788,378	37,06
788,802	37,07
789,225	37,04
789,648	37,06
790,071	36,72
790,495	36,97
790,918	36,96
791,34	36,93
791,763	37
792,186	36,93
792,609	36,85
793,031	36,89
793,454	36,67
793,876	37,13
794,298	36,8
794,721	37,05
795,143	37,1
795,565	36,66
795,986	36,53
796,408	36,89
796,83	36,71
797,252	36,66
797,673	37,19
798,094	37,2
798,516	36,97
798,937	36,99
799,358	36,62
799,779	36,54
800,2	36,7
800,621	36,85
801,042	36,74
801,462	36,77
801,883	36,73
802,303	36,55
802,724	36,71
803,144	36,66
803,564	36,53
803,984	36,64
804,404	36,8
804,824	36,8
805,244	36,73
805,664	36,96
806,084	36,86
806,503	36,92
806,923	36,84
807,342	36,61
807,761	36,66
808,18	36,59
808,599	36,53
809,018	36,74
809,437	36,71
809,856	36,36
810,275	36,54
810,693	36,65
811,112	37,01
811,53	36,61
811,949	36,63
812,367	36,65
812,785	36,45
813,203	36,9
813,621	36,58
814,039	36,6
814,457	36,48
814,874	36,31
815,292	36,72
815,709	36,8
816,127	36,6
816,544	36,71
816,961	36,49
817,378	36,84
817,795	36,41
818,212	36,38
818,629	36,92
819,046	36,29
819,462	36,56
819,879	36,32
820,295	36,43
820,712	36,46
821,128	36,35
821,544	36,53
821,96	36,24
822,376	36,45
822,792	36,73
823,208	36,48
823,624	36,38
824,039	36,73
824,455	36,68
824,87	36,47
825,286	36,45
825,701	36,5
826,116	36,57
826,531	36,45
826,946	36,19
827,361	36,46
827,776	36,51
828,19	36,38
828,605	36,35
829,02	36,37
829,434	36,32
829,848	36,52
830,263	36,4
830,677	36,65
831,091	36,03
831,505	36,11
831,919	36,83
832,332	36,51
832,746	36,8
833,16	36,14
833,573	36,25
833,987	36,49
834,4	36,25
834,813	36,01
835,226	36,17
835,639	36,42
836,052	36,27
836,465	36,38
836,878	36,41
837,29	36,3
837,703	36,49
838,116	36,54
838,528	36,65
838,94	36,57
839,352	36,64
839,765	36,54
840,177	36,17
840,589	36,22
841	36
841,412	36,15
841,824	36,05
842,235	36,23
842,647	36,1
843,058	36,22
843,47	36,23
843,881	36,42
844,292	36,2
844,703	36,5
845,114	35,97
845,525	36,36
845,935	36,34
846,346	36,27
846,757	36,32
847,167	35,99
847,577	36,19
847,988	36,25
848,398	35,93
848,808	36,15
849,218	36,3
849,628	35,95
850,038	36,46
850,448	36,12
850,857	36,47
851,267	36,32
851,676	36,21
852,086	36,4
852,495	36,24
852,904	36,1
853,313	35,9
853,722	36,29
854,131	36,51
854,54	35,81
854,949	35,86
855,357	36,06
855,766	35,76
856,174	36,1
856,583	35,95
856,991	36,28
857,399	36,33
857,807	36,2
858,215	36,05
858,623	36,42
859,031	35,98
859,439	36,06
859,846	36,41
860,254	36,01
860,661	36,44
861,069	36,06
861,476	36
861,883	36,13
862,29	35,64
862,697	36,12
863,104	36,03
863,511	35,88
863,918	35,72
864,325	36,06
864,731	35,76
865,138	35,82
865,544	35,92
865,95	36,22
866,357	36,24
866,763	36,29
867,169	36,16
867,575	36,28
867,98	36,29
868,386	35,9
868,792	36,18
869,197	35,95
869,603	36,3
870,008	35,89
870,414	36,26
870,819	35,83
871,224	35,52
871,629	35,54
872,034	36,01
872,439	35,67
872,844	35,9
873,248	36,22
873,653	35,89
874,057	35,86
874,462	35,89
874,866	36,01
875,27	36,15
875,674	36,14
876,078	36,15
876,482	36,01
876,886	35,75
877,29	35,86
877,694	35,9
878,097	35,66
878,501	35,7
878,904	35,56
879,308	35,45
879,711	35,79
880,114	35,88
880,517	35,74
880,92	36,14
881,323	36,22
881,726	35,95
882,128	35,94
882,531	36,06
882,934	35,91
883,336	35,96
883,738	35,83
884,141	36,1
884,543	36,13
884,945	36,16
885,347	35,94
885,749	35,92
886,151	36,14
886,552	35,92
886,954	35,6
887,355	36,23
887,757	35,88
888,158	35,96
888,56	35,67
888,961	35,85
889,362	35,82
889,763	36,09
890,164	36,3
890,565	35,6
890,965	35,95
891,366	35,99
891,767	35,96
892,167	36,09
892,567	35,94
892,968	35,91
893,368	35,62
893,768	35,82
894,168	35,59
894,568	35,62
894,968	35,61
895,368	35,89
895,767	35,65
896,167	35,96
896,566	35,99
896,966	35,89
897,365	35,97
897,764	36,01
898,164	36,18
898,563	35,91
898,962	35,92
899,361	36,19
899,759	36,06
900,158	35,55
900,557	36,01
900,955	35,85
901,354	35,68
901,752	35,54
902,15	35,69
902,548	35,49
902,947	35,59
903,345	35,69
903,742	35,95
904,14	35,99
904,538	36,01
904,936	36,19
905,333	35,76
905,731	35,82
906,128	35,76
906,525	35,75
906,923	35,83
907,32	36,31
907,717	36,01
908,114	36,08
908,511	35,79
908,907	35,9
909,304	35,95
909,701	36,08
910,097	36
910,494	35,44
910,89	36,01
911,286	35,71
911,682	36,25
912,078	36,05
912,474	36,27
912,87	36,02
913,266	35,67
913,662	35,81
914,058	35,91
914,453	36,01
914,849	35,57
915,244	35,75
915,639	36,08
916,034	35,91
916,43	36,02
916,825	35,69
917,22	36,06
917,614	36,14
918,009	35,59
918,404	35,39
918,798	35,63
919,193	35,94
919,587	35,8
919,982	36,22
920,376	36,04
920,77	35,71
921,164	35,72
921,558	36,04
921,952	35,81
922,346	35,7
922,74	36,07
923,133	36,1
923,527	35,54
923,92	35,82
924,314	35,76
924,707	35,72
925,1	35,75
925,493	36,23
925,886	35,79
926,279	35,49
926,672	36,18
927,065	35,66
927,457	35,65
927,85	35,51
928,243	35,55
928,635	35,99
929,027	36,16
929,42	35,83
929,812	35,89
930,204	36,29
930,596	36,29
930,988	36,14
931,379	35,42
931,771	35,95
932,163	35,59
932,554	35,89
932,946	35,22
933,337	35,8
933,729	36,31
934,12	35,67
934,511	36,13
934,902	36,13
935,293	35,02
935,684	36,2
936,075	36,22
936,465	36,4
936,856	35,8
937,246	36,31
937,637	36,03
938,027	35,94
938,417	36,01
938,808	35,85
939,198	35,76
939,588	36,49
939,978	36,19
940,368	36,17
940,757	36,15
941,147	36,98
941,537	36,19
941,926	36,82
942,315	37,37
942,705	36,58
943,094	35,77
943,483	36,8
943,872	36,31
944,261	36,51
944,65	36,4
945,039	36,81
945,428	36,74
945,816	36,85
946,205	36,54
946,593	36,27
946,982	37,18
947,37	36,97
947,758	37
948,146	36,39
948,534	36,43
948,922	36,41
949,31	35,86
949,698	36,7
950,086	36,5
950,473	35,28
950,861	36,18
951,248	36,23
951,636	36,28
952,023	35,8
952,41	35,88
952,797	36,32
953,184	36,53
953,571	36,25
953,958	35,53
954,345	35,84
954,731	36,11
955,118	35,59
955,505	35,46
955,891	35,91
956,277	35,98
956,664	35,93
957,05	35,44
957,436	35,68
957,822	35,58
958,208	35,49
958,594	35,23
958,979	35,59
959,365	35,12
959,751	35,21
960,136	35,7
960,522	35,67
960,907	35,69
961,292	35,21
961,677	35,79
962,062	35,04
962,447	35,81
962,832	36,02
963,217	35,9
963,602	35,53
963,986	35,58
964,371	35,3
964,756	35,6
965,14	35,3
965,524	35,98
965,908	35,73
966,293	35,07
966,677	35,72
967,061	36,15
967,445	35,41
967,828	35,6
968,212	35,46
968,596	35,54
968,979	36,04
969,363	35,7
969,746	35,98
970,129	35,63
970,513	35,73
970,896	35,9
971,279	35,73
971,662	35,76
972,045	35,53
972,428	36,2
972,81	36,07
973,193	35,95
973,575	35,48
973,958	34,88
974,34	35,69
974,723	35,3
975,105	35,56
975,487	35,87
975,869	35,38
976,251	35,6
976,633	35,21
977,015	35,73
977,396	35,77
977,778	35,97
978,16	35,32
978,541	35,62
978,922	35,63
979,304	35,88
979,685	35,96
980,066	35,73
980,447	35,84
980,828	36,39
981,209	35,92
981,59	36,04
981,97	35,39
982,351	36,21
982,732	36,1
983,112	35,79
983,493	35,96
983,873	36,11
984,253	35,58
984,633	36,5
985,013	35,81
985,393	35,78
985,773	35,6
986,153	35,77
986,533	35,75
986,912	35,71
987,292	36,23
987,671	35,89
988,051	36,81
988,43	35,77
988,809	35,45
989,188	36,58
989,567	35,72
989,946	36,26
990,325	36,14
990,704	35,94
991,083	36,25
991,461	36,52
991,84	35,88
992,218	35,8
992,597	36,69
992,975	36,34
993,353	35,78
993,732	35,57
994,11	36,13
994,488	36,11
994,866	35,62
995,243	35,99
995,621	36,8
995,999	35,78
996,376	35,96
996,754	36,19
997,131	36,3
997,509	36,18
997,886	35,94
998,263	35,91
998,64	35,27
999,017	36,43
999,394	35,93
999,771	35,8
1000,148	36,17
1000,524	35,94
1000,901	35,97
1001,277	36,88
1001,654	36,2
1002,03	36,86
1002,406	36,53
1002,783	36,15
1003,159	36,2
1003,535	36,42
1003,911	36,45
1004,286	36,52
1004,662	36,12
1005,038	36,32
1005,414	36,71
1005,789	36,15
1006,164	36,22
1006,54	36,67
1006,915	36,69
1007,29	35,82
1007,665	36,01
1008,04	36,19
1008,415	36,49
1008,79	36,4
1009,165	36,25
1009,54	36,6
1009,914	36,77
1010,289	36,13
1010,663	36,12
1011,038	36,67
1011,412	36,74
1011,786	36,6
1012,16	37,44
1012,535	36,18
1012,909	37,26
1013,282	36,91
1013,656	36,87
1014,03	36,82
1014,404	37,08
1014,777	36,54
1015,151	37,08
1015,524	36,96
1015,897	36,82
1016,271	37,43
1016,644	37,33
1017,017	36,96
1017,39	36,79
1017,763	36,81
1018,136	37,21
1018,508	37,09
1018,881	37,02
1019,254	36,75
1019,626	37,06
1019,999	36,41
1020,371	37,09
1020,743	37,02
1021,116	37,34
1021,488	37,39
1021,86	38,1
1022,232	37,89
1022,604	37,26
1022,975	37,83
1023,347	37,35
1023,719	37,79
1024,09	37,82
1024,462	36,6
1024,833	37,85
1025,204	37,74
1025,576	37,42
1025,947	37,24
1026,318	36,93
1026,689	37,63
1027,06	37,64
1027,431	38,32
1027,801	38,37
1028,172	37,12
1028,543	38,31
1028,913	37,79
1029,284	37,73
1029,654	37,3
1030,024	37,48
1030,394	38,08
1030,764	36,9
1031,135	38,03
1031,504	37,18
1031,874	37,5
1032,244	37,62
1032,614	37,01
1032,983	37,47
1033,353	37,61
1033,722	38,2
1034,092	38,21
1034,461	38,08
1034,83	37,13
1035,2	37,73
1035,569	38,07
1035,938	37,81
1036,307	38,19
1036,675	37,4
1037,044	38,83
1037,413	38,87
1037,781	38,55
1038,15	39,29
1038,518	38,88
1038,887	38,26
1039,255	38,23
1039,623	38,11
1039,991	39,05
1040,359	38,2
1040,727	38,5
1041,095	38,45
1041,463	38,33
1041,831	38,55
1042,198	37,49
1042,566	39,34
1042,933	39,12
1043,301	39,12
1043,668	39,23
1044,035	37,7
1044,402	39,38
1044,77	38,47
1045,137	39,33
1045,503	39,66
1045,87	38,49
1046,237	37,8
1046,604	39,17
1046,97	37,54
1047,337	39,49
1047,703	38,81
1048,07	39,38
1048,436	39,86
1048,802	39,48
1049,168	40,48
1049,534	39,37
1049,9	40,66
1050,266	39,43
1050,632	38,61
1050,998	40,18
1051,364	40,36
1051,729	40,26
1052,095	39,28
1052,46	40,12
1052,825	40,29
1053,191	40,98
1053,556	39,45
1053,921	40,53
1054,286	40,58
1054,651	39,92
1055,016	41,05
1055,381	40,24
1055,745	38,62
1056,11	40,81
1056,475	40,63
1056,839	39,97
1057,203	40,34
1057,568	39,35
1057,932	40,51
1058,296	41,75
1058,66	41,01
1059,024	41,35
1059,388	40,94
1059,752	40,13
1060,116	41,32
1060,48	42,8
1060,843	40,29
1061,207	39,82
1061,57	40,92
1061,934	40,92
1062,297	41,44
1062,66	40,36
1063,023	41,49
1063,386	42,13
1063,749	42,11
1064,112	41,06
1064,475	41,28
1064,838	40,91
1065,201	42,44
1065,563	40,44
1065,926	41,22
1066,288	41,68
1066,651	41,63
1067,013	41,33
1067,375	41,47
1067,737	43,28
1068,099	40,95
1068,461	42,9
1068,823	41,68
1069,185	42,33
1069,547	42,2
1069,909	40,08
1070,27	41,54
1070,632	40,17
1070,993	42,03
1071,355	41,82
1071,716	40,92
1072,077	43,47
1072,438	43,19
1072,799	43,03
1073,16	44,09
1073,521	42,05
1073,882	43,4
1074,243	43,44
1074,603	43,57
1074,964	41,28
1075,325	42,46
1075,685	40,66
1076,045	41,86
1076,406	42,24
1076,766	41,8
1077,126	43,08
1077,486	43,2
1077,846	44,53
1078,206	43,08
1078,566	42,96
1078,925	42,48
1079,285	42,87
1079,645	42,62
1080,004	41,86
1080,364	42,66
1080,723	43,29
1081,082	43,98
1081,442	41,54
1081,801	43,54
1082,16	41,92
1082,519	41,56
1082,878	45,08
1083,237	42,49
1083,595	44,25
1083,954	42,58
1084,313	43,33
1084,671	42,85
1085,03	45,69
1085,388	42,65
1085,746	44,09
1086,104	43,66
1086,463	45,11
1086,821	46,19
1087,179	44,65
1087,537	44,53
1087,894	45,4
1088,252	43,64
1088,61	42,66
1088,967	44,3
1089,325	44,36
1089,682	46,01
1090,04	47,16
1090,397	47,03
1090,754	45,05
1091,111	45,76
1091,469	47,53
1091,826	44,95
1092,182	47,37
1092,539	46,19
1092,896	45,02
1093,253	44,28
1093,609	46,74
1093,966	44,6
1094,322	44,81
1094,679	45,7
1095,035	46,35
1095,391	45,61
1095,748	46,26
1096,104	46,42
1096,46	46,71
1096,816	45,41
1097,171	45,73
1097,527	47,8
1097,883	49,69
1098,239	44,7
1098,594	44,76
1098,95	46,75
1099,305	47,6
1099,66	45,45
1100,016	46,66
1100,371	49,08
1100,726	46,9
1101,081	46,14
1101,436	48,41
1101,791	49,08
1102,146	47,12
1102,5	49,47
1102,855	46,61
1103,21	48,6
1103,564	49,82
1103,918	50,3
1104,273	48,43
1104,627	48,8
1104,981	47
1105,335	49,68
1105,69	52,14
1106,043	48,26
1106,397	47,52
1106,751	51,07
1107,105	49,05
1107,459	48,68
1107,812	53,28
1108,166	52,38
1108,519	50,07
1108,873	50,44
1109,226	53,35
1109,579	51,93
1109,932	52,73
1110,285	51,94
1110,638	57,11
1110,991	52,48
1111,344	50,48
1111,697	51,19
1112,05	48,64
1112,402	54,61
1112,755	53,86
1113,107	56,3
1113,46	55,14
1113,812	55,46
1114,164	62,84
1114,517	56,94
1114,869	171,3
1115,221	169,3
1115,573	165,15
1115,924	182,08
