Data from G6__Relative__2__00134.txt Node

Date: Wed Jan 31 18:39:34 CET 2024
User: diatiterra
Spectrometer: HDX00911
Trigger mode: 0
Integration Time (sec): 6,000000E-3
Scans to average: 2
Nonlinearity correction enabled: false
Boxcar width: 0
Storing dark spectrum: false
XAxis mode: Wavelengths
Number of Pixels in Spectrum: 2068
>>>>>Begin Spectral Data<<<<<
194,468	267,92
195,025	190
195,581	260,98
196,138	244,87
196,694	185,19
197,251	144,95
197,807	122,44
198,363	124
198,919	111,38
199,474	112,5
200,03	127,87
200,586	132,14
201,141	105,48
201,696	108,39
202,251	117,8
202,806	112,59
203,361	117,04
203,916	112,85
204,471	117,52
205,025	131,05
205,58	112,86
206,134	126,4
206,688	111,15
207,242	136,73
207,796	108,65
208,35	123,91
208,904	115,86
209,457	96,88
210,011	106,38
210,564	107,39
211,117	110,15
211,67	115,67
212,223	115,41
212,776	118,95
213,329	109
213,881	153,92
214,434	107,57
214,986	126,45
215,538	118,38
216,09	104,23
216,642	124,79
217,194	127,27
217,746	115,41
218,297	113,36
218,849	123,53
219,4	128,15
219,951	125
220,502	116,89
221,053	119,47
221,604	116,78
222,155	125
222,705	109,93
223,256	126,49
223,806	125,98
224,356	114,23
224,906	122,58
225,456	123,26
226,006	114,68
226,556	97,4
227,106	125,81
227,655	113,89
228,204	122,92
228,754	113,73
229,303	106,43
229,852	108,99
230,401	120,15
230,949	119,42
231,498	104,58
232,047	104,87
232,595	116,21
233,143	118,9
233,691	118,99
234,239	112,14
234,787	118,4
235,335	116,79
235,883	110,84
236,43	124,24
236,978	119,23
237,525	117,88
238,072	115,25
238,619	115,53
239,166	103,55
239,713	108,03
240,26	107,5
240,806	111,46
241,353	127,38
241,899	112,94
242,445	114,6
242,991	116,41
243,537	113,64
244,083	126,72
244,629	119,62
245,174	135,4
245,72	111,85
246,265	107,14
246,81	121,6
247,355	124,21
247,9	105,22
248,445	122,22
248,99	114,39
249,534	142,17
250,079	119,55
250,623	116,3
251,168	133,88
251,712	116,02
252,256	118,85
252,8	134,23
253,343	120
253,887	113,71
254,43	120,99
254,974	119,08
255,517	113,36
256,06	126,92
256,603	113,33
257,146	127,52
257,689	132,28
258,232	135,59
258,774	124,47
259,317	133,05
259,859	133,03
260,401	126,74
260,943	112,06
261,485	119,15
262,027	130,8
262,569	120,15
263,11	116,54
263,652	140,16
264,193	127,27
264,734	117,15
265,275	125,82
265,816	111,83
266,357	121,71
266,898	126,15
267,438	124,8
267,979	108,63
268,519	114,18
269,059	148,6
269,6	118,8
270,14	136,69
270,68	121,74
271,219	131,36
271,759	113,16
272,298	120,68
272,838	131,15
273,377	126,98
273,916	111,87
274,455	120,07
274,994	117,6
275,533	117,03
276,072	125,61
276,61	113,04
277,149	128,33
277,687	118,8
278,225	106,67
278,763	144,3
279,301	122,5
279,839	125,4
280,377	129,92
280,914	108,74
281,452	137,18
281,989	125,62
282,526	117,32
283,064	139,08
283,601	108,78
284,137	123,14
284,674	137,08
285,211	133,77
285,747	114,02
286,284	146,4
286,82	127,69
287,356	104,28
287,892	125,97
288,428	133,06
288,964	141,18
289,5	133,47
290,035	127,2
290,571	134,45
291,106	126,42
291,641	137,5
292,176	122,66
292,711	133,74
293,246	113,08
293,781	127,69
294,315	102,11
294,85	137,5
295,384	121,31
295,918	120,59
296,453	109,7
296,987	123,55
297,52	121,07
298,054	120,61
298,588	126,67
299,121	111,57
299,655	119,34
300,188	124,17
300,721	121,95
301,254	116,94
301,787	126,95
302,32	127,24
302,853	122,4
303,385	115,71
303,918	115,89
304,45	124,23
304,982	107,8
305,514	121,71
306,046	122,73
306,578	108,14
307,11	125,19
307,641	131,47
308,173	121,9
308,704	116,94
309,236	114,66
309,767	112,77
310,298	125
310,829	134,78
311,359	122,98
311,89	126,89
312,421	121,62
312,951	134,55
313,481	108,97
314,012	119,78
314,542	125,85
315,072	122,52
315,601	138,4
316,131	125,59
316,661	122,92
317,19	108,15
317,72	129,34
318,249	129,76
318,778	121,88
319,307	121,09
319,836	131,42
320,365	131,3
320,893	126,86
321,422	128,46
321,95	128,57
322,479	117,56
323,007	133,18
323,535	118,21
324,063	118,8
324,591	123,6
325,118	119,34
325,646	125,63
326,173	118,33
326,701	126,42
327,228	134,91
327,755	115,79
328,282	115,27
328,809	127,54
329,336	116,93
329,862	119,12
330,389	109,38
330,915	122,05
331,441	114,89
331,968	130,18
332,494	115,15
333,02	110
333,545	105,22
334,071	136,36
334,597	107,04
335,122	113,7
335,648	121,12
336,173	110,23
336,698	100
337,223	107,35
337,748	115,28
338,272	104,45
338,797	113,41
339,322	100,73
339,846	98,16
340,37	114,92
340,894	105,9
341,419	111,28
341,942	102,45
342,466	100,32
342,99	98,99
343,514	104,93
344,037	92,41
344,56	120,37
345,084	101,37
345,607	111,11
346,13	104,58
346,653	106,67
347,175	97,12
347,698	87,74
348,221	106,43
348,743	99,07
349,265	104,68
349,787	91,72
350,309	95,25
350,831	89,81
351,353	95,73
351,875	93,57
352,397	98,6
352,918	101,97
353,439	102,98
353,961	84,01
354,482	92,69
355,003	92,44
355,524	88,33
356,044	84,38
356,565	94,88
357,086	90,4
357,606	78,57
358,126	83,78
358,646	76,79
359,167	86,49
359,687	83,9
360,206	84,43
360,726	77,01
361,246	84,04
361,765	88,7
362,285	76,25
362,804	81,84
363,323	69,27
363,842	82,42
364,361	72,14
364,88	75,12
365,398	76,42
365,917	71,23
366,435	87,24
366,954	75,89
367,472	71,23
367,99	79,86
368,508	71,26
369,026	80
369,544	79,82
370,061	68,91
370,579	69,26
371,096	81,42
371,613	73,49
372,131	70,08
372,648	71,85
373,165	68,16
373,681	68,57
374,198	76,56
374,715	63,91
375,231	65,15
375,747	64,66
376,264	58,84
376,78	64,57
377,296	66,73
377,812	59,14
378,327	62,25
378,843	61,77
379,359	61,59
379,874	62,63
380,389	61,36
380,905	56,72
381,42	58,51
381,935	56,86
382,449	59,14
382,964	53
383,479	53,59
383,993	52,63
384,508	55,77
385,022	51,17
385,536	54,34
386,05	54,59
386,564	49,5
387,078	47,85
387,592	48,42
388,105	49,76
388,619	44,42
389,132	46,29
389,645	48,28
390,158	44,64
390,671	46,64
391,184	42,41
391,697	43,99
392,21	40,26
392,722	41,67
393,235	44,18
393,747	41,63
394,259	38,39
394,771	40,95
395,283	39,65
395,795	40,02
396,307	41,21
396,818	38,86
397,33	35,8
397,841	36,73
398,353	36,29
398,864	34,33
399,375	36,23
399,886	34,7
400,397	33,79
400,907	33,59
401,418	31,95
401,928	30,14
402,439	30,96
402,949	27
403,459	28,57
403,969	30,32
404,479	26,89
404,989	27,78
405,498	26,88
406,008	28,21
406,517	24,74
407,027	21,28
407,536	22,37
408,045	23,11
408,554	21,98
409,063	20,8
409,572	20,36
410,08	19,23
410,589	18,49
411,097	18,59
411,606	17,7
412,114	17,08
412,622	17,88
413,13	17,52
413,638	15,82
414,145	14,69
414,653	15,47
415,16	14,32
415,668	15,3
416,175	13,44
416,682	13,55
417,189	13,15
417,696	12,91
418,203	13,22
418,71	11,99
419,216	12,46
419,723	12,17
420,229	11,71
420,735	11,06
421,242	11,83
421,748	11,97
422,254	11,25
422,759	10,87
423,265	11,41
423,771	10,42
424,276	10,97
424,781	10,69
425,287	10,39
425,792	10,56
426,297	10,29
426,802	10,23
427,306	10,19
427,811	10,31
428,316	10,34
428,82	9,93
429,324	9,71
429,829	9,74
430,333	9,43
430,837	9,31
431,34	9,08
431,844	9,27
432,348	9,22
432,851	8,71
433,355	8,85
433,858	9,09
434,361	8,94
434,864	9,33
435,367	9,12
435,87	9,64
436,373	9,12
436,876	8,96
437,378	8,81
437,88	8,56
438,383	8,43
438,885	8,46
439,387	8,54
439,889	8,64
440,391	8,61
440,892	8,56
441,394	9,05
441,896	9,02
442,397	8,93
442,898	8,31
443,399	8,57
443,9	8,22
444,401	8,55
444,902	8,79
445,403	8,48
445,903	8,73
446,404	8,64
446,904	8,85
447,405	8,2
447,905	8,62
448,405	8,26
448,905	8,67
449,404	9,15
449,904	8,64
450,404	8,34
450,903	8,88
451,403	8,75
451,902	8,81
452,401	9,08
452,9	8,67
453,399	8,53
453,898	8,97
454,396	8,45
454,895	8,43
455,393	8,83
455,892	9,07
456,39	8,86
456,888	8,97
457,386	8,58
457,884	8,71
458,382	9,07
458,879	8,88
459,377	9,1
459,874	8,65
460,372	8,66
460,869	8,62
461,366	8,96
461,863	8,77
462,36	8,89
462,857	8,95
463,353	8,74
463,85	8,82
464,346	8,42
464,843	8,74
465,339	8,93
465,835	8,82
466,331	9,01
466,827	8,95
467,323	8,54
467,818	8,91
468,314	8,83
468,809	8,75
469,305	8,53
469,8	8,78
470,295	8,71
470,79	8,7
471,285	8,82
471,78	8,45
472,274	8,58
472,769	8,63
473,263	8,52
473,758	8,44
474,252	8,75
474,746	8,73
475,24	8,7
475,734	8,8
476,228	8,83
476,721	8,58
477,215	8,72
477,708	8,68
478,202	8,9
478,695	8,92
479,188	8,7
479,681	8,75
480,174	8,66
480,667	8,8
481,159	8,71
481,652	8,92
482,144	8,87
482,637	9,03
483,129	8,84
483,621	8,87
484,113	9,1
484,605	9,04
485,097	9,05
485,588	8,84
486,08	8,65
486,571	9,23
487,063	8,95
487,554	9,22
488,045	9,1
488,536	8,98
489,027	9,02
489,518	9,22
490,008	9,13
490,499	9,21
490,989	9,35
491,48	9,44
491,97	9,02
492,46	9,47
492,95	9,65
493,44	9,69
493,93	9,79
494,419	9,72
494,909	9,9
495,398	9,97
495,888	10,03
496,377	9,97
496,866	10,28
497,355	10,27
497,844	10,47
498,333	10,77
498,821	10,67
499,31	10,8
499,798	11,33
500,287	11,26
500,775	11,46
501,263	11,57
501,751	11,61
502,239	11,91
502,727	11,89
503,215	12,24
503,702	12,52
504,19	12,52
504,677	13,1
505,164	13,34
505,651	13,61
506,139	13,48
506,625	13,68
507,112	14,34
507,599	14,43
508,086	14,43
508,572	15,16
509,058	15,46
509,545	15,51
510,031	15,79
510,517	16,55
511,003	16,16
511,489	16,71
511,974	16,99
512,46	17,29
512,946	17,13
513,431	17,92
513,916	18,49
514,401	18,98
514,887	19,03
515,371	19,77
515,856	20,24
516,341	20,1
516,826	20,52
517,31	20,78
517,795	21,15
518,279	21,71
518,763	22,51
519,247	22,94
519,731	23,4
520,215	23,82
520,699	24,15
521,182	24,06
521,666	24,76
522,149	24,74
522,633	25,95
523,116	26
523,599	26,25
524,082	26,46
524,565	26,91
525,048	27,33
525,53	27,62
526,013	28,11
526,495	29,03
526,978	28,85
527,46	29,31
527,942	28,55
528,424	29,92
528,906	29,57
529,388	29,92
529,87	30,97
530,351	30,16
530,833	31,04
531,314	31,13
531,795	31,01
532,277	31,55
532,758	31,81
533,238	32,08
533,719	31,86
534,2	31,49
534,681	32,65
535,161	32,49
535,642	32,45
536,122	32,49
536,602	32,62
537,082	32,96
537,562	32,64
538,042	33,11
538,522	33,09
539,001	33,29
539,481	33,44
539,96	33,03
540,44	33,01
540,919	34,24
541,398	33,3
541,877	33,8
542,356	33,67
542,835	33,08
543,313	33,64
543,792	33,44
544,27	33,68
544,749	34,19
545,227	34,23
545,705	34
546,183	34,68
546,661	34,08
547,139	33,9
547,616	34,12
548,094	33,89
548,571	34,26
549,049	34,58
549,526	34,32
550,003	34,88
550,48	34,52
550,957	34,72
551,434	34,03
551,911	34,65
552,387	34,29
552,864	34,35
553,34	34,6
553,817	34,44
554,293	34,54
554,769	34,39
555,245	33,97
555,721	34,17
556,197	34,48
556,672	34,25
557,148	34,61
557,623	34,62
558,099	34,65
558,574	34,77
559,049	33,67
559,524	34,29
559,999	34,19
560,474	33,96
560,948	33,89
561,423	33,91
561,897	33,85
562,372	33,51
562,846	33,76
563,32	33,27
563,794	33,44
564,268	33,4
564,742	33,03
565,216	32,68
565,69	32,51
566,163	32,42
566,636	32,49
567,11	31,99
567,583	31,99
568,056	31,79
568,529	31,58
569,002	31,51
569,475	31,11
569,947	31,11
570,42	31,2
570,892	30,93
571,365	30,08
571,837	30,16
572,309	30,06
572,781	29,72
573,253	30,06
573,725	29,5
574,197	29,06
574,668	29,24
575,14	28,63
575,611	28,51
576,082	27,98
576,554	27,65
577,025	28,05
577,496	27,66
577,967	27,22
578,437	27,5
578,908	27,13
579,379	26,95
579,849	26,73
580,319	26,87
580,79	26,37
581,26	26,17
581,73	26,05
582,2	25,83
582,669	25,45
583,139	26,02
583,609	25,36
584,078	25,77
584,548	25,41
585,017	25,67
585,486	25,01
585,955	25
586,424	24,74
586,893	24,79
587,362	24,49
587,83	24,47
588,299	24,6
588,767	24,14
589,236	24,09
589,704	24,23
590,172	23,88
590,64	23,82
591,108	23,78
591,576	23,75
592,043	23,72
592,511	23,59
592,978	23,59
593,446	23,34
593,913	23,22
594,38	23,01
594,847	23,18
595,314	23,2
595,781	23,27
596,248	22,94
596,715	23
597,181	22,93
597,647	22,72
598,114	22,94
598,58	22,89
599,046	22,8
599,512	22,62
599,978	22,75
600,444	22,47
600,91	22,46
601,375	22,43
601,841	22,66
602,306	22,21
602,771	22,13
603,236	22,38
603,702	22,56
604,167	22,24
604,631	22,14
605,096	21,98
605,561	21,82
606,025	21,71
606,49	21,66
606,954	21,48
607,418	21,48
607,882	21,48
608,347	21,18
608,81	21,08
609,274	21,07
609,738	20,95
610,202	21,06
610,665	20,87
611,128	20,63
611,592	20,47
612,055	20,31
612,518	20,12
612,981	20,36
613,444	20,17
613,907	19,64
614,369	19,73
614,832	19,73
615,294	19,57
615,757	19,47
616,219	19,49
616,681	19,02
617,143	19,19
617,605	19,07
618,067	18,79
618,529	18,7
618,99	18,47
619,452	18,34
619,913	18,27
620,375	18,31
620,836	18,42
621,297	18,37
621,758	18,34
622,219	18,09
622,68	18,2
623,14	17,85
623,601	18,2
624,061	18
624,522	17,95
624,982	18,14
625,442	18,05
625,902	17,85
626,362	17,79
626,822	17,9
627,282	17,73
627,742	17,87
628,201	17,67
628,661	17,71
629,12	17,69
629,579	17,59
630,038	17,91
630,497	17,61
630,956	17,48
631,415	17,47
631,874	17,34
632,332	17,33
632,791	17,28
633,249	17,29
633,708	17,27
634,166	17,07
634,624	17,18
635,082	17,05
635,54	16,95
635,998	16,75
636,455	16,82
636,913	16,75
637,37	16,4
637,828	16,26
638,285	16,25
638,742	16,02
639,199	15,95
639,656	15,59
640,113	15,67
640,57	15,29
641,027	15,1
641,483	15,16
641,94	15,12
642,396	14,94
642,852	14,65
643,309	14,48
643,765	14,17
644,221	14,1
644,676	13,83
645,132	13,79
645,588	13,54
646,043	13,19
646,499	13,24
646,954	12,89
647,409	12,89
647,864	12,75
648,319	12,54
648,774	12,36
649,229	12,3
649,684	12,37
650,139	12,23
650,593	11,86
651,047	11,99
651,502	11,91
651,956	11,89
652,41	11,91
652,864	11,76
653,318	11,76
653,772	11,56
654,225	11,44
654,679	11,52
655,133	11,49
655,586	11,39
656,039	11,25
656,492	11,3
656,946	11,17
657,399	10,91
657,851	10,98
658,304	10,87
658,757	10,86
659,209	10,66
659,662	10,47
660,114	10,49
660,567	10,37
661,019	10,21
661,471	10,07
661,923	9,95
662,375	9,95
662,826	9,89
663,278	9,82
663,73	9,62
664,181	9,62
664,632	9,57
665,084	9,71
665,535	9,49
665,986	9,29
666,437	9,32
666,888	9,19
667,338	9,19
667,789	9,34
668,24	9,32
668,69	9,22
669,14	9,16
669,591	9,17
670,041	9,24
670,491	9,14
670,941	9,28
671,391	9,36
671,84	9,44
672,29	9,3
672,74	9,51
673,189	9,58
673,638	9,6
674,088	9,72
674,537	9,71
674,986	9,77
675,435	9,87
675,883	9,89
676,332	10,1
676,781	10,21
677,229	10,35
677,678	10,53
678,126	10,57
678,574	10,82
679,022	10,9
679,47	11,06
679,918	11,29
680,366	11,16
680,814	11,48
681,261	11,61
681,709	11,64
682,156	11,97
682,604	12,2
683,051	12,38
683,498	12,55
683,945	12,59
684,392	12,72
684,839	13,09
685,286	13,17
685,732	13,25
686,179	13,61
686,625	13,89
687,071	14,15
687,518	14,45
687,964	14,61
688,41	15,03
688,856	15,47
689,301	15,98
689,747	16,46
690,193	16,63
690,638	17,08
691,084	17,66
691,529	18,23
691,974	18,97
692,419	19,49
692,864	20,2
693,309	20,82
693,754	21,58
694,199	22,34
694,643	22,85
695,088	23,64
695,532	24,19
695,977	25
696,421	25,79
696,865	26,28
697,309	27,18
697,753	27,85
698,197	28,6
698,64	29,11
699,084	29,92
699,527	30,49
699,971	31,32
700,414	31,82
700,857	32,57
701,3	33
701,743	33,89
702,186	34,61
702,629	35,1
703,072	35,84
703,515	35,97
703,957	36,52
704,399	37,23
704,842	37,82
705,284	38,42
705,726	38,75
706,168	39,27
706,61	40,01
707,052	39,92
707,494	41,01
707,935	41,35
708,377	41,68
708,818	42,02
709,26	42,49
709,701	42,74
710,142	43,42
710,583	43,48
711,024	43,86
711,465	44,51
711,905	44,82
712,346	45
712,787	45,23
713,227	45,97
713,667	45,92
714,108	46,32
714,548	46,79
714,988	47,18
715,428	47,75
715,868	48,29
716,307	48,09
716,747	48,28
717,186	48,56
717,626	48,94
718,065	49,44
718,504	49,39
718,944	49,71
719,383	50,06
719,822	50,26
720,261	50,25
720,699	50,83
721,138	50,58
721,576	50,95
722,015	51,31
722,453	51,54
722,892	51,77
723,33	52,16
723,768	52,57
724,206	52,59
724,644	52,58
725,081	52,79
725,519	53
725,957	52,76
726,394	53,32
726,832	53,13
727,269	53,36
727,706	53,61
728,143	53,54
728,58	54,13
729,017	53,71
729,454	54,03
729,89	54,37
730,327	54,03
730,764	54,62
731,2	54,27
731,636	54,87
732,072	54,83
732,509	54,72
732,945	54,9
733,38	54,8
733,816	55,04
734,252	54,86
734,688	55,14
735,123	55,06
735,559	55,19
735,994	55,08
736,429	55,41
736,864	55,63
737,299	55,65
737,734	55,88
738,169	55,23
738,604	55,54
739,038	55,22
739,473	55,4
739,907	55,39
740,342	55,37
740,776	55,47
741,21	55,63
741,644	56,09
742,078	55,76
742,512	55,33
742,946	55,93
743,379	55,29
743,813	55,2
744,246	55,41
744,68	55,6
745,113	55,14
745,546	55,19
745,979	55,69
746,412	55,14
746,845	55,07
747,278	55,35
747,711	55
748,143	55,23
748,576	55,7
749,008	55,41
749,441	54,8
749,873	54,95
750,305	55,2
750,737	55
751,169	54,99
751,601	54,63
752,032	54,81
752,464	54,82
752,896	54,61
753,327	54,6
753,758	54,67
754,19	54,62
754,621	54,49
755,052	54,39
755,483	54,31
755,914	54,48
756,344	54,57
756,775	54,55
757,206	54,37
757,636	54,74
758,066	54,17
758,497	54,24
758,927	54,49
759,357	54,4
759,787	54,26
760,217	54,12
760,647	54,14
761,076	53,95
761,506	53,78
761,935	53,8
762,365	54,14
762,794	53,62
763,223	53,93
763,653	54,13
764,082	53,47
764,51	53,67
764,939	53,74
765,368	53,45
765,797	53,68
766,225	53,29
766,654	53,51
767,082	53,05
767,51	53,56
767,938	53,17
768,367	53,09
768,795	52,99
769,222	53,58
769,65	53,73
770,078	52,99
770,505	53,5
770,933	53,39
771,36	53,33
771,788	52,99
772,215	53,19
772,642	53,32
773,069	53,04
773,496	52,95
773,923	52,76
774,349	52,82
774,776	53,22
775,203	52,94
775,629	52,99
776,055	52,45
776,482	52,83
776,908	52,77
777,334	52,54
777,76	52,89
778,186	52,53
778,611	52,89
779,037	52,8
779,463	52,53
779,888	52,68
780,314	52,57
780,739	52,72
781,164	52,88
781,589	52,27
782,014	52,46
782,439	52,42
782,864	52,81
783,289	52,62
783,713	52,31
784,138	52,33
784,562	52,09
784,987	52,29
785,411	52,51
785,835	52,03
786,259	52,22
786,683	52,72
787,107	52,12
787,531	52,51
787,954	52,39
788,378	52,35
788,802	52,31
789,225	52,05
789,648	52,65
790,071	51,69
790,495	52,56
790,918	52,36
791,34	52,44
791,763	52,08
792,186	52,08
792,609	52,37
793,031	52,06
793,454	52,19
793,876	52,31
794,298	52,33
794,721	51,7
795,143	52,38
795,565	51,89
795,986	51,85
796,408	51,92
796,83	52,04
797,252	51,95
797,673	52,16
798,094	52,47
798,516	52,48
798,937	52,26
799,358	51,83
799,779	51,96
800,2	52,06
800,621	52,11
801,042	51,62
801,462	52,08
801,883	51,72
802,303	51,75
802,724	52,13
803,144	51,53
803,564	52,01
803,984	52,24
804,404	52,28
804,824	52,05
805,244	52,12
805,664	52,34
806,084	52,27
806,503	52,31
806,923	52
807,342	51,75
807,761	51,45
808,18	51,63
808,599	51,62
809,018	51,81
809,437	51,88
809,856	51,76
810,275	52,39
810,693	51,89
811,112	52,55
811,53	52,18
811,949	51,87
812,367	52,37
812,785	52,12
813,203	51,89
813,621	51,91
814,039	51,93
814,457	51,86
814,874	51,61
815,292	51,9
815,709	51,91
816,127	52,02
816,544	51,94
816,961	51,55
817,378	52,24
817,795	52,11
818,212	52
818,629	52,19
819,046	51,58
819,462	51,79
819,879	51,61
820,295	51,66
820,712	51,78
821,128	51,59
821,544	51,93
821,96	51,75
822,376	51,92
822,792	51,38
823,208	51,9
823,624	51,87
824,039	51,81
824,455	51,81
824,87	51,54
825,286	51,57
825,701	51,81
826,116	51,77
826,531	51,68
826,946	51,56
827,361	51,59
827,776	51,49
828,19	51,49
828,605	51,22
829,02	51,64
829,434	51,53
829,848	51,76
830,263	51,78
830,677	51,29
831,091	51,44
831,505	51,47
831,919	51,92
832,332	51,68
832,746	51,65
833,16	51,37
833,573	51,52
833,987	51,57
834,4	51,1
834,813	51,22
835,226	51,03
835,639	51,24
836,052	51,16
836,465	51,94
836,878	51,45
837,29	51,51
837,703	51,57
838,116	51,47
838,528	51,5
838,94	51,86
839,352	51,43
839,765	51,33
840,177	51,7
840,589	51,51
841	51,36
841,412	51,48
841,824	51,39
842,235	50,88
842,647	51,51
843,058	51,58
843,47	51,18
843,881	51,39
844,292	50,99
844,703	51,39
845,114	51,24
845,525	51,37
845,935	51,11
846,346	51,41
846,757	51,67
847,167	50,95
847,577	51,48
847,988	51,5
848,398	51,09
848,808	51,32
849,218	51,25
849,628	51,03
850,038	51,24
850,448	51,1
850,857	51,43
851,267	51,25
851,676	51,27
852,086	50,97
852,495	51,27
852,904	50,8
853,313	50,77
853,722	51
854,131	51,4
854,54	51,01
854,949	51,02
855,357	51,02
855,766	51,07
856,174	51,06
856,583	50,83
856,991	51,29
857,399	51,8
857,807	50,97
858,215	51,44
858,623	51,81
859,031	50,84
859,439	51,45
859,846	51,13
860,254	50,87
860,661	51,36
861,069	51,38
861,476	51,21
861,883	50,79
862,29	50,84
862,697	50,95
863,104	50,89
863,511	50,67
863,918	50,93
864,325	51,38
864,731	51,04
865,138	51,09
865,544	50,97
865,95	51,16
866,357	50,78
866,763	51
867,169	51,15
867,575	51,07
867,98	51,01
868,386	51,22
868,792	51,44
869,197	51,1
869,603	51,25
870,008	51,03
870,414	51,28
870,819	50,7
871,224	50,66
871,629	50,86
872,034	50,72
872,439	50,71
872,844	51,29
873,248	51,1
873,653	51,1
874,057	50,87
874,462	51,29
874,866	51,36
875,27	51
875,674	51,38
876,078	51,2
876,482	51,17
876,886	50,98
877,29	51,04
877,694	50,98
878,097	50,55
878,501	50,46
878,904	50,68
879,308	50,67
879,711	51,12
880,114	51,15
880,517	51,19
880,92	51,22
881,323	50,98
881,726	51,18
882,128	51,33
882,531	50,91
882,934	51,19
883,336	50,98
883,738	50,57
884,141	51,09
884,543	50,9
884,945	50,63
885,347	50,74
885,749	50,87
886,151	51,15
886,552	50,54
886,954	50,68
887,355	51,04
887,757	50,67
888,158	50,7
888,56	50,84
888,961	51,18
889,362	51,02
889,763	50,96
890,164	51,16
890,565	50,97
890,965	51,38
891,366	51,38
891,767	51,45
892,167	51,12
892,567	50,92
892,968	50,76
893,368	50,66
893,768	50,49
894,168	50,61
894,568	50,66
894,968	50,97
895,368	50,78
895,767	51,2
896,167	51,18
896,566	50,84
896,966	50,64
897,365	51,01
897,764	50,85
898,164	51,12
898,563	51,24
898,962	50,82
899,361	51,26
899,759	50,75
900,158	50,91
900,557	50,99
900,955	50,29
901,354	50,91
901,752	50,5
902,15	50,29
902,548	50,59
902,947	51,14
903,345	51,01
903,742	50,59
904,14	50,79
904,538	50,99
904,936	51,21
905,333	50,42
905,731	50,71
906,128	50,4
906,525	50,96
906,923	51,39
907,32	50,93
907,717	50,95
908,114	50,92
908,511	51,06
908,907	51,3
909,304	50,78
909,701	50,98
910,097	51,01
910,494	50,31
910,89	51,18
911,286	50,53
911,682	51,48
912,078	51,23
912,474	51,61
912,87	51,05
913,266	50,82
913,662	50,41
914,058	50,46
914,453	51,02
914,849	50,65
915,244	50,66
915,639	51,13
916,034	50,58
916,43	51,05
916,825	50,87
917,22	50,79
917,614	50,99
918,009	51,02
918,404	50,85
918,798	50,53
919,193	50,68
919,587	50,44
919,982	50,78
920,376	50,15
920,77	50,83
921,164	50,86
921,558	51,1
921,952	50,86
922,346	50,9
922,74	50,85
923,133	50,7
923,527	50,81
923,92	50,57
924,314	50,34
924,707	50,65
925,1	50,91
925,493	51,19
925,886	50,22
926,279	50,71
926,672	50,91
927,065	50,28
927,457	50,92
927,85	50,2
928,243	50,53
928,635	50,8
929,027	50,68
929,42	50,59
929,812	50,62
930,204	51,41
930,596	50,82
930,988	50,89
931,379	50,57
931,771	50,92
932,163	50,96
932,554	50,26
932,946	50,71
933,337	50,85
933,729	51,26
934,12	50,62
934,511	50,77
934,902	51,14
935,293	49,97
935,684	50,94
936,075	51,41
936,465	50,8
936,856	50,62
937,246	51,61
937,637	51,2
938,027	50,97
938,417	50,54
938,808	51,13
939,198	50,44
939,588	51,43
939,978	51,01
940,368	50,6
940,757	51,26
941,147	51,55
941,537	51,3
941,926	52,21
942,315	52,09
942,705	51,43
943,094	50,96
943,483	51,59
943,872	50,2
944,261	50,87
944,65	50,62
945,039	51,65
945,428	51,91
945,816	50,58
946,205	51,3
946,593	51,46
946,982	51,2
947,37	50,55
947,758	52,49
948,146	51,01
948,534	51,98
948,922	51,06
949,31	50,39
949,698	51,7
950,086	50,92
950,473	50,3
950,861	51,5
951,248	50,78
951,636	50,84
952,023	50,39
952,41	51,6
952,797	50,93
953,184	50,49
953,571	51,21
953,958	51,24
954,345	49,55
954,731	51,37
955,118	50,68
955,505	50,71
955,891	50,82
956,277	50,6
956,664	50,7
957,05	50,11
957,436	50,27
957,822	50,09
958,208	50,2
958,594	49,95
958,979	50,61
959,365	50,3
959,751	50,1
960,136	50,15
960,522	49,57
960,907	51,01
961,292	49,85
961,677	50,7
962,062	50,03
962,447	50,38
962,832	50,24
963,217	50,26
963,602	50,55
963,986	50,7
964,371	50,33
964,756	50,13
965,14	50,45
965,524	50,53
965,908	51,23
966,293	49,62
966,677	50,38
967,061	50,73
967,445	50,39
967,828	50,53
968,212	50,55
968,596	50,85
968,979	50,88
969,363	50,42
969,746	50,75
970,129	50,11
970,513	50,44
970,896	50,35
971,279	50,29
971,662	51,26
972,045	49,91
972,428	51,37
972,81	50,65
973,193	50,95
973,575	50,38
973,958	49,89
974,34	50,32
974,723	50,06
975,105	50,36
975,487	50,17
975,869	50,44
976,251	50,96
976,633	50,14
977,015	50,47
977,396	50,5
977,778	50,54
978,16	50,33
978,541	50,37
978,922	50,35
979,304	50,81
979,685	51,04
980,066	50,27
980,447	50,37
980,828	50,86
981,209	50,57
981,59	50,66
981,97	50,45
982,351	50,35
982,732	50,65
983,112	50,58
983,493	50,52
983,873	50,76
984,253	50,39
984,633	50,43
985,013	50,54
985,393	50,65
985,773	50,66
986,153	50,86
986,533	50,92
986,912	50,97
987,292	51,36
987,671	50,99
988,051	51,55
988,43	50,39
988,809	50,78
989,188	50,75
989,567	50,64
989,946	51,23
990,325	50,77
990,704	50,7
991,083	50,84
991,461	51,33
991,84	51,11
992,218	50,92
992,597	50,94
992,975	50,94
993,353	50,57
993,732	50,28
994,11	51,5
994,488	51,31
994,866	50,53
995,243	51,12
995,621	51,15
995,999	50,6
996,376	50,63
996,754	51,29
997,131	50,85
997,509	50,92
997,886	51,04
998,263	51,34
998,64	50,92
999,017	51,12
999,394	51,07
999,771	51,7
1000,148	50,71
1000,524	51,06
1000,901	50,94
1001,277	51,81
1001,654	51,09
1002,03	52,01
1002,406	51,91
1002,783	51,2
1003,159	51,19
1003,535	51,58
1003,911	51,55
1004,286	52,01
1004,662	51,46
1005,038	52,1
1005,414	51,37
1005,789	51,04
1006,164	50,88
1006,54	52,24
1006,915	50,99
1007,29	51,49
1007,665	52,04
1008,04	51,17
1008,415	51,43
1008,79	52,09
1009,165	50,99
1009,54	51,88
1009,914	52,4
1010,289	51,51
1010,663	51,41
1011,038	51,67
1011,412	51,75
1011,786	51,65
1012,16	51,67
1012,535	51,3
1012,909	52,7
1013,282	52,65
1013,656	52,01
1014,03	51,86
1014,404	52,08
1014,777	51,49
1015,151	51,89
1015,524	52,31
1015,897	52,37
1016,271	52,52
1016,644	51,19
1017,017	51,87
1017,39	51,64
1017,763	52,3
1018,136	51,98
1018,508	52,05
1018,881	51,82
1019,254	51,52
1019,626	51,97
1019,999	51,86
1020,371	52,31
1020,743	52,03
1021,116	51,92
1021,488	52,81
1021,86	53,85
1022,232	52,83
1022,604	52,83
1022,975	53,21
1023,347	52,59
1023,719	52,66
1024,09	52,42
1024,462	51,93
1024,833	53,63
1025,204	53,32
1025,576	52,28
1025,947	52,37
1026,318	52,72
1026,689	53,37
1027,06	53,59
1027,431	53,17
1027,801	52,85
1028,172	52,66
1028,543	53,17
1028,913	53,7
1029,284	54,12
1029,654	52,84
1030,024	52,74
1030,394	53,2
1030,764	53,16
1031,135	52,35
1031,504	52,79
1031,874	52,61
1032,244	51,82
1032,614	52,62
1032,983	52,86
1033,353	52,92
1033,722	52,94
1034,092	53,32
1034,461	52,85
1034,83	53,41
1035,2	53,84
1035,569	52,42
1035,938	53,12
1036,307	54,48
1036,675	53,48
1037,044	54
1037,413	53,28
1037,781	53,63
1038,15	54,97
1038,518	54,36
1038,887	54,08
1039,255	54,33
1039,623	54,22
1039,991	54,3
1040,359	53,43
1040,727	54,55
1041,095	54,01
1041,463	54,27
1041,831	54,16
1042,198	52,84
1042,566	54,07
1042,933	54,51
1043,301	53,81
1043,668	54,33
1044,035	53,24
1044,402	55,29
1044,77	53,47
1045,137	54,48
1045,503	53,58
1045,87	54,74
1046,237	54,63
1046,604	54,92
1046,97	54,48
1047,337	55,2
1047,703	54,14
1048,07	56,39
1048,436	55,71
1048,802	56,04
1049,168	55,93
1049,534	54,2
1049,9	55,47
1050,266	55,78
1050,632	54,84
1050,998	56,3
1051,364	55,52
1051,729	55,42
1052,095	54,83
1052,46	54,75
1052,825	55,55
1053,191	55,24
1053,556	55,23
1053,921	55,63
1054,286	55,87
1054,651	56,38
1055,016	58,17
1055,381	56,49
1055,745	54,32
1056,11	56,77
1056,475	57,71
1056,839	56,1
1057,203	56,52
1057,568	55,26
1057,932	56,85
1058,296	56,18
1058,66	57,16
1059,024	57,09
1059,388	56,02
1059,752	55,83
1060,116	57,16
1060,48	58,33
1060,843	54,84
1061,207	57,68
1061,57	57,67
1061,934	56,54
1062,297	57,2
1062,66	56,67
1063,023	56,29
1063,386	59,19
1063,749	58,08
1064,112	56,23
1064,475	58,68
1064,838	57,29
1065,201	57,25
1065,563	56,28
1065,926	56,54
1066,288	57,46
1066,651	58,62
1067,013	58
1067,375	57,32
1067,737	59,18
1068,099	58,64
1068,461	58,52
1068,823	55,53
1069,185	57,44
1069,547	57,96
1069,909	55,69
1070,27	58,67
1070,632	56,4
1070,993	57,88
1071,355	58,53
1071,716	56,6
1072,077	58,79
1072,438	57,5
1072,799	59
1073,16	58,94
1073,521	57,07
1073,882	59,59
1074,243	58,2
1074,603	57,76
1074,964	57,38
1075,325	57,91
1075,685	55,73
1076,045	55,99
1076,406	57,4
1076,766	57,23
1077,126	58,48
1077,486	59,59
1077,846	58,75
1078,206	59,01
1078,566	57,77
1078,925	58,42
1079,285	59,26
1079,645	59,04
1080,004	57,22
1080,364	57,19
1080,723	58,61
1081,082	59,6
1081,442	57,55
1081,801	59,13
1082,16	58,87
1082,519	58,27
1082,878	60,17
1083,237	58,62
1083,595	60,34
1083,954	59,35
1084,313	55,87
1084,671	58,14
1085,03	59,56
1085,388	59,29
1085,746	58,83
1086,104	59,91
1086,463	60,39
1086,821	60,9
1087,179	61,19
1087,537	60,26
1087,894	59,89
1088,252	59,99
1088,61	59,72
1088,967	60,77
1089,325	60,73
1089,682	62,05
1090,04	64,65
1090,397	62,1
1090,754	60,99
1091,111	61,01
1091,469	63,96
1091,826	60,13
1092,182	66,46
1092,539	60,95
1092,896	62,4
1093,253	62,62
1093,609	60,78
1093,966	61,82
1094,322	62,03
1094,679	61,81
1095,035	62,9
1095,391	60,75
1095,748	63,66
1096,104	62,24
1096,46	62,9
1096,816	62,52
1097,171	62,86
1097,527	62,95
1097,883	64,59
1098,239	63,37
1098,594	62,36
1098,95	64,85
1099,305	62,19
1099,66	64,64
1100,016	61,2
1100,371	63,97
1100,726	65,71
1101,081	62,75
1101,436	67,18
1101,791	66,74
1102,146	62,15
1102,5	64,24
1102,855	63,92
1103,21	65,64
1103,564	65,11
1103,918	66,1
1104,273	68,36
1104,627	64,66
1104,981	62,18
1105,335	64,29
1105,69	68,23
1106,043	63,35
1106,397	63,51
1106,751	66,02
1107,105	64,67
1107,459	65,97
1107,812	68,92
1108,166	68,86
1108,519	63,84
1108,873	68,42
1109,226	70,49
1109,579	63,85
1109,932	68,22
1110,285	69,45
1110,638	71,24
1110,991	71,74
1111,344	65,55
1111,697	66,81
1112,05	66,92
1112,402	73,92
1112,755	68,47
1113,107	72,38
1113,46	70,87
1113,812	68,8
1114,164	78,27
1114,517	75,49
1114,869	187,96
1115,221	178,95
1115,573	165,15
1115,924	197,17
