Data from C4___Relative__3__00023.txt Node

Date: Thu Feb 01 16:17:21 CET 2024
User: diatiterra
Spectrometer: HDX00911
Trigger mode: 0
Integration Time (sec): 6,000000E-3
Scans to average: 2
Nonlinearity correction enabled: false
Boxcar width: 0
Storing dark spectrum: false
XAxis mode: Wavelengths
Number of Pixels in Spectrum: 2068
>>>>>Begin Spectral Data<<<<<
194,468	135,38
195,025	86,11
195,581	109,09
196,138	123,53
196,694	105,49
197,251	100,79
197,807	66,28
198,363	70,41
198,919	57,07
199,474	74,52
200,03	70,45
200,586	73,42
201,141	62,37
201,696	65,9
202,251	61,33
202,806	72,99
203,361	79,23
203,916	69,19
204,471	65,76
205,025	68,65
205,58	72,83
206,134	61,17
206,688	55,5
207,242	70,35
207,796	57,07
208,35	64,53
208,904	74,58
209,457	71,18
210,011	76,69
210,564	61,29
211,117	80,39
211,67	69,1
212,223	62,89
212,776	52,41
213,329	72,73
213,881	60,1
214,434	62,5
214,986	78,31
215,538	62,5
216,09	61,98
216,642	77,71
217,194	68,24
217,746	68,57
218,297	67,78
218,849	80,81
219,4	61,67
219,951	74,86
220,502	66,86
221,053	65,48
221,604	68,05
222,155	68,45
222,705	61,4
223,256	73,6
223,806	60,57
224,356	55,15
224,906	74,55
225,456	64,71
226,006	63,39
226,556	58,92
227,106	69,51
227,655	59,16
228,204	61,02
228,754	68,97
229,303	68,82
229,852	67,78
230,401	66,05
230,949	72,88
231,498	71,28
232,047	67,22
232,595	56,9
233,143	67,89
233,691	65,38
234,239	68,85
234,787	55,81
235,335	63,95
235,883	55,79
236,43	74,84
236,978	65,96
237,525	46,23
238,072	54,44
238,619	65,85
239,166	68,63
239,713	56,98
240,26	75,44
240,806	71,78
241,353	57,56
241,899	59,34
242,445	76,33
242,991	58,38
243,537	56,21
244,083	69,23
244,629	68
245,174	64,37
245,72	63,13
246,265	59,16
246,81	62,5
247,355	62,09
247,9	60,59
248,445	75,8
248,99	66,11
249,534	65,73
250,079	60,84
250,623	51,09
251,168	66,67
251,712	77,06
252,256	61,49
252,8	59,32
253,343	68,13
253,887	55,74
254,43	63,07
254,974	72,07
255,517	60,45
256,06	65,91
256,603	66,29
257,146	56,91
257,689	52,91
258,232	59,26
258,774	69,64
259,317	61,54
259,859	57,07
260,401	60,67
260,943	70,7
261,485	77,84
262,027	65,08
262,569	67,55
263,11	55,93
263,652	58,79
264,193	71,02
264,734	69,01
265,275	57,29
265,816	57,84
266,357	65,08
266,898	53,54
267,438	65,82
267,979	63,07
268,519	70,24
269,059	65,66
269,6	70,49
270,14	58,16
270,68	55,48
271,219	61,49
271,759	78,85
272,298	70,81
272,838	67,84
273,377	76,54
273,916	81,88
274,455	67,18
274,994	67,22
275,533	62,87
276,072	66,47
276,61	61,54
277,149	71,18
277,687	64,46
278,225	62,94
278,763	63,01
279,301	62,23
279,839	64,89
280,377	68,94
280,914	64,95
281,452	67,6
281,989	70
282,526	64,56
283,064	71,88
283,601	69,66
284,137	68,71
284,674	68,54
285,211	63,44
285,747	65,33
286,284	66,47
286,82	54,17
287,356	55,15
287,892	66,3
288,428	64,94
288,964	62,9
289,5	64,16
290,035	62,5
290,571	56,61
291,106	68,54
291,641	69,19
292,176	69,35
292,711	62,79
293,246	58,7
293,781	74,03
294,315	53,06
294,85	61,29
295,384	69,94
295,918	62,77
296,453	60,54
296,987	62,84
297,52	60,33
298,054	66,09
298,588	63,41
299,121	65,92
299,655	56,47
300,188	70
300,721	65,84
301,254	62,96
301,787	63,98
302,32	55,96
302,853	59,22
303,385	68,48
303,918	64
304,45	64,8
304,982	65,54
305,514	60,64
306,046	63,04
306,578	69,52
307,11	60,22
307,641	69,78
308,173	66,29
308,704	76,14
309,236	52,28
309,767	70,53
310,298	72,33
310,829	65
311,359	73,43
311,89	64,33
312,421	64,32
312,951	63,43
313,481	64,71
314,012	54,69
314,542	64,89
315,072	67,96
315,601	74,68
316,131	59,57
316,661	68,18
317,19	57,8
317,72	65,06
318,249	63,33
318,778	65,31
319,307	68,23
319,836	73,45
320,365	65,08
320,893	72,54
321,422	68,45
321,95	76,04
322,479	79,39
323,007	68,54
323,535	68,21
324,063	66,67
324,591	63,49
325,118	67,2
325,646	65,43
326,173	72,68
326,701	54,87
327,228	57,07
327,755	75,63
328,282	75,98
328,809	72,35
329,336	59,7
329,862	61,14
330,389	63,92
330,915	62,18
331,441	67,25
331,968	75,84
332,494	65,31
333,02	72,07
333,545	50,26
334,071	51,28
334,597	64,04
335,122	62,77
335,648	58,65
336,173	68,11
336,698	60,11
337,223	62,03
337,748	50,75
338,272	58,51
338,797	60,66
339,322	62,7
339,846	61,83
340,37	53,01
340,894	54,73
341,419	74,71
341,942	56,61
342,466	62,69
342,99	58,12
343,514	55,88
344,037	59,04
344,56	52,15
345,084	62,69
345,607	62,62
346,13	58,22
346,653	61,21
347,175	60,29
347,698	55,28
348,221	67,61
348,743	56,72
349,265	64,04
349,787	54,15
350,309	54,25
350,831	53,97
351,353	60,19
351,875	56,28
352,397	54,31
352,918	58,75
353,439	56,12
353,961	51,57
354,482	58,72
355,003	54,73
355,524	50,21
356,044	55,6
356,565	46,75
357,086	58,43
357,606	48,51
358,126	53,26
358,646	52,42
359,167	55,65
359,687	59,48
360,206	56,3
360,726	66,93
361,246	53,58
361,765	54,71
362,285	54,28
362,804	54,32
363,323	52,84
363,842	60,56
364,361	56,93
364,88	50,81
365,398	55,44
365,917	47,84
366,435	58,33
366,954	55,7
367,472	51,58
367,99	50,32
368,508	57
369,026	55,13
369,544	52,52
370,061	50,45
370,579	56,79
371,096	44,35
371,613	54,99
372,131	56,23
372,648	56,41
373,165	53,7
373,681	51,51
374,198	51,86
374,715	54,99
375,231	56,96
375,747	53,7
376,264	57,7
376,78	57,61
377,296	49,52
377,812	51,14
378,327	51,63
378,843	51,41
379,359	54,25
379,874	54,84
380,389	54,18
380,905	48,17
381,42	48,44
381,935	54,16
382,449	50
382,964	43,87
383,479	50,82
383,993	53,83
384,508	50,56
385,022	45,07
385,536	46,37
386,05	51,6
386,564	48,49
387,078	49,46
387,592	43,15
388,105	41,32
388,619	47,36
389,132	45,47
389,645	43,2
390,158	43,57
390,671	44,36
391,184	41,94
391,697	43,68
392,21	40,8
392,722	40,24
393,235	42,4
393,747	41,31
394,259	43,94
394,771	39,02
395,283	40,5
395,795	38,79
396,307	36,56
396,818	37,28
397,33	39,12
397,841	36,98
398,353	35,88
398,864	33,5
399,375	33,07
399,886	37
400,397	35,77
400,907	32,71
401,418	30,89
401,928	31,72
402,439	31,68
402,949	30,33
403,459	32,99
403,969	30,29
404,479	29,5
404,989	28,6
405,498	27,39
406,008	25,71
406,517	25,59
407,027	26,44
407,536	24,12
408,045	22
408,554	23,06
409,063	24,35
409,572	22,13
410,08	21,36
410,589	20,29
411,097	19,62
411,606	19,43
412,114	19,07
412,622	18,22
413,13	18,03
413,638	17,49
414,145	17,91
414,653	16,71
415,16	16,14
415,668	15,7
416,175	15,92
416,682	16,04
417,189	15,42
417,696	14,76
418,203	15,02
418,71	14,78
419,216	14,81
419,723	14,43
420,229	13,2
420,735	14,41
421,242	13,12
421,748	13
422,254	13,21
422,759	13,27
423,265	13,03
423,771	12,95
424,276	12,13
424,781	12,78
425,287	12,04
425,792	12,5
426,297	12,75
426,802	12,26
427,306	11,99
427,811	12,59
428,316	11,38
428,82	11,13
429,324	11,61
429,829	11,31
430,333	12,67
430,837	11,57
431,34	11,18
431,844	11,35
432,348	11,36
432,851	11,17
433,355	11,06
433,858	10,7
434,361	11,57
434,864	11,23
435,367	10,96
435,87	11,08
436,373	11,34
436,876	10,91
437,378	11,21
437,88	10,93
438,383	11,52
438,885	10,81
439,387	11,12
439,889	10,65
440,391	10,94
440,892	11,07
441,394	10,95
441,896	10,78
442,397	11,26
442,898	10,6
443,399	10,84
443,9	11,14
444,401	10,92
444,902	11,74
445,403	11,06
445,903	11,31
446,404	11,6
446,904	10,85
447,405	11,35
447,905	11,57
448,405	11,18
448,905	11,08
449,404	11,35
449,904	11,45
450,404	11,08
450,903	11,32
451,403	11,71
451,902	11,6
452,401	11,63
452,9	11,36
453,399	11,92
453,898	11,48
454,396	11,47
454,895	11,96
455,393	11,82
455,892	12,69
456,39	11,59
456,888	11,3
457,386	12,21
457,884	11,64
458,382	11,66
458,879	11,93
459,377	11,84
459,874	11,74
460,372	11,39
460,869	11,5
461,366	11,46
461,863	12,31
462,36	11,76
462,857	11,25
463,353	12,1
463,85	11,63
464,346	11,87
464,843	12,33
465,339	11,63
465,835	12,13
466,331	12,22
466,827	11,97
467,323	11,48
467,818	11,68
468,314	11,99
468,809	11,79
469,305	11,54
469,8	11,63
470,295	11,64
470,79	11,66
471,285	11,59
471,78	12,1
472,274	11,61
472,769	11,57
473,263	11,81
473,758	11,72
474,252	11,58
474,746	11,85
475,24	11,53
475,734	11,59
476,228	12,06
476,721	11,76
477,215	11,71
477,708	11,59
478,202	12,26
478,695	12,14
479,188	12,3
479,681	12,33
480,174	11,85
480,667	11,78
481,159	12,01
481,652	11,41
482,144	12,39
482,637	12,26
483,129	12,14
483,621	12,15
484,113	11,97
484,605	12,42
485,097	11,74
485,588	12,08
486,08	12,37
486,571	12,17
487,063	12,15
487,554	12,37
488,045	12,87
488,536	12,96
489,027	12,36
489,518	12,5
490,008	12,8
490,499	12,39
490,989	12,8
491,48	12,89
491,97	12,73
492,46	13,05
492,95	13,22
493,44	13,41
493,93	13,15
494,419	13,57
494,909	13,73
495,398	13,63
495,888	13,72
496,377	14,67
496,866	14,15
497,355	14,53
497,844	13,89
498,333	14,58
498,821	14,33
499,31	14,93
499,798	15,19
500,287	15,23
500,775	15,19
501,263	16,2
501,751	15,16
502,239	15,98
502,727	16,24
503,215	16,25
503,702	16,25
504,19	16,65
504,677	16,75
505,164	17,51
505,651	17,22
506,139	17,44
506,625	18,4
507,112	18,26
507,599	18,75
508,086	19,16
508,572	19,14
509,058	19,49
509,545	19,99
510,031	20,03
510,517	20,58
511,003	20,54
511,489	21,2
511,974	21,17
512,46	22,15
512,946	22,41
513,431	22,63
513,916	23,01
514,401	23,12
514,887	23,91
515,371	23,93
515,856	24,53
516,341	24,85
516,826	25,1
517,31	25,22
517,795	25,99
518,279	26,72
518,763	26,7
519,247	27,24
519,731	28
520,215	28,24
520,699	28,07
521,182	28,99
521,666	29,28
522,149	29,36
522,633	30,25
523,116	30,53
523,599	30,37
524,082	31,29
524,565	31,83
525,048	31,85
525,53	31,84
526,013	32,13
526,495	32,86
526,978	32,54
527,46	33,1
527,942	34,02
528,424	34,25
528,906	33,8
529,388	34,77
529,87	35,5
530,351	35,54
530,833	35,71
531,314	35,86
531,795	35,87
532,277	36,33
532,758	35,98
533,238	35,38
533,719	36,75
534,2	36,44
534,681	36,95
535,161	36,86
535,642	37,06
536,122	37,61
536,602	37,18
537,082	36,99
537,562	37,03
538,042	37,18
538,522	37,71
539,001	38,03
539,481	37,47
539,96	37,78
540,44	37,62
540,919	37,74
541,398	38,11
541,877	37,67
542,356	38,27
542,835	38,08
543,313	38,16
543,792	38,34
544,27	39,07
544,749	37,82
545,227	38,34
545,705	38,77
546,183	37,82
546,661	38,58
547,139	38,55
547,616	38,15
548,094	39,4
548,571	38,89
549,049	38,27
549,526	38,61
550,003	39,01
550,48	38,91
550,957	38,41
551,434	38,74
551,911	38,93
552,387	38,81
552,864	39,45
553,34	39,32
553,817	39,15
554,293	39,15
554,769	38,85
555,245	38,67
555,721	39,18
556,197	38,45
556,672	38,61
557,148	39,51
557,623	38,61
558,099	39,17
558,574	38,98
559,049	39,14
559,524	38,7
559,999	39,26
560,474	38,47
560,948	37,94
561,423	38,28
561,897	37,97
562,372	38,64
562,846	37,8
563,32	38,29
563,794	38,33
564,268	38,04
564,742	38,04
565,216	37,7
565,69	37,65
566,163	37,4
566,636	37,29
567,11	37,32
567,583	36,68
568,056	37,04
568,529	35,97
569,002	35,98
569,475	36,17
569,947	35,86
570,42	35,71
570,892	35,29
571,365	35,15
571,837	34,42
572,309	34,06
572,781	34,68
573,253	34,56
573,725	33,84
574,197	33,64
574,668	33,68
575,14	33,65
575,611	33,66
576,082	33,26
576,554	32,98
577,025	32,43
577,496	32,46
577,967	32,35
578,437	32,25
578,908	32,36
579,379	31,93
579,849	31,58
580,319	31,68
580,79	31,71
581,26	31,49
581,73	30,89
582,2	30,9
582,669	31,15
583,139	30,46
583,609	30,87
584,078	30,44
584,548	30,58
585,017	30,29
585,486	29,56
585,955	30,21
586,424	29,54
586,893	29,73
587,362	29,5
587,83	29,52
588,299	29,05
588,767	29,53
589,236	29,03
589,704	28,58
590,172	28,42
590,64	28,77
591,108	28,62
591,576	28,84
592,043	28,34
592,511	27,79
592,978	28,11
593,446	28,33
593,913	27,78
594,38	28,1
594,847	28,3
595,314	27,74
595,781	28
596,248	27,71
596,715	27,93
597,181	27,78
597,647	27,65
598,114	27,75
598,58	27,61
599,046	27
599,512	27,64
599,978	27,16
600,444	27,12
600,91	27,49
601,375	27,31
601,841	27,23
602,306	27,07
602,771	27,18
603,236	27,08
603,702	27,01
604,167	26,79
604,631	26,68
605,096	26,73
605,561	26,65
606,025	26,45
606,49	26,1
606,954	26,41
607,418	26,15
607,882	25,49
608,347	25,75
608,81	26,07
609,274	25,67
609,738	25,78
610,202	25,45
610,665	25,68
611,128	25,37
611,592	24,95
612,055	25,1
612,518	25,25
612,981	24,94
613,444	24,73
613,907	25,05
614,369	24,3
614,832	24,24
615,294	24,47
615,757	24
616,219	24,15
616,681	23,87
617,143	23,7
617,605	23,75
618,067	23,53
618,529	23,48
618,99	23,45
619,452	23,39
619,913	23,06
620,375	23,22
620,836	23,31
621,297	23,04
621,758	22,79
622,219	23,2
622,68	22,93
623,14	22,72
623,601	22,53
624,061	22,35
624,522	22,4
624,982	22,33
625,442	22,52
625,902	22,35
626,362	22,57
626,822	22,45
627,282	22,18
627,742	21,77
628,201	22,5
628,661	22,4
629,12	21,94
629,579	22,13
630,038	22,01
630,497	21,71
630,956	21,9
631,415	21,82
631,874	21,65
632,332	21,74
632,791	21,59
633,249	21,84
633,708	21,47
634,166	21,38
634,624	21,67
635,082	21,17
635,54	21,06
635,998	20,65
636,455	20,77
636,913	20,64
637,37	20,42
637,828	19,98
638,285	20,3
638,742	20,24
639,199	19,78
639,656	19,76
640,113	19,53
640,57	19,09
641,027	19,4
641,483	18,86
641,94	18,78
642,396	18,43
642,852	18,26
643,309	17,97
643,765	17,65
644,221	17,86
644,676	17,71
645,132	17,61
645,588	17,22
646,043	17,16
646,499	16,88
646,954	16,89
647,409	16,49
647,864	16,56
648,319	16,15
648,774	15,89
649,229	15,89
649,684	15,67
650,139	15,93
650,593	15,77
651,047	15,6
651,502	15,43
651,956	15,38
652,41	15,58
652,864	15,21
653,318	15,4
653,772	15,09
654,225	14,86
654,679	15,1
655,133	15,01
655,586	14,74
656,039	14,76
656,492	14,79
656,946	14,56
657,399	14,73
657,851	14,37
658,304	14,42
658,757	14,19
659,209	14,27
659,662	13,98
660,114	14,15
660,567	13,83
661,019	13,74
661,471	13,58
661,923	13,32
662,375	13,22
662,826	13,13
663,278	13
663,73	12,77
664,181	12,86
664,632	12,82
665,084	12,54
665,535	12,69
665,986	12,39
666,437	12,44
666,888	12,31
667,338	12,12
667,789	12,2
668,24	12,01
668,69	12,12
669,14	12,01
669,591	12,14
670,041	12,15
670,491	12,07
670,941	12,22
671,391	12,18
671,84	12,1
672,29	12,15
672,74	12,26
673,189	12,44
673,638	12,37
674,088	12,37
674,537	12,65
674,986	12,68
675,435	12,7
675,883	12,84
676,332	12,81
676,781	12,78
677,229	13
677,678	13,25
678,126	13,24
678,574	13,42
679,022	13,69
679,47	13,86
679,918	14,07
680,366	14,1
680,814	14,3
681,261	14,43
681,709	14,66
682,156	14,63
682,604	14,92
683,051	15,2
683,498	15,23
683,945	15,81
684,392	15,58
684,839	16,13
685,286	16,14
685,732	16,39
686,179	16,78
686,625	17,12
687,071	17,38
687,518	17,66
687,964	17,95
688,41	18,43
688,856	18,61
689,301	19,28
689,747	19,72
690,193	20,31
690,638	20,81
691,084	21,29
691,529	21,85
691,974	22,76
692,419	23,16
692,864	24,05
693,309	24,5
693,754	25,26
694,199	25,83
694,643	26,55
695,088	27
695,532	27,73
695,977	28,66
696,421	29,14
696,865	29,7
697,309	30,56
697,753	30,75
698,197	31,67
698,64	32,31
699,084	33,18
699,527	33,36
699,971	34,19
700,414	35,12
700,857	35,39
701,3	35,54
701,743	36,22
702,186	36,84
702,629	37,63
703,072	37,86
703,515	38,86
703,957	38,61
704,399	39,32
704,842	39,56
705,284	40,23
705,726	40,57
706,168	40,82
706,61	41,67
707,052	41,77
707,494	42,48
707,935	43,01
708,377	43,19
708,818	43,49
709,26	43,51
709,701	43,83
710,142	44,31
710,583	44,46
711,024	45,18
711,465	45,21
711,905	45,59
712,346	45,61
712,787	46,38
713,227	46,56
713,667	46,77
714,108	47,27
714,548	47,64
714,988	47,94
715,428	47,87
715,868	48,39
716,307	48,39
716,747	48,84
717,186	48,91
717,626	49,57
718,065	49,58
718,504	49,67
718,944	50,38
719,383	50,65
719,822	50,06
720,261	50,43
720,699	50,72
721,138	50,87
721,576	50,83
722,015	51,17
722,453	51,12
722,892	51,31
723,33	51,77
723,768	51,55
724,206	51,81
724,644	52,46
725,081	52,32
725,519	52,38
725,957	52,74
726,394	52,3
726,832	52,99
727,269	53,35
727,706	52,93
728,143	53,16
728,58	53,05
729,017	53,61
729,454	53,33
729,89	53,35
730,327	53,92
730,764	53,61
731,2	53,67
731,636	53,8
732,072	53,59
732,509	53,99
732,945	53,8
733,38	53,55
733,816	54
734,252	54,01
734,688	53,79
735,123	54,11
735,559	54,22
735,994	54,38
736,429	54,07
736,864	54,04
737,299	54,14
737,734	54,51
738,169	54,44
738,604	54,18
739,038	54,51
739,473	54,4
739,907	54,3
740,342	54,37
740,776	54,79
741,21	54,45
741,644	54,17
742,078	54,12
742,512	54
742,946	53,91
743,379	54,31
743,813	54,08
744,246	53,64
744,68	54,32
745,113	54,11
745,546	53,91
745,979	54,41
746,412	54,34
746,845	54,03
747,278	53,79
747,711	54,2
748,143	54,14
748,576	53,99
749,008	53,6
749,441	53,86
749,873	53,39
750,305	54,26
750,737	53,53
751,169	53,4
751,601	53,63
752,032	53,36
752,464	53,26
752,896	53,21
753,327	53,26
753,758	52,9
754,19	53,4
754,621	53,35
755,052	53,02
755,483	52,83
755,914	52,96
756,344	53,31
756,775	53,4
757,206	52,63
757,636	52,64
758,066	52,67
758,497	52,97
758,927	52,81
759,357	52,54
759,787	52,74
760,217	52,66
760,647	53
761,076	52,49
761,506	52,49
761,935	52,48
762,365	52,69
762,794	52,17
763,223	52,45
763,653	52,46
764,082	52,05
764,51	51,88
764,939	52,02
765,368	52,24
765,797	51,93
766,225	52,13
766,654	51,94
767,082	52,02
767,51	51,98
767,938	51,55
768,367	51,89
768,795	51,77
769,222	51,54
769,65	51,72
770,078	51,85
770,505	51,52
770,933	51,28
771,36	51,83
771,788	51,72
772,215	51,76
772,642	51,6
773,069	51,63
773,496	51,52
773,923	51,16
774,349	51,15
774,776	51,37
775,203	50,97
775,629	51,14
776,055	51,22
776,482	51,4
776,908	51,71
777,334	51,17
777,76	51,05
778,186	50,95
778,611	51,14
779,037	51,08
779,463	50,7
779,888	50,78
780,314	50,95
780,739	51,12
781,164	51,36
781,589	50,92
782,014	50,74
782,439	51,03
782,864	51,02
783,289	50,63
783,713	50,94
784,138	51,02
784,562	50,88
784,987	51,02
785,411	51
785,835	50,76
786,259	50,71
786,683	50,89
787,107	50,74
787,531	50,95
787,954	50,54
788,378	50,82
788,802	50,94
789,225	50,27
789,648	50,39
790,071	50,85
790,495	50,47
790,918	50,53
791,34	50,84
791,763	50,64
792,186	50,78
792,609	50,05
793,031	50,44
793,454	50,6
793,876	50,68
794,298	50,54
794,721	50,87
795,143	50,73
795,565	50,61
795,986	50,56
796,408	49,98
796,83	50,6
797,252	50,45
797,673	50,68
798,094	50,36
798,516	50,74
798,937	50,49
799,358	50,27
799,779	50,44
800,2	50,14
800,621	50,28
801,042	50,58
801,462	50,19
801,883	50,16
802,303	50,35
802,724	50,3
803,144	50,22
803,564	49,95
803,984	50,25
804,404	49,95
804,824	50,65
805,244	50,05
805,664	50,28
806,084	50,18
806,503	49,79
806,923	50,51
807,342	50,34
807,761	50,13
808,18	50,6
808,599	50,34
809,018	50,52
809,437	49,97
809,856	50,03
810,275	50,04
810,693	50,49
811,112	49,98
811,53	49,96
811,949	50,42
812,367	50,23
812,785	50,06
813,203	50
813,621	50,07
814,039	50,2
814,457	50,15
814,874	50,07
815,292	49,91
815,709	50,13
816,127	50,48
816,544	50,06
816,961	49,63
817,378	50,62
817,795	50,4
818,212	50,03
818,629	49,91
819,046	50,44
819,462	50,16
819,879	50,06
820,295	50,21
820,712	49,73
821,128	50,02
821,544	49,74
821,96	49,88
822,376	49,91
822,792	49,91
823,208	49,89
823,624	50,18
824,039	49,68
824,455	49,68
824,87	49,65
825,286	50,1
825,701	49,94
826,116	49,82
826,531	49,96
826,946	50,33
827,361	49,72
827,776	49,9
828,19	49,67
828,605	49,94
829,02	50,24
829,434	49,86
829,848	49,76
830,263	49,8
830,677	50,09
831,091	49,99
831,505	49,77
831,919	49,55
832,332	49,59
832,746	49,53
833,16	49,46
833,573	49,46
833,987	49,89
834,4	49,88
834,813	49,95
835,226	49,42
835,639	49,67
836,052	49,51
836,465	49,88
836,878	49,59
837,29	49,69
837,703	50,03
838,116	49,5
838,528	49,72
838,94	49,56
839,352	49,51
839,765	49,85
840,177	49,39
840,589	49,2
841	49,65
841,412	49,55
841,824	49,81
842,235	49,79
842,647	49,82
843,058	49,75
843,47	49,63
843,881	49,77
844,292	49,65
844,703	50,04
845,114	49,55
845,525	49,43
845,935	49,68
846,346	49,42
846,757	49,55
847,167	49,01
847,577	49,44
847,988	49,4
848,398	49,41
848,808	49,35
849,218	49,34
849,628	49,28
850,038	49,1
850,448	49,19
850,857	49,63
851,267	49,44
851,676	49,37
852,086	49,23
852,495	49,2
852,904	49,85
853,313	49,74
853,722	49,07
854,131	49,14
854,54	49,22
854,949	49
855,357	49,43
855,766	49,12
856,174	49,49
856,583	49,4
856,991	49,56
857,399	49,01
857,807	49,29
858,215	49,28
858,623	49,19
859,031	49,32
859,439	49,37
859,846	48,76
860,254	49,26
860,661	49,42
861,069	49,21
861,476	48,88
861,883	49,22
862,29	49,23
862,697	48,99
863,104	49,45
863,511	49,64
863,918	49,55
864,325	49,13
864,731	49
865,138	48,79
865,544	48,89
865,95	49,07
866,357	49,14
866,763	49,15
867,169	48,67
867,575	49,42
867,98	49,39
868,386	48,98
868,792	48,73
869,197	49,21
869,603	49,07
870,008	49,38
870,414	48,94
870,819	49,02
871,224	48,89
871,629	48,99
872,034	49,24
872,439	49,27
872,844	49,1
873,248	48,83
873,653	49,63
874,057	49,28
874,462	49,64
874,866	49,35
875,27	49,25
875,674	49,11
876,078	48,86
876,482	48,65
876,886	48,97
877,29	48,97
877,694	49,32
878,097	49,33
878,501	49,57
878,904	48,93
879,308	49,36
879,711	48,81
880,114	48,75
880,517	48,87
880,92	49,15
881,323	48,43
881,726	49,19
882,128	48,95
882,531	49,13
882,934	49,04
883,336	48,92
883,738	49,05
884,141	49,22
884,543	48,78
884,945	49,31
885,347	48,89
885,749	49,22
886,151	48,87
886,552	48,93
886,954	48,65
887,355	49,15
887,757	48,79
888,158	48,75
888,56	49,2
888,961	49,11
889,362	48,73
889,763	49,07
890,164	49,09
890,565	48,85
890,965	48,72
891,366	49,02
891,767	49,11
892,167	48,94
892,567	48,91
892,968	48,84
893,368	48,22
893,768	48,88
894,168	48,59
894,568	49,2
894,968	49,05
895,368	48,55
895,767	48,62
896,167	48,94
896,566	49,19
896,966	49,07
897,365	48,4
897,764	48,97
898,164	48,77
898,563	49,31
898,962	48,71
899,361	48,94
899,759	48,64
900,158	48,86
900,557	48,75
900,955	48,75
901,354	49,23
901,752	48,65
902,15	48,99
902,548	48,78
902,947	48,65
903,345	48,76
903,742	48,73
904,14	48,63
904,538	48,66
904,936	49,24
905,333	49,01
905,731	48,73
906,128	48,53
906,525	49,18
906,923	49,38
907,32	49,39
907,717	48,82
908,114	49,09
908,511	48,53
908,907	48,83
909,304	48,66
909,701	48,78
910,097	48,3
910,494	48,57
910,89	48,68
911,286	49,06
911,682	49,18
912,078	48,67
912,474	49,11
912,87	48,54
913,266	48,63
913,662	48,49
914,058	48,87
914,453	48,84
914,849	48,38
915,244	48,32
915,639	49,02
916,034	49,01
916,43	49,12
916,825	48,83
917,22	49,01
917,614	48,72
918,009	48,81
918,404	48,92
918,798	48,56
919,193	48,63
919,587	48,68
919,982	48,63
920,376	48,74
920,77	48,53
921,164	48,63
921,558	48,32
921,952	48,6
922,346	49,17
922,74	48,55
923,133	49,09
923,527	48,84
923,92	48,73
924,314	48,62
924,707	49,3
925,1	48,53
925,493	48,23
925,886	49,32
926,279	48,56
926,672	48,68
927,065	48,23
927,457	48,75
927,85	48,97
928,243	48,53
928,635	49,27
929,027	48,46
929,42	48,53
929,812	48,88
930,204	49,2
930,596	48,51
930,988	48,72
931,379	48,52
931,771	48,61
932,163	48,68
932,554	49,37
932,946	48,23
933,337	48,7
933,729	48,55
934,12	48,17
934,511	48,3
934,902	48,06
935,293	48,58
935,684	47,83
936,075	48,24
936,465	48,58
936,856	48,18
937,246	49,14
937,637	48,57
938,027	47,83
938,417	49,02
938,808	49,09
939,198	48,48
939,588	48,56
939,978	47,52
940,368	48,07
940,757	47,76
941,147	49,02
941,537	48,64
941,926	48,3
942,315	49,33
942,705	49,21
943,094	48,09
943,483	48,54
943,872	48,27
944,261	47,88
944,65	49
945,039	47,95
945,428	48,65
945,816	48,15
946,205	48,56
946,593	48,97
946,982	48,25
947,37	48,13
947,758	48,14
948,146	48,46
948,534	48,21
948,922	48,36
949,31	47,76
949,698	48,06
950,086	48,14
950,473	47,58
950,861	48,4
951,248	48,27
951,636	47,63
952,023	48,34
952,41	47,85
952,797	48,54
953,184	47,76
953,571	48,18
953,958	48,82
954,345	47,34
954,731	47,63
955,118	47,71
955,505	47,73
955,891	47,49
956,277	47,47
956,664	47,75
957,05	48,18
957,436	48,08
957,822	47,33
958,208	47,48
958,594	47,63
958,979	47,69
959,365	46,96
959,751	47,88
960,136	47,72
960,522	47,94
960,907	47,07
961,292	47,67
961,677	47,55
962,062	47,5
962,447	47,76
962,832	47,31
963,217	47,76
963,602	47,62
963,986	48,01
964,371	47,62
964,756	47,41
965,14	47,64
965,524	47,58
965,908	48,09
966,293	47,66
966,677	47,86
967,061	47,77
967,445	47,37
967,828	47,16
968,212	47,05
968,596	47,37
968,979	47,37
969,363	47,66
969,746	47,58
970,129	47,71
970,513	48,96
970,896	46,79
971,279	47,85
971,662	47,52
972,045	47,74
972,428	47,41
972,81	48,02
973,193	47,44
973,575	47,59
973,958	47,84
974,34	47,85
974,723	47,8
975,105	47,51
975,487	47,88
975,869	47,59
976,251	47,78
976,633	47,39
977,015	48
977,396	47,37
977,778	47,11
978,16	47,2
978,541	47,68
978,922	47,84
979,304	46,56
979,685	47,47
980,066	47,24
980,447	47,61
980,828	47,88
981,209	48,03
981,59	47,64
981,97	46,87
982,351	47,73
982,732	47,42
983,112	47,65
983,493	47,31
983,873	47,8
984,253	47,18
984,633	47,37
985,013	47,81
985,393	47,79
985,773	47,62
986,153	47,51
986,533	46,89
986,912	46,97
987,292	47,54
987,671	46,99
988,051	48,43
988,43	47,14
988,809	47,49
989,188	47,99
989,567	46,83
989,946	47,11
990,325	47,62
990,704	47,92
991,083	47,24
991,461	47,19
991,84	47,01
992,218	47,4
992,597	47,21
992,975	47,67
993,353	47,79
993,732	47,5
994,11	47,37
994,488	47,27
994,866	48,06
995,243	47,25
995,621	47,49
995,999	47,41
996,376	47,75
996,754	47,68
997,131	48,38
997,509	48,1
997,886	47,34
998,263	47,47
998,64	48,22
999,017	47,33
999,394	47,22
999,771	47,32
1000,148	47,25
1000,524	48,34
1000,901	48,02
1001,277	48,66
1001,654	47,97
1002,03	48,65
1002,406	47,72
1002,783	47,75
1003,159	47,74
1003,535	47,81
1003,911	48,04
1004,286	47,75
1004,662	47,39
1005,038	48,47
1005,414	47,76
1005,789	48,06
1006,164	47,8
1006,54	48,39
1006,915	47,71
1007,29	47,88
1007,665	48,11
1008,04	48,16
1008,415	47,35
1008,79	48,68
1009,165	48,02
1009,54	48,88
1009,914	48
1010,289	47,24
1010,663	47,69
1011,038	47,2
1011,412	47,61
1011,786	47,81
1012,16	48,42
1012,535	48,28
1012,909	47,83
1013,282	48,76
1013,656	48,34
1014,03	48,63
1014,404	47,57
1014,777	47,63
1015,151	48,25
1015,524	48,32
1015,897	47,14
1016,271	48,09
1016,644	47,88
1017,017	47,7
1017,39	48,76
1017,763	47,83
1018,136	48,33
1018,508	47,3
1018,881	47,39
1019,254	48,11
1019,626	47,34
1019,999	47,77
1020,371	48,47
1020,743	47,34
1021,116	46,98
1021,488	47,62
1021,86	47,54
1022,232	48,15
1022,604	47,28
1022,975	48,78
1023,347	48,38
1023,719	48,54
1024,09	48,19
1024,462	48,68
1024,833	48,75
1025,204	48,51
1025,576	47,4
1025,947	47,91
1026,318	47,5
1026,689	48,4
1027,06	48,17
1027,431	48,5
1027,801	48,1
1028,172	48,92
1028,543	49,08
1028,913	47,9
1029,284	47,58
1029,654	48,03
1030,024	47,91
1030,394	48,29
1030,764	47,97
1031,135	47,86
1031,504	48,5
1031,874	49,21
1032,244	48,88
1032,614	47,82
1032,983	47,52
1033,353	48,35
1033,722	48,56
1034,092	47,54
1034,461	48,21
1034,83	47,86
1035,2	49,2
1035,569	47,37
1035,938	48,53
1036,307	48,06
1036,675	47,74
1037,044	47,97
1037,413	48,2
1037,781	48,02
1038,15	48,94
1038,518	48,67
1038,887	49,27
1039,255	48,13
1039,623	48,47
1039,991	50,23
1040,359	47,6
1040,727	47,27
1041,095	49,14
1041,463	47,75
1041,831	48,48
1042,198	48,42
1042,566	48,58
1042,933	48,76
1043,301	48,38
1043,668	48,4
1044,035	47,43
1044,402	49,08
1044,77	48,07
1045,137	49,49
1045,503	48,31
1045,87	48,38
1046,237	48,87
1046,604	48,19
1046,97	50,02
1047,337	48,93
1047,703	48,43
1048,07	49,07
1048,436	46,86
1048,802	47,84
1049,168	48,56
1049,534	48,17
1049,9	46,59
1050,266	49,43
1050,632	48,37
1050,998	49,37
1051,364	48,2
1051,729	48,79
1052,095	48,65
1052,46	48,57
1052,825	48,98
1053,191	49,65
1053,556	49,84
1053,921	47,51
1054,286	48,97
1054,651	48,31
1055,016	49,54
1055,381	47,97
1055,745	48,13
1056,11	48,81
1056,475	49,21
1056,839	49,63
1057,203	48,92
1057,568	50,29
1057,932	48,37
1058,296	49,11
1058,66	48,32
1059,024	47,53
1059,388	49,94
1059,752	49,39
1060,116	48,8
1060,48	48,91
1060,843	48,16
1061,207	49,57
1061,57	49,25
1061,934	49,35
1062,297	48,44
1062,66	48,35
1063,023	49,65
1063,386	49,49
1063,749	49,11
1064,112	48,39
1064,475	49,76
1064,838	50,72
1065,201	48,35
1065,563	49,51
1065,926	50,15
1066,288	49,06
1066,651	48,81
1067,013	50,77
1067,375	48,25
1067,737	50
1068,099	48,68
1068,461	47,43
1068,823	47,97
1069,185	48,47
1069,547	50,87
1069,909	49,16
1070,27	48,39
1070,632	48,78
1070,993	50,35
1071,355	49,52
1071,716	49,03
1072,077	48,59
1072,438	48,94
1072,799	48,84
1073,16	49,77
1073,521	48,19
1073,882	49,42
1074,243	48,06
1074,603	49,85
1074,964	49,16
1075,325	47,75
1075,685	49,81
1076,045	46,99
1076,406	48,65
1076,766	50,14
1077,126	48,12
1077,486	50,06
1077,846	50,57
1078,206	49,94
1078,566	51,03
1078,925	48,03
1079,285	50,45
1079,645	49,26
1080,004	50,44
1080,364	49,21
1080,723	47,85
1081,082	49,54
1081,442	50,16
1081,801	49,62
1082,16	48,23
1082,519	52,27
1082,878	48,5
1083,237	48,42
1083,595	49,39
1083,954	49,43
1084,313	48,75
1084,671	49,54
1085,03	49,01
1085,388	50,48
1085,746	51,57
1086,104	49,33
1086,463	48,88
1086,821	47,96
1087,179	49,12
1087,537	48,45
1087,894	50,42
1088,252	48,87
1088,61	48,33
1088,967	50,68
1089,325	51,03
1089,682	50,89
1090,04	52,1
1090,397	50,72
1090,754	52,26
1091,111	50,91
1091,469	51,23
1091,826	47,86
1092,182	51,03
1092,539	48,63
1092,896	48,34
1093,253	49,76
1093,609	47,95
1093,966	48,61
1094,322	48,11
1094,679	48,91
1095,035	51,31
1095,391	49,51
1095,748	52,1
1096,104	49,28
1096,46	52,13
1096,816	51,86
1097,171	49,53
1097,527	50,03
1097,883	49,45
1098,239	52,11
1098,594	50,18
1098,95	49,32
1099,305	50,37
1099,66	50,61
1100,016	48,46
1100,371	52,85
1100,726	52,33
1101,081	49,39
1101,436	49,8
1101,791	50,76
1102,146	47,92
1102,5	49,36
1102,855	51,92
1103,21	52,41
1103,564	50,72
1103,918	50,38
1104,273	49,35
1104,627	48,32
1104,981	50,63
1105,335	49,91
1105,69	49,55
1106,043	54,66
1106,397	51,44
1106,751	51,52
1107,105	54,76
1107,459	52,2
1107,812	53,76
1108,166	52,17
1108,519	51,79
1108,873	52,89
1109,226	51,24
1109,579	49,03
1109,932	51,2
1110,285	52,26
1110,638	53,64
1110,991	52,05
1111,344	52,1
1111,697	49,94
1112,05	55,46
1112,402	50,26
1112,755	49,32
1113,107	51,7
1113,46	53,43
1113,812	51,21
1114,164	52,94
1114,517	52,99
1114,869	86,67
1115,221	93,44
1115,573	86,15
1115,924	77,46
