Data from C4___Relative__5__00025.txt Node

Date: Thu Feb 01 16:17:30 CET 2024
User: diatiterra
Spectrometer: HDX00911
Trigger mode: 0
Integration Time (sec): 6,000000E-3
Scans to average: 2
Nonlinearity correction enabled: false
Boxcar width: 0
Storing dark spectrum: false
XAxis mode: Wavelengths
Number of Pixels in Spectrum: 2068
>>>>>Begin Spectral Data<<<<<
194,468	116,92
195,025	80,56
195,581	80,3
196,138	64,71
196,694	79,12
197,251	78,57
197,807	52,33
198,363	55,03
198,919	53,8
199,474	49,68
200,03	63,07
200,586	58,86
201,141	48,97
201,696	56,07
202,251	59,12
202,806	57,47
203,361	60,11
203,916	59,46
204,471	51,63
205,025	59,46
205,58	46,24
206,134	53,19
206,688	54,45
207,242	58,72
207,796	54,04
208,35	49,42
208,904	57,63
209,457	60
210,011	57,06
210,564	53,23
211,117	67,32
211,67	56,74
212,223	62,89
212,776	51,87
213,329	60,43
213,881	51,3
214,434	54,5
214,986	67,47
215,538	54,35
216,09	59,38
216,642	53,61
217,194	57,06
217,746	61,71
218,297	45
218,849	58,14
219,4	52,78
219,951	65,71
220,502	55,03
221,053	48,21
221,604	62,13
222,155	57,22
222,705	61,4
223,256	55,62
223,806	47,43
224,356	44,33
224,906	54,55
225,456	52,41
226,006	53,01
226,556	60
227,106	53,05
227,655	54,97
228,204	49,72
228,754	59,2
229,303	55,29
229,852	56,11
230,401	58,02
230,949	54,24
231,498	45,21
232,047	50
232,595	51,72
233,143	60
233,691	60,44
234,239	49,73
234,787	56,4
235,335	61,05
235,883	48,42
236,43	60,65
236,978	59,04
237,525	40,7
238,072	46,67
238,619	57,32
239,166	48,53
239,713	50,84
240,26	55,56
240,806	53,37
241,353	59,88
241,899	57,69
242,445	45,56
242,991	52,43
243,537	41,18
244,083	56,04
244,629	54
245,174	54,6
245,72	49,72
246,265	45,55
246,81	52,27
247,355	61,54
247,9	56,47
248,445	52,87
248,99	46,11
249,534	58,43
250,079	56,02
250,623	52,17
251,168	57,47
251,712	45,88
252,256	56,52
252,8	51,98
253,343	61,54
253,887	53,55
254,43	52,84
254,974	49,72
255,517	59,32
256,06	61,93
256,603	65,17
257,146	44,2
257,689	43,92
258,232	42,33
258,774	67,26
259,317	47,8
259,859	48,69
260,401	47,75
260,943	58,6
261,485	55,68
262,027	48,68
262,569	54,3
263,11	49,72
263,652	60,99
264,193	56,82
264,734	50,88
265,275	38,54
265,816	50,27
266,357	47,62
266,898	40,4
267,438	58,23
267,979	48,3
268,519	50
269,059	50,6
269,6	50,82
270,14	44,39
270,68	48,63
271,219	40,8
271,759	64,74
272,298	55,14
272,838	44,44
273,377	56,42
273,916	47,65
274,455	57,95
274,994	55
275,533	60,48
276,072	46,11
276,61	57,99
277,149	62,94
277,687	55,42
278,225	57,06
278,763	51,45
279,301	48,94
279,839	59,04
280,377	41,61
280,914	52,58
281,452	53,07
281,989	58,82
282,526	56,96
283,064	47,5
283,601	52,81
284,137	46,63
284,674	64,04
285,211	54,84
285,747	60,8
286,284	54,71
286,82	52,6
287,356	54,12
287,892	51,93
288,428	50,57
288,964	51,08
289,5	52,6
290,035	59,09
290,571	52,91
291,106	57,3
291,641	52,91
292,176	53,23
292,711	54,65
293,246	60,33
293,781	58,56
294,315	51,53
294,85	50,97
295,384	59,54
295,918	48,4
296,453	50,81
296,987	45,36
297,52	52,72
298,054	53,45
298,588	57,32
299,121	53,63
299,655	52,94
300,188	60
300,721	50,31
301,254	46,56
301,787	47,85
302,32	51,81
302,853	53,07
303,385	48,37
303,918	56
304,45	48,98
304,982	51,98
305,514	51,6
306,046	56,52
306,578	56,15
307,11	48,07
307,641	58,79
308,173	58,43
308,704	54,55
309,236	46,7
309,767	48,95
310,298	59,75
310,829	53,5
311,359	55,56
311,89	66,67
312,421	52,43
312,951	49,14
313,481	59,41
314,012	55,73
314,542	58,51
315,072	48,07
315,601	61,04
316,131	50
316,661	56,25
317,19	45,66
317,72	46,39
318,249	53,89
318,778	61,9
319,307	60,94
319,836	61,02
320,365	49,21
320,893	69,43
321,422	54,17
321,95	59,38
322,479	61,82
323,007	63,48
323,535	56,65
324,063	56,5
324,591	50,26
325,118	51,08
325,646	56,38
326,173	66,67
326,701	40,51
327,228	51,31
327,755	50,25
328,282	61,45
328,809	63,53
329,336	50,25
329,862	56,57
330,389	47,94
330,915	47,15
331,441	60,23
331,968	66,29
332,494	55,61
333,02	55,31
333,545	43,39
334,071	48,21
334,597	58,43
335,122	56,38
335,648	50,48
336,173	48,65
336,698	60,11
337,223	56,68
337,748	40,8
338,272	36,7
338,797	49,73
339,322	48,65
339,846	56,45
340,37	54,1
340,894	48,26
341,419	56,9
341,942	47,62
342,466	52,85
342,99	54,97
343,514	46,08
344,037	43,62
344,56	45,45
345,084	49,75
345,607	51,46
346,13	50,23
346,653	49,53
347,175	47,37
347,698	51,76
348,221	46,01
348,743	50
349,265	47,78
349,787	39,51
350,309	50,2
350,831	51,05
351,353	51,66
351,875	54,66
352,397	45,69
352,918	55,83
353,439	44,3
353,961	46,85
354,482	50,64
355,003	47,74
355,524	46,09
356,044	51,45
356,565	45,53
357,086	45,69
357,606	48,51
358,126	46,36
358,646	44,61
359,167	56,52
359,687	52,04
360,206	42,96
360,726	48,64
361,246	44,53
361,765	43,48
362,285	50,56
362,804	52,88
363,323	48,23
363,842	45,77
364,361	47,81
364,88	50,49
365,398	54,04
365,917	43,52
366,435	45,67
366,954	49,19
367,472	46,52
367,99	47,08
368,508	47,33
369,026	58,01
369,544	46,23
370,061	48,66
370,579	56,17
371,096	46,83
371,613	51,28
372,131	46,67
372,648	46,44
373,165	53,15
373,681	51,51
374,198	50,43
374,715	55,84
375,231	52,15
375,747	50,53
376,264	53
376,78	49,49
377,296	43,75
377,812	48,86
378,327	49,62
378,843	54,22
379,359	42,22
379,874	50,37
380,389	46,28
380,905	42,8
381,42	45,78
381,935	45,84
382,449	43,6
382,964	40,12
383,479	44,03
383,993	44,51
384,508	41,73
385,022	44,29
385,536	42,3
386,05	45,39
386,564	45,12
387,078	45,16
387,592	41,95
388,105	39,34
388,619	39,52
389,132	42,5
389,645	39,2
390,158	41,23
390,671	40,7
391,184	39,13
391,697	37,22
392,21	37,36
392,722	36,12
393,235	39,23
393,747	36,08
394,259	39,58
394,771	37,24
395,283	37,07
395,795	36,47
396,307	32,79
396,818	34,96
397,33	35,26
397,841	37,35
398,353	33,45
398,864	31,67
399,375	32,41
399,886	32,21
400,397	33,26
400,907	33,6
401,418	27,57
401,928	30,29
402,439	29,28
402,949	30,06
403,459	26,78
403,969	27,46
404,479	26,71
404,989	25,02
405,498	24,4
406,008	24,92
406,517	25,52
407,027	23,16
407,536	20,9
408,045	23,59
408,554	21,6
409,063	21,97
409,572	21,02
410,08	20,15
410,589	18,19
411,097	17,82
411,606	16,68
412,114	17,58
412,622	15,99
413,13	16,75
413,638	15,65
414,145	14,63
414,653	15,81
415,16	15,64
415,668	14,86
416,175	14,37
416,682	13,51
417,189	13,34
417,696	13,17
418,203	13,14
418,71	13,22
419,216	12,6
419,723	11,73
420,229	12,21
420,735	11,93
421,242	11,46
421,748	12,45
422,254	11,45
422,759	11,22
423,265	11,55
423,771	11,63
424,276	11,68
424,781	10,98
425,287	11,39
425,792	10,99
426,297	11,92
426,802	11,56
427,306	10,28
427,811	11,02
428,316	11,16
428,82	10,3
429,324	10,91
429,829	10,34
430,333	10,57
430,837	9,88
431,34	9,99
431,844	10,52
432,348	9,86
432,851	9,7
433,355	9,73
433,858	10,83
434,361	10,19
434,864	10,37
435,367	9,49
435,87	9,54
436,373	9,76
436,876	9,84
437,378	9,38
437,88	9,62
438,383	9,49
438,885	10,35
439,387	9,56
439,889	9,69
440,391	10,51
440,892	9,48
441,394	9,72
441,896	9,93
442,397	9,53
442,898	9,4
443,399	10,16
443,9	9,5
444,401	9,9
444,902	10,35
445,403	10,02
445,903	9,69
446,404	10,08
446,904	10,33
447,405	10,11
447,905	10,99
448,405	10,38
448,905	10,04
449,404	10,73
449,904	10,83
450,404	10,64
450,903	10,94
451,403	11,23
451,902	11,11
452,401	10,92
452,9	11,42
453,399	11,32
453,898	11,27
454,396	10,96
454,895	11,51
455,393	11,14
455,892	11,57
456,39	11,59
456,888	10,94
457,386	11,96
457,884	11,81
458,382	11,07
458,879	11,46
459,377	11,67
459,874	11,5
460,372	11,64
460,869	11,74
461,366	11,51
461,863	11,77
462,36	12,14
462,857	11,52
463,353	11,4
463,85	11,67
464,346	11,95
464,843	11,41
465,339	11,59
465,835	12,24
466,331	12,05
466,827	11,66
467,323	11,55
467,818	11,63
468,314	11,57
468,809	11,17
469,305	11,72
469,8	11,58
470,295	11,22
470,79	12,11
471,285	11,68
471,78	11,56
472,274	11,58
472,769	11,37
473,263	11,94
473,758	11,67
474,252	11,58
474,746	11,82
475,24	11,75
475,734	11,87
476,228	11,47
476,721	11,25
477,215	11,67
477,708	12,15
478,202	12,28
478,695	11,67
479,188	12,27
479,681	12,14
480,174	12,09
480,667	12,11
481,159	12,42
481,652	12,16
482,144	12,39
482,637	12,17
483,129	12,33
483,621	12,16
484,113	12,1
484,605	12,47
485,097	12,61
485,588	12,48
486,08	12,23
486,571	12,47
487,063	12,33
487,554	12,92
488,045	13,16
488,536	12,53
489,027	13,01
489,518	12,69
490,008	13,04
490,499	13,2
490,989	13,23
491,48	13,1
491,97	13,39
492,46	13,27
492,95	13,35
493,44	13,5
493,93	13,88
494,419	13,9
494,909	14,14
495,398	14,23
495,888	14,49
496,377	15,05
496,866	14,66
497,355	15,05
497,844	15
498,333	15,14
498,821	14,99
499,31	15,29
499,798	15,56
500,287	15,83
500,775	15,94
501,263	16,4
501,751	16,38
502,239	17,27
502,727	16,61
503,215	17,03
503,702	17,8
504,19	17,32
504,677	18,27
505,164	18,29
505,651	18,5
506,139	18,85
506,625	19,2
507,112	19,18
507,599	19,11
508,086	19,32
508,572	20,05
509,058	20,63
509,545	20,47
510,031	20,86
510,517	21,44
511,003	21,46
511,489	21,49
511,974	22,31
512,46	22,74
512,946	22,97
513,431	23,23
513,916	23,48
514,401	23,82
514,887	24,17
515,371	24,41
515,856	24,52
516,341	25,13
516,826	25,55
517,31	25,84
517,795	26,26
518,279	26,79
518,763	26,87
519,247	27,35
519,731	27,79
520,215	27,92
520,699	27,96
521,182	28,82
521,666	28,85
522,149	29,07
522,633	29,29
523,116	29,33
523,599	29,71
524,082	30,27
524,565	30,8
525,048	30,9
525,53	31,25
526,013	31,38
526,495	31,33
526,978	31,3
527,46	31,73
527,942	31,92
528,424	32,42
528,906	32,02
529,388	32,32
529,87	32,53
530,351	33,77
530,833	33,02
531,314	33,67
531,795	34,35
532,277	33,25
532,758	33,74
533,238	33,2
533,719	33,58
534,2	34,63
534,681	33,75
535,161	34,41
535,642	34,17
536,122	33,85
536,602	34,86
537,082	33,96
537,562	34,65
538,042	34,48
538,522	34,96
539,001	34,69
539,481	34,8
539,96	35,43
540,44	35,15
540,919	34,84
541,398	35,02
541,877	34,89
542,356	35,3
542,835	34,47
543,313	34,88
543,792	35,23
544,27	35,23
544,749	35,05
545,227	35,1
545,705	34,98
546,183	34,82
546,661	34,84
547,139	35,58
547,616	35,18
548,094	34,96
548,571	35,62
549,049	35,52
549,526	35,58
550,003	35,71
550,48	36
550,957	35,15
551,434	35,66
551,911	35,61
552,387	35,49
552,864	35,44
553,34	35,58
553,817	35,95
554,293	35,71
554,769	35,91
555,245	35,7
555,721	35,38
556,197	35,72
556,672	35,81
557,148	35,96
557,623	35,18
558,099	35,96
558,574	35,69
559,049	35,55
559,524	35,26
559,999	35,74
560,474	35,57
560,948	35,21
561,423	35,27
561,897	35,07
562,372	35,21
562,846	35,43
563,32	35,09
563,794	34,92
564,268	35,07
564,742	35,23
565,216	35,28
565,69	34,34
566,163	34,87
566,636	34,61
567,11	34,34
567,583	34,51
568,056	33,78
568,529	33,92
569,002	33,98
569,475	33,93
569,947	33,47
570,42	33,76
570,892	32,98
571,365	32,61
571,837	33,36
572,309	32,09
572,781	32,75
573,253	32,54
573,725	31,96
574,197	32,17
574,668	32,14
575,14	32,08
575,611	32,05
576,082	31,93
576,554	31,54
577,025	31,21
577,496	31,38
577,967	31,04
578,437	31,37
578,908	31,28
579,379	30,98
579,849	30,15
580,319	30,14
580,79	30,53
581,26	30,15
581,73	30,6
582,2	29,97
582,669	30,14
583,139	29,85
583,609	29,54
584,078	29,37
584,548	29,51
585,017	29,26
585,486	29,18
585,955	29,38
586,424	28,98
586,893	29,19
587,362	28,8
587,83	28,91
588,299	28,54
588,767	28,74
589,236	28,37
589,704	28,18
590,172	28,52
590,64	28,31
591,108	28,24
591,576	28,29
592,043	28,01
592,511	27,95
592,978	27,33
593,446	27,79
593,913	27,8
594,38	27,78
594,847	27,54
595,314	27,31
595,781	27,36
596,248	27,25
596,715	27,6
597,181	27,35
597,647	27,17
598,114	27,45
598,58	27,16
599,046	27,01
599,512	26,81
599,978	27,04
600,444	27,19
600,91	26,96
601,375	27,15
601,841	27
602,306	27,08
602,771	26,79
603,236	26,95
603,702	26,9
604,167	26,63
604,631	26,54
605,096	26,53
605,561	26,63
606,025	26,49
606,49	26,55
606,954	26,25
607,418	26,09
607,882	26,04
608,347	25,97
608,81	26,72
609,274	25,6
609,738	25,64
610,202	25,64
610,665	25,6
611,128	25,6
611,592	25,56
612,055	25,26
612,518	25,34
612,981	25,18
613,444	24,91
613,907	25,39
614,369	25,14
614,832	24,53
615,294	24,83
615,757	24,38
616,219	24,3
616,681	24,42
617,143	24,04
617,605	24,43
618,067	24,14
618,529	24,01
618,99	23,89
619,452	23,7
619,913	23,55
620,375	23,54
620,836	23,65
621,297	24,02
621,758	23,05
622,219	23,64
622,68	23,82
623,14	23,38
623,601	23,19
624,061	23,06
624,522	23,15
624,982	23,08
625,442	22,99
625,902	23,03
626,362	23,1
626,822	23,04
627,282	22,93
627,742	23,06
628,201	23,05
628,661	22,86
629,12	22,75
629,579	22,55
630,038	22,6
630,497	22,52
630,956	22,63
631,415	22,48
631,874	22,59
632,332	22,44
632,791	22,4
633,249	22,62
633,708	22,72
634,166	22,1
634,624	22,36
635,082	22,3
635,54	22,09
635,998	21,78
636,455	21,91
636,913	21,94
637,37	21,68
637,828	21,28
638,285	21,27
638,742	21,22
639,199	20,89
639,656	20,87
640,113	20,76
640,57	20,29
641,027	20,31
641,483	20,06
641,94	20,16
642,396	19,9
642,852	19,71
643,309	19,16
643,765	19,31
644,221	19,11
644,676	18,87
645,132	18,52
645,588	18,46
646,043	18,47
646,499	18,43
646,954	17,93
647,409	17,87
647,864	17,61
648,319	17,7
648,774	17,53
649,229	17,09
649,684	17,04
650,139	17,16
650,593	17,01
651,047	16,76
651,502	16,68
651,956	16,72
652,41	16,49
652,864	16,51
653,318	16,52
653,772	16,29
654,225	16,47
654,679	16,33
655,133	16,15
655,586	16,02
656,039	15,93
656,492	15,82
656,946	15,82
657,399	15,86
657,851	15,51
658,304	15,69
658,757	15,49
659,209	15,36
659,662	15,1
660,114	15,13
660,567	14,81
661,019	14,75
661,471	14,5
661,923	14,48
662,375	14,16
662,826	14,03
663,278	14,14
663,73	13,81
664,181	13,77
664,632	13,57
665,084	13,5
665,535	13,32
665,986	13,01
666,437	13,11
666,888	13,02
667,338	12,97
667,789	12,77
668,24	12,77
668,69	12,59
669,14	12,63
669,591	12,48
670,041	12,64
670,491	12,48
670,941	12,43
671,391	12,5
671,84	12,45
672,29	12,36
672,74	12,63
673,189	12,47
673,638	12,55
674,088	12,67
674,537	12,73
674,986	12,72
675,435	12,82
675,883	12,78
676,332	12,75
676,781	13,05
677,229	13,03
677,678	13,11
678,126	13,32
678,574	13,43
679,022	13,64
679,47	13,78
679,918	14
680,366	14,15
680,814	14,09
681,261	14,35
681,709	14,58
682,156	14,75
682,604	15,02
683,051	15,26
683,498	15,41
683,945	15,62
684,392	15,83
684,839	16,22
685,286	16,55
685,732	17,06
686,179	17,21
686,625	17,49
687,071	17,85
687,518	18,34
687,964	18,72
688,41	19,53
688,856	19,75
689,301	20,08
689,747	20,38
690,193	21,07
690,638	21,66
691,084	21,99
691,529	22,62
691,974	23,13
692,419	23,66
692,864	24,37
693,309	24,9
693,754	25,47
694,199	25,95
694,643	26,31
695,088	26,79
695,532	27,53
695,977	27,9
696,421	28,66
696,865	28,85
697,309	29,33
697,753	29,92
698,197	30,39
698,64	30,91
699,084	31,04
699,527	31,4
699,971	31,8
700,414	32,33
700,857	32,72
701,3	33,16
701,743	33,04
702,186	33,32
702,629	33,85
703,072	34,28
703,515	35,01
703,957	34,54
704,399	35,29
704,842	35,26
705,284	35,53
705,726	35,9
706,168	36,27
706,61	36,67
707,052	36,61
707,494	36,92
707,935	37,26
708,377	37,54
708,818	37,25
709,26	37,81
709,701	37,77
710,142	38,34
710,583	38,18
711,024	38,39
711,465	38,71
711,905	38,77
712,346	38,76
712,787	38,95
713,227	39,22
713,667	39,33
714,108	39,71
714,548	39,94
714,988	39,72
715,428	40,2
715,868	39,84
716,307	40,47
716,747	40,26
717,186	40,88
717,626	40,57
718,065	40,88
718,504	40,93
718,944	41
719,383	41,08
719,822	41,05
720,261	41,05
720,699	41,29
721,138	41,41
721,576	41,61
722,015	41,49
722,453	41,73
722,892	41,66
723,33	41,8
723,768	41,81
724,206	41,95
724,644	42,08
725,081	41,86
725,519	42,37
725,957	42,39
726,394	42,46
726,832	42,46
727,269	42,63
727,706	42,18
728,143	42,74
728,58	42,25
729,017	42,49
729,454	42,44
729,89	42,46
730,327	42,76
730,764	42,71
731,2	42,61
731,636	42,95
732,072	42,48
732,509	42,85
732,945	42,82
733,38	42,55
733,816	42,49
734,252	42,47
734,688	42,47
735,123	43,09
735,559	42,91
735,994	42,82
736,429	43,06
736,864	42,79
737,299	42,77
737,734	43,4
738,169	42,88
738,604	42,51
739,038	42,9
739,473	43,26
739,907	42,72
740,342	42,73
740,776	42,84
741,21	42,67
741,644	42,61
742,078	42,59
742,512	42,42
742,946	42,68
743,379	42,67
743,813	42,74
744,246	42,28
744,68	42,72
745,113	42,39
745,546	42,94
745,979	42,56
746,412	42,58
746,845	42,57
747,278	42,45
747,711	42,32
748,143	42,22
748,576	42,27
749,008	42,31
749,441	42,4
749,873	42,02
750,305	42,05
750,737	42,1
751,169	42,03
751,601	42,22
752,032	41,72
752,464	42,04
752,896	41,71
753,327	41,96
753,758	41,94
754,19	41,65
754,621	41,95
755,052	41,4
755,483	41,75
755,914	41,55
756,344	41,88
756,775	41,61
757,206	41,42
757,636	41,5
758,066	41,06
758,497	41,27
758,927	41,44
759,357	41,44
759,787	41,31
760,217	41,31
760,647	41,35
761,076	40,96
761,506	41,17
761,935	41,53
762,365	41,2
762,794	41,1
763,223	41,04
763,653	41,01
764,082	40,87
764,51	40,49
764,939	40,84
765,368	40,72
765,797	41,01
766,225	40,88
766,654	40,95
767,082	40,93
767,51	40,94
767,938	40,44
768,367	40,72
768,795	40,67
769,222	40,65
769,65	40,87
770,078	40,56
770,505	40,42
770,933	40,26
771,36	40,61
771,788	40,68
772,215	40,73
772,642	40,64
773,069	40,36
773,496	40,11
773,923	40,53
774,349	40,23
774,776	40,54
775,203	40,28
775,629	40,27
776,055	40,36
776,482	40,6
776,908	40,58
777,334	40,24
777,76	40,05
778,186	40,37
778,611	40,23
779,037	40,17
779,463	40,19
779,888	39,87
780,314	39,75
780,739	40,01
781,164	40,08
781,589	40,05
782,014	39,93
782,439	40,26
782,864	40,08
783,289	39,94
783,713	39,8
784,138	39,93
784,562	40,16
784,987	39,87
785,411	39,94
785,835	39,73
786,259	39,68
786,683	39,85
787,107	39,81
787,531	39,88
787,954	39,67
788,378	40,16
788,802	39,94
789,225	39,77
789,648	39,83
790,071	39,77
790,495	39,48
790,918	39,65
791,34	39,94
791,763	39,67
792,186	39,76
792,609	39,48
793,031	39,71
793,454	39,89
793,876	40,05
794,298	39,68
794,721	39,51
795,143	39,83
795,565	39,75
795,986	39,53
796,408	39,41
796,83	39,73
797,252	39,64
797,673	39,84
798,094	39,6
798,516	39,74
798,937	39,51
799,358	39,63
799,779	39,55
800,2	39,3
800,621	39,22
801,042	39,58
801,462	39,48
801,883	39,75
802,303	39,41
802,724	39,28
803,144	39,49
803,564	39,15
803,984	39,78
804,404	39,39
804,824	39,43
805,244	39,5
805,664	39,32
806,084	39,4
806,503	39,88
806,923	39,36
807,342	39,34
807,761	39,53
808,18	39,34
808,599	39,53
809,018	39,3
809,437	39,26
809,856	39,49
810,275	39,63
810,693	39,06
811,112	39,05
811,53	39
811,949	39,52
812,367	39,59
812,785	39,14
813,203	39,26
813,621	39,2
814,039	39,27
814,457	39,23
814,874	38,94
815,292	39,51
815,709	39,44
816,127	39,27
816,544	39,2
816,961	39,28
817,378	39,49
817,795	39,5
818,212	39,12
818,629	39,59
819,046	39,66
819,462	39,51
819,879	39,23
820,295	39,22
820,712	38,97
821,128	39,02
821,544	39,12
821,96	39,01
822,376	39,41
822,792	39,33
823,208	38,99
823,624	39,15
824,039	38,79
824,455	39,12
824,87	38,95
825,286	39,28
825,701	39,39
826,116	38,88
826,531	39,21
826,946	39,13
827,361	39,35
827,776	39,21
828,19	38,99
828,605	38,72
829,02	39,11
829,434	38,97
829,848	38,94
830,263	39,22
830,677	39,06
831,091	38,87
831,505	39,14
831,919	39,04
832,332	39,02
832,746	39,03
833,16	38,9
833,573	38,55
833,987	38,94
834,4	39,03
834,813	38,77
835,226	38,75
835,639	39,13
836,052	39,33
836,465	38,87
836,878	38,85
837,29	39,03
837,703	39,02
838,116	38,79
838,528	39,13
838,94	38,7
839,352	39,19
839,765	38,65
840,177	38,98
840,589	38,93
841	39
841,412	38,31
841,824	38,78
842,235	39,07
842,647	38,48
843,058	38,84
843,47	38,8
843,881	39,29
844,292	39,17
844,703	39,04
845,114	38,95
845,525	38,9
845,935	38,67
846,346	39,01
846,757	38,75
847,167	39
847,577	39,02
847,988	38,55
848,398	38,57
848,808	39,17
849,218	38,54
849,628	38,82
850,038	38,81
850,448	38,4
850,857	38,96
851,267	38,52
851,676	38,88
852,086	38,77
852,495	38,85
852,904	39,26
853,313	38,46
853,722	38,43
854,131	38,65
854,54	38,8
854,949	38,15
855,357	38,94
855,766	38,68
856,174	38,66
856,583	38,59
856,991	38,45
857,399	38,8
857,807	38,81
858,215	38,4
858,623	38,57
859,031	38,52
859,439	38,49
859,846	38,71
860,254	38,59
860,661	38,32
861,069	38,65
861,476	38,38
861,883	38,62
862,29	38,21
862,697	38,56
863,104	38,51
863,511	38,8
863,918	38,39
864,325	38,69
864,731	38,43
865,138	38,63
865,544	38,81
865,95	38,59
866,357	38,5
866,763	38,29
867,169	38,32
867,575	38,55
867,98	38,63
868,386	38,7
868,792	38,13
869,197	38,61
869,603	38,71
870,008	38,63
870,414	38,31
870,819	38,39
871,224	38,06
871,629	38,38
872,034	38,32
872,439	38,56
872,844	38,24
873,248	38,36
873,653	38,45
874,057	38,46
874,462	38,67
874,866	38,45
875,27	38,29
875,674	38,35
876,078	38,28
876,482	38,64
876,886	38,12
877,29	38,49
877,694	38,27
878,097	38,4
878,501	38,69
878,904	38,24
879,308	38,79
879,711	38,49
880,114	38,48
880,517	38,23
880,92	38,53
881,323	38,2
881,726	38,34
882,128	38,3
882,531	38,29
882,934	38,49
883,336	38,47
883,738	38,59
884,141	38,34
884,543	38,25
884,945	38,46
885,347	38
885,749	38,62
886,151	38,3
886,552	38,38
886,954	38,7
887,355	38,67
887,757	38,15
888,158	38
888,56	38,41
888,961	38,02
889,362	38,11
889,763	38,48
890,164	38,23
890,565	38,12
890,965	38,07
891,366	38,34
891,767	38,5
892,167	38,37
892,567	38,19
892,968	38,19
893,368	38,1
893,768	38,56
894,168	38,22
894,568	38,7
894,968	38,27
895,368	38,43
895,767	38,23
896,167	38,46
896,566	38,52
896,966	38,06
897,365	38,39
897,764	38,39
898,164	37,91
898,563	38,57
898,962	37,75
899,361	38,09
899,759	38,36
900,158	38,51
900,557	38,16
900,955	37,97
901,354	38,54
901,752	37,82
902,15	38,19
902,548	38,01
902,947	38,11
903,345	38,04
903,742	38,25
904,14	38,45
904,538	38
904,936	38,18
905,333	38,2
905,731	38,34
906,128	37,94
906,525	38,3
906,923	38,16
907,32	38,41
907,717	38,27
908,114	38,03
908,511	37,88
908,907	38,35
909,304	38,26
909,701	38,17
910,097	38,34
910,494	37,75
910,89	38,28
911,286	37,96
911,682	38,45
912,078	38,17
912,474	38,28
912,87	38,1
913,266	38,06
913,662	37,97
914,058	38,3
914,453	38,75
914,849	38,04
915,244	38,38
915,639	38,39
916,034	38,35
916,43	38,21
916,825	38,09
917,22	38,16
917,614	38,26
918,009	38,19
918,404	37,86
918,798	37,92
919,193	37,75
919,587	38,09
919,982	38,18
920,376	38,2
920,77	38,2
921,164	38,78
921,558	37,96
921,952	38,06
922,346	38,24
922,74	37,67
923,133	38,02
923,527	37,9
923,92	38,28
924,314	37,81
924,707	38,52
925,1	37,99
925,493	37,64
925,886	38,24
926,279	38,01
926,672	38,5
927,065	37,97
927,457	37,92
927,85	38,21
928,243	38,13
928,635	38,11
929,027	38,03
929,42	37,56
929,812	37,98
930,204	38,51
930,596	37,8
930,988	37,9
931,379	37,98
931,771	37,84
932,163	37,82
932,554	37,98
932,946	38,06
933,337	37,96
933,729	37,63
934,12	37,67
934,511	37,68
934,902	37,94
935,293	37,82
935,684	37,52
936,075	37,79
936,465	38,32
936,856	38,04
937,246	37,62
937,637	37,72
938,027	38,25
938,417	37,74
938,808	38,54
939,198	37,77
939,588	38,24
939,978	37,84
940,368	37,8
940,757	38,06
941,147	38,16
941,537	38,16
941,926	37,84
942,315	37,88
942,705	37,49
943,094	37,76
943,483	37,6
943,872	38,19
944,261	37,89
944,65	37,99
945,039	37,93
945,428	37,83
945,816	37,09
946,205	38,2
946,593	38,14
946,982	37,99
947,37	37,84
947,758	38,28
948,146	37,88
948,534	37,41
948,922	37,52
949,31	37,55
949,698	37,06
950,086	36,58
950,473	37,83
950,861	36,8
951,248	37,95
951,636	37,73
952,023	37,51
952,41	37,32
952,797	37,06
953,184	37,41
953,571	37,58
953,958	37,46
954,345	37,07
954,731	38,01
955,118	36,99
955,505	37,73
955,891	37,35
956,277	37,09
956,664	37,33
957,05	38,16
957,436	37,11
957,822	37,25
958,208	37,62
958,594	36,92
958,979	37,35
959,365	37,35
959,751	37,16
960,136	37,44
960,522	37,12
960,907	37,36
961,292	37,35
961,677	37,33
962,062	37,6
962,447	37,61
962,832	37,02
963,217	36,69
963,602	37,22
963,986	37,25
964,371	37,58
964,756	37,08
965,14	37,05
965,524	36,81
965,908	37,44
966,293	37,2
966,677	37,25
967,061	37,06
967,445	36,92
967,828	36,79
968,212	36,53
968,596	37,15
968,979	37,42
969,363	36,8
969,746	37,65
970,129	37,28
970,513	37,81
970,896	36,79
971,279	37,24
971,662	36,71
972,045	37,55
972,428	37,27
972,81	37,04
973,193	37,88
973,575	37,3
973,958	37,23
974,34	36,77
974,723	36,97
975,105	37,51
975,487	37,4
975,869	37,73
976,251	37,54
976,633	37,19
977,015	37,31
977,396	37,02
977,778	37,75
978,16	37,29
978,541	36,68
978,922	37,34
979,304	36,98
979,685	36,96
980,066	37,34
980,447	36,96
980,828	37,04
981,209	37,66
981,59	37,07
981,97	37,17
982,351	37,25
982,732	37,36
983,112	37,05
983,493	36,9
983,873	37,63
984,253	36,49
984,633	36,68
985,013	37,24
985,393	37,42
985,773	37,94
986,153	37,28
986,533	36,79
986,912	37,34
987,292	37,78
987,671	36,86
988,051	37,33
988,43	37,16
988,809	37,18
989,188	37,35
989,567	36,94
989,946	37,2
990,325	36,91
990,704	37,59
991,083	36,65
991,461	36,72
991,84	37,51
992,218	37,28
992,597	36,69
992,975	37,12
993,353	37,72
993,732	37,08
994,11	36,77
994,488	37,25
994,866	37,24
995,243	37,49
995,621	37,25
995,999	37,4
996,376	37,44
996,754	37,24
997,131	36,95
997,509	38,25
997,886	37,46
998,263	37,3
998,64	37,43
999,017	36,68
999,394	37,61
999,771	36,84
1000,148	37,13
1000,524	37,4
1000,901	37,07
1001,277	37,93
1001,654	37,76
1002,03	37,41
1002,406	36,78
1002,783	37,76
1003,159	37,09
1003,535	37,46
1003,911	37,53
1004,286	37,63
1004,662	36,65
1005,038	37,69
1005,414	37,55
1005,789	37,77
1006,164	37,49
1006,54	36,66
1006,915	37,97
1007,29	37,58
1007,665	37,49
1008,04	37,28
1008,415	37,09
1008,79	37,78
1009,165	37,21
1009,54	38,69
1009,914	37,44
1010,289	37,25
1010,663	37,77
1011,038	37,81
1011,412	37,7
1011,786	37,73
1012,16	37,85
1012,535	37,46
1012,909	37,04
1013,282	37,82
1013,656	37,44
1014,03	36,84
1014,404	37,44
1014,777	37,43
1015,151	37,64
1015,524	36,83
1015,897	37,48
1016,271	38,03
1016,644	36,92
1017,017	37,2
1017,39	37,57
1017,763	37,46
1018,136	37,7
1018,508	37,74
1018,881	37,66
1019,254	37,67
1019,626	38
1019,999	37,55
1020,371	37,83
1020,743	36,99
1021,116	37,2
1021,488	36,86
1021,86	37,45
1022,232	37,05
1022,604	37,33
1022,975	37,49
1023,347	37,59
1023,719	38,01
1024,09	37,93
1024,462	37,33
1024,833	37,5
1025,204	38,11
1025,576	37,43
1025,947	37,54
1026,318	37,16
1026,689	37,99
1027,06	38,31
1027,431	38,16
1027,801	37,15
1028,172	37,55
1028,543	37,53
1028,913	38,11
1029,284	38
1029,654	38,08
1030,024	37,26
1030,394	37,51
1030,764	37,47
1031,135	37,63
1031,504	37,99
1031,874	38,11
1032,244	37,55
1032,614	37,22
1032,983	37,78
1033,353	37,99
1033,722	38,59
1034,092	37,94
1034,461	37,36
1034,83	38,13
1035,2	38,1
1035,569	36,88
1035,938	38,36
1036,307	37,72
1036,675	37,82
1037,044	37,13
1037,413	37,89
1037,781	38,23
1038,15	37,29
1038,518	37,47
1038,887	37,68
1039,255	38,17
1039,623	38,1
1039,991	38,85
1040,359	37,55
1040,727	37,6
1041,095	38,27
1041,463	36,55
1041,831	38,15
1042,198	38,36
1042,566	38,03
1042,933	37,81
1043,301	36,79
1043,668	38,2
1044,035	37,44
1044,402	39,24
1044,77	38,38
1045,137	39,22
1045,503	38,21
1045,87	37,14
1046,237	37,17
1046,604	37,56
1046,97	38,95
1047,337	38,54
1047,703	38,14
1048,07	38,13
1048,436	36,98
1048,802	37,93
1049,168	38,35
1049,534	38,1
1049,9	37,48
1050,266	37,87
1050,632	38,02
1050,998	38,54
1051,364	38,54
1051,729	38,41
1052,095	38,29
1052,46	38,65
1052,825	38,31
1053,191	39,05
1053,556	38,22
1053,921	38,72
1054,286	37,78
1054,651	37,83
1055,016	37,75
1055,381	37,93
1055,745	37,54
1056,11	37,87
1056,475	38,49
1056,839	38,38
1057,203	38,15
1057,568	39,04
1057,932	36,58
1058,296	38,85
1058,66	37,65
1059,024	38,08
1059,388	38,36
1059,752	38,87
1060,116	38,77
1060,48	39,83
1060,843	38,1
1061,207	37,9
1061,57	39,09
1061,934	38,58
1062,297	37,46
1062,66	38,45
1063,023	38,29
1063,386	38,87
1063,749	37,77
1064,112	37,67
1064,475	38,47
1064,838	40,1
1065,201	38,85
1065,563	38,99
1065,926	36,53
1066,288	37,34
1066,651	39,64
1067,013	38,63
1067,375	38,17
1067,737	39,32
1068,099	38,54
1068,461	38,96
1068,823	39,1
1069,185	37,93
1069,547	39,5
1069,909	38,99
1070,27	38,63
1070,632	38,08
1070,993	39,42
1071,355	38,15
1071,716	39,61
1072,077	38,14
1072,438	37,87
1072,799	38,03
1073,16	38,94
1073,521	37,99
1073,882	39,91
1074,243	38,46
1074,603	38,95
1074,964	36,76
1075,325	39,63
1075,685	38,06
1076,045	36,9
1076,406	38,99
1076,766	39,78
1077,126	37,69
1077,486	38,2
1077,846	39,46
1078,206	39,41
1078,566	40,68
1078,925	39,4
1079,285	39,14
1079,645	39,87
1080,004	38,92
1080,364	39,81
1080,723	37,81
1081,082	37,82
1081,442	40,22
1081,801	38,58
1082,16	38,8
1082,519	40,19
1082,878	39,35
1083,237	38,01
1083,595	38,15
1083,954	36,86
1084,313	38,14
1084,671	37,57
1085,03	38,34
1085,388	38,27
1085,746	39,56
1086,104	37,57
1086,463	38,06
1086,821	39,12
1087,179	38,1
1087,537	37,72
1087,894	39,84
1088,252	38,06
1088,61	37,8
1088,967	39,61
1089,325	39,32
1089,682	39,02
1090,04	38,96
1090,397	39,03
1090,754	41,53
1091,111	37,46
1091,469	39,06
1091,826	37,85
1092,182	38,72
1092,539	38,64
1092,896	39,52
1093,253	38,02
1093,609	37,18
1093,966	36,98
1094,322	37,48
1094,679	37,99
1095,035	39,92
1095,391	38,44
1095,748	40,79
1096,104	38,46
1096,46	37,83
1096,816	38,77
1097,171	40,6
1097,527	37,25
1097,883	39,86
1098,239	38,28
1098,594	38,51
1098,95	40,16
1099,305	40
1099,66	39,56
1100,016	36,1
1100,371	39,85
1100,726	39,7
1101,081	39,19
1101,436	38,95
1101,791	40,23
1102,146	38,94
1102,5	37,72
1102,855	39,27
1103,21	40,17
1103,564	41,76
1103,918	37,04
1104,273	39,81
1104,627	40,18
1104,981	41,41
1105,335	41,07
1105,69	41,46
1106,043	39,7
1106,397	38,51
1106,751	39,87
1107,105	41,67
1107,459	41,54
1107,812	42,8
1108,166	41,63
1108,519	41,91
1108,873	38,22
1109,226	40,67
1109,579	45,58
1109,932	42,08
1110,285	40,13
1110,638	40,89
1110,991	38,13
1111,344	42,62
1111,697	39,45
1112,05	39,09
1112,402	38,59
1112,755	39,88
1113,107	40,21
1113,46	37,66
1113,812	38,18
1114,164	44,74
1114,517	44,63
1114,869	76,67
1115,221	77,05
1115,573	50,77
1115,924	73,24
