Data from D1__Relative__8__00035.txt Node

Date: Thu Feb 01 16:18:55 CET 2024
User: diatiterra
Spectrometer: HDX00911
Trigger mode: 0
Integration Time (sec): 6,000000E-3
Scans to average: 2
Nonlinearity correction enabled: false
Boxcar width: 0
Storing dark spectrum: false
XAxis mode: Wavelengths
Number of Pixels in Spectrum: 2068
>>>>>Begin Spectral Data<<<<<
194,468	155,38
195,025	108,33
195,581	98,48
196,138	111,76
196,694	97,8
197,251	101,59
197,807	69,19
198,363	75,15
198,919	66,85
199,474	70,06
200,03	81,25
200,586	73,42
201,141	59,28
201,696	75,14
202,251	58,01
202,806	79,31
203,361	74,86
203,916	78,92
204,471	67,93
205,025	70,27
205,58	73,99
206,134	62,23
206,688	70,16
207,242	77,33
207,796	60,1
208,35	87,21
208,904	75,14
209,457	65,29
210,011	70,55
210,564	69,35
211,117	78,43
211,67	75,28
212,223	70,1
212,776	74,87
213,329	73,8
213,881	65,8
214,434	73
214,986	73,49
215,538	64,13
216,09	71,88
216,642	80,72
217,194	78,82
217,746	72,57
218,297	86,11
218,849	70,35
219,4	71,67
219,951	77,14
220,502	73,37
221,053	69,64
221,604	75,74
222,155	67,38
222,705	73,68
223,256	70,22
223,806	70,29
224,356	67,01
224,906	69,09
225,456	70,05
226,006	72,13
226,556	67,03
227,106	73,17
227,655	68,06
228,204	61,02
228,754	87,93
229,303	71,76
229,852	71,11
230,401	65,43
230,949	79,66
231,498	66,49
232,047	63,89
232,595	70,69
233,143	66,32
233,691	63,74
234,239	74,32
234,787	75,58
235,335	72,09
235,883	67,37
236,43	69,03
236,978	66,49
237,525	69,85
238,072	65,56
238,619	74,39
239,166	66,18
239,713	70,39
240,26	70,76
240,806	66,26
241,353	65,12
241,899	75,82
242,445	63,91
242,991	58,92
243,537	75,16
244,083	67,58
244,629	68
245,174	64,37
245,72	71,51
246,265	61,26
246,81	72,16
247,355	62,64
247,9	65,88
248,445	75,8
248,99	62,78
249,534	74,16
250,079	76,51
250,623	55,43
251,168	79,89
251,712	73,53
252,256	70,81
252,8	64,41
253,343	69,23
253,887	69,95
254,43	77,27
254,974	69,83
255,517	66,1
256,06	76,14
256,603	66,85
257,146	65,75
257,689	74,6
258,232	67,72
258,774	83,33
259,317	63,19
259,859	58,12
260,401	64,61
260,943	73,89
261,485	74,05
262,027	70,9
262,569	86,75
263,11	68,36
263,652	71,43
264,193	59,09
264,734	65,5
265,275	57,81
265,816	63,24
266,357	76,72
266,898	55,05
267,438	64,56
267,979	69,32
268,519	73,81
269,059	77,11
269,6	70,49
270,14	63,78
270,68	68,49
271,219	67,24
271,759	71,79
272,298	70,27
272,838	67,25
273,377	60,34
273,916	89,93
274,455	69,23
274,994	62,78
275,533	80,84
276,072	78,44
276,61	70,41
277,149	76,47
277,687	74,1
278,225	75,88
278,763	76,3
279,301	72,87
279,839	65,43
280,377	63,98
280,914	70,62
281,452	66,48
281,989	73,53
282,526	77,85
283,064	71,25
283,601	67,98
284,137	76,69
284,674	74,72
285,211	71,51
285,747	65,83
286,284	67,06
286,82	74,48
287,356	70,62
287,892	65,75
288,428	68,39
288,964	65,59
289,5	76,3
290,035	72,16
290,571	56,61
291,106	64,04
291,641	76,16
292,176	71,51
292,711	68,02
293,246	65,76
293,781	67,96
294,315	62,24
294,85	72,26
295,384	70,52
295,918	64,36
296,453	71,35
296,987	56,28
297,52	55,43
298,054	72,41
298,588	76,83
299,121	63,13
299,655	67,06
300,188	70,67
300,721	86,96
301,254	66,14
301,787	65,59
302,32	61,14
302,853	73,18
303,385	61,96
303,918	61,71
304,45	60,71
304,982	64,97
305,514	65,43
306,046	64,67
306,578	73,8
307,11	72,38
307,641	70,88
308,173	73,03
308,704	70,45
309,236	52,79
309,767	66,32
310,298	62,26
310,829	67,5
311,359	69,08
311,89	68,42
312,421	60
312,951	65,14
313,481	57,06
314,012	66,15
314,542	62,77
315,072	75,14
315,601	70,78
316,131	61,17
316,661	78,98
317,19	60,12
317,72	66,27
318,249	77,78
318,778	72,11
319,307	70,83
319,836	71,75
320,365	73,54
320,893	69,43
321,422	78,57
321,95	66,15
322,479	71,52
323,007	66,29
323,535	68,21
324,063	55,93
324,591	65,61
325,118	62,37
325,646	69,15
326,173	71,04
326,701	54,36
327,228	66,49
327,755	66,5
328,282	66,48
328,809	69,41
329,336	63,68
329,862	68
330,389	66,49
330,915	60,1
331,441	73,1
331,968	67,42
332,494	62,24
333,02	70,95
333,545	57,67
334,071	66,15
334,597	59,55
335,122	62,23
335,648	63,46
336,173	65,41
336,698	55,32
337,223	66,31
337,748	66,17
338,272	51,6
338,797	65,03
339,322	62,7
339,846	68,28
340,37	57,92
340,894	52,24
341,419	71,84
341,942	63,49
342,466	61,66
342,99	67,54
343,514	58,82
344,037	55,85
344,56	57,89
345,084	57,71
345,607	58,25
346,13	66,67
346,653	65,89
347,175	51,2
347,698	59,8
348,221	57,75
348,743	55,04
349,265	61,58
349,787	50,24
350,309	41,3
350,831	51,88
351,353	56,87
351,875	49,8
352,397	46,12
352,918	60,42
353,439	55,27
353,961	53,94
354,482	50,64
355,003	38,27
355,524	52,26
356,044	51,04
356,565	43,5
357,086	43,45
357,606	49,36
358,126	46,36
358,646	46,84
359,167	47,83
359,687	49,44
360,206	47,41
360,726	47,08
361,246	48,3
361,765	45,29
362,285	47,58
362,804	44,6
363,323	48,58
363,842	45,07
364,361	44,89
364,88	41,75
365,398	42,11
365,917	41,67
366,435	46,67
366,954	43,65
367,472	40,51
367,99	40,58
368,508	41,33
369,026	37,82
369,544	37,74
370,061	39,76
370,579	46,91
371,096	34,99
371,613	43,87
372,131	36,81
372,648	39,03
373,165	41,92
373,681	39,16
374,198	39,54
374,715	38,75
375,231	42,28
375,747	37,57
376,264	39,16
376,78	34,01
377,296	34,62
377,812	35,7
378,327	36,84
378,843	40,15
379,359	36,08
379,874	35,98
380,389	32,96
380,905	33,33
381,42	31,56
381,935	33,69
382,449	29,13
382,964	29,52
383,479	31,48
383,993	32,3
384,508	28,2
385,022	28,82
385,536	28,14
386,05	30,7
386,564	29,48
387,078	25,99
387,592	25,17
388,105	21,32
388,619	23,2
389,132	26,72
389,645	26,24
390,158	26,61
390,671	27,13
391,184	25,95
391,697	23,74
392,21	24,18
392,722	25,1
393,235	22,85
393,747	23,92
394,259	27,04
394,771	23,33
395,283	26,91
395,795	23,45
396,307	21,11
396,818	20,05
397,33	22,39
397,841	20,32
398,353	19,88
398,864	21,24
399,375	18,93
399,886	19,48
400,397	19,77
400,907	18,03
401,418	17,97
401,928	17,66
402,439	16,3
402,949	17,37
403,459	17,61
403,969	16,74
404,479	15,3
404,989	14,55
405,498	14,11
406,008	14,58
406,517	14,21
407,027	13,95
407,536	12,6
408,045	13,79
408,554	13,25
409,063	13,37
409,572	11,9
410,08	11,87
410,589	12,07
411,097	10,79
411,606	10,14
412,114	9,64
412,622	11,19
413,13	9,82
413,638	8,88
414,145	8,47
414,653	10,09
415,16	9,25
415,668	8,51
416,175	8,26
416,682	8,16
417,189	7,75
417,696	7,91
418,203	6,98
418,71	7,91
419,216	7,83
419,723	7,89
420,229	6,93
420,735	8,35
421,242	6,95
421,748	7,11
422,254	6,77
422,759	6,28
423,265	6,82
423,771	7,11
424,276	6,58
424,781	6,54
425,287	6,13
425,792	6,74
426,297	6,7
426,802	6,37
427,306	6,83
427,811	7,14
428,316	6,22
428,82	6,41
429,324	6,27
429,829	6,18
430,333	6,5
430,837	5,91
431,34	6,24
431,844	6,27
432,348	5,55
432,851	5,91
433,355	5,78
433,858	5,49
434,361	5,93
434,864	5,7
435,367	5,53
435,87	6,04
436,373	6,03
436,876	6,04
437,378	5,19
437,88	5,32
438,383	5,61
438,885	5,85
439,387	5,82
439,889	5,4
440,391	5,89
440,892	5,55
441,394	5,52
441,896	5
442,397	5,47
442,898	5,26
443,399	5,11
443,9	5,15
444,401	5,53
444,902	5,76
445,403	5,55
445,903	5,41
446,404	5,68
446,904	5,42
447,405	5,55
447,905	5,19
448,405	5,49
448,905	4,58
449,404	5,33
449,904	5,74
450,404	5,37
450,903	5,33
451,403	5,33
451,902	5,6
452,401	5,46
452,9	5,57
453,399	5,44
453,898	5,22
454,396	5,78
454,895	5,18
455,393	5,64
455,892	5,79
456,39	5,53
456,888	4,94
457,386	5,52
457,884	5,13
458,382	5,1
458,879	5,32
459,377	5,52
459,874	5,25
460,372	5,02
460,869	5,33
461,366	4,95
461,863	5,15
462,36	5,75
462,857	5,14
463,353	5,59
463,85	5,39
464,346	5,28
464,843	5,28
465,339	5,42
465,835	5,1
466,331	5,71
466,827	5,34
467,323	5,31
467,818	5,22
468,314	5,45
468,809	5,17
469,305	5,24
469,8	4,91
470,295	5,26
470,79	5,18
471,285	5,54
471,78	5,13
472,274	5,1
472,769	5,16
473,263	5,23
473,758	5,22
474,252	5,25
474,746	5,05
475,24	5,09
475,734	5,31
476,228	5,13
476,721	4,96
477,215	5,22
477,708	5,3
478,202	5,55
478,695	5,33
479,188	5,15
479,681	5,44
480,174	5,31
480,667	5,36
481,159	5,23
481,652	5,5
482,144	5,27
482,637	5,24
483,129	5,14
483,621	5,13
484,113	5,33
484,605	5,5
485,097	5,48
485,588	5,17
486,08	5,67
486,571	4,98
487,063	5,09
487,554	5,34
488,045	5,34
488,536	5,1
489,027	5,32
489,518	5,34
490,008	5,3
490,499	5,3
490,989	5,39
491,48	5,11
491,97	5,57
492,46	5,56
492,95	5,54
493,44	5,66
493,93	5,63
494,419	5,63
494,909	5,8
495,398	5,88
495,888	5,83
496,377	5,73
496,866	6,08
497,355	6,06
497,844	6,08
498,333	6,51
498,821	6,01
499,31	6,01
499,798	6,18
500,287	6,17
500,775	6,66
501,263	6,72
501,751	6,31
502,239	6,88
502,727	6,64
503,215	6,95
503,702	7,13
504,19	7,16
504,677	7,11
505,164	7,15
505,651	7,22
506,139	7,6
506,625	7,98
507,112	7,91
507,599	8,15
508,086	8,14
508,572	8,33
509,058	8,72
509,545	8,71
510,031	9,16
510,517	9,06
511,003	9,44
511,489	9,21
511,974	9,54
512,46	9,91
512,946	10,16
513,431	10,03
513,916	10,71
514,401	10,38
514,887	11,01
515,371	10,93
515,856	11,53
516,341	12,01
516,826	12
517,31	12
517,795	12,6
518,279	12,95
518,763	13,16
519,247	13,85
519,731	14,24
520,215	14,15
520,699	14,23
521,182	14,78
521,666	15,32
522,149	15,49
522,633	15,77
523,116	15,86
523,599	16,45
524,082	16,72
524,565	16,97
525,048	17,44
525,53	17,63
526,013	17,66
526,495	18,27
526,978	18,27
527,46	18,95
527,942	18,65
528,424	19,47
528,906	19,35
529,388	19,74
529,87	20,46
530,351	20,85
530,833	20,18
531,314	20,65
531,795	20,67
532,277	20,28
532,758	21,26
533,238	20,94
533,719	21,47
534,2	21,45
534,681	21,1
535,161	22,15
535,642	22,08
536,122	22,22
536,602	22,15
537,082	22,52
537,562	22,47
538,042	22,52
538,522	22,56
539,001	22,56
539,481	22,45
539,96	22,96
540,44	22,89
540,919	22,81
541,398	22,79
541,877	22,67
542,356	23,22
542,835	22,88
543,313	23,45
543,792	23,56
544,27	24,17
544,749	23,19
545,227	23,63
545,705	23,6
546,183	23,66
546,661	23,63
547,139	23,22
547,616	23,72
548,094	23,85
548,571	24,17
549,049	24,01
549,526	24
550,003	23,85
550,48	24,16
550,957	24,14
551,434	23,83
551,911	23,99
552,387	23,97
552,864	23,46
553,34	24,28
553,817	24,19
554,293	24,35
554,769	24,15
555,245	24,21
555,721	23,94
556,197	24,01
556,672	23,95
557,148	23,66
557,623	23,85
558,099	23,86
558,574	23,64
559,049	23,28
559,524	23,44
559,999	23,46
560,474	23,07
560,948	23,29
561,423	23
561,897	23,01
562,372	23,02
562,846	22,89
563,32	22,66
563,794	22,68
564,268	22,4
564,742	22,34
565,216	22,4
565,69	22,23
566,163	21,96
566,636	22,04
567,11	21,48
567,583	21,33
568,056	21,05
568,529	20,92
569,002	20,37
569,475	20,72
569,947	20,18
570,42	20,49
570,892	20,09
571,365	20,14
571,837	19,47
572,309	18,92
572,781	19,35
573,253	19,1
573,725	18,85
574,197	18,54
574,668	18,45
575,14	18,24
575,611	17,84
576,082	18,17
576,554	17,77
577,025	17,34
577,496	17,28
577,967	17,38
578,437	17,18
578,908	16,95
579,379	17,08
579,849	16,72
580,319	16,44
580,79	16,56
581,26	16,02
581,73	16,09
582,2	15,81
582,669	15,84
583,139	15,83
583,609	15,65
584,078	15,38
584,548	15,54
585,017	15,17
585,486	15,16
585,955	15,34
586,424	15,06
586,893	14,9
587,362	14,96
587,83	15
588,299	14,72
588,767	14,46
589,236	14,56
589,704	14,45
590,172	14,64
590,64	14,44
591,108	14,12
591,576	14,38
592,043	14,08
592,511	14,21
592,978	14
593,446	13,98
593,913	14,06
594,38	13,89
594,847	13,75
595,314	13,89
595,781	13,57
596,248	13,95
596,715	13,7
597,181	13,4
597,647	13,62
598,114	13,62
598,58	13,49
599,046	13,39
599,512	13,4
599,978	13,45
600,444	13,31
600,91	13,41
601,375	13,18
601,841	13,16
602,306	13,29
602,771	13,09
603,236	13,18
603,702	12,78
604,167	12,68
604,631	12,91
605,096	12,91
605,561	12,88
606,025	12,76
606,49	12,4
606,954	12,53
607,418	12,16
607,882	12,16
608,347	12,3
608,81	12,33
609,274	12,06
609,738	11,89
610,202	12,18
610,665	12,23
611,128	11,68
611,592	11,82
612,055	11,59
612,518	11,53
612,981	11,64
613,444	11,25
613,907	11,48
614,369	11,35
614,832	11,07
615,294	11,07
615,757	10,93
616,219	10,84
616,681	10,86
617,143	10,56
617,605	10,6
618,067	10,55
618,529	10,43
618,99	10,4
619,452	10,35
619,913	10,42
620,375	10,33
620,836	10,65
621,297	10,18
621,758	10,02
622,219	10,04
622,68	10,14
623,14	10,01
623,601	9,95
624,061	9,95
624,522	9,87
624,982	10,04
625,442	9,97
625,902	9,97
626,362	9,97
626,822	9,75
627,282	9,82
627,742	9,86
628,201	9,87
628,661	9,85
629,12	9,63
629,579	9,65
630,038	9,85
630,497	9,62
630,956	9,68
631,415	9,57
631,874	9,62
632,332	9,52
632,791	9,49
633,249	9,75
633,708	9,5
634,166	9,46
634,624	9,44
635,082	9,33
635,54	9,33
635,998	9,2
636,455	9,23
636,913	8,96
637,37	9,2
637,828	8,87
638,285	8,77
638,742	8,86
639,199	8,65
639,656	8,58
640,113	8,51
640,57	8,42
641,027	8,26
641,483	8,19
641,94	8,07
642,396	8,11
642,852	7,95
643,309	7,76
643,765	7,72
644,221	7,45
644,676	7,33
645,132	7,43
645,588	7,35
646,043	7,21
646,499	7,1
646,954	7,1
647,409	7,05
647,864	6,86
648,319	6,7
648,774	6,6
649,229	6,57
649,684	6,68
650,139	6,55
650,593	6,46
651,047	6,5
651,502	6,35
651,956	6,33
652,41	6,28
652,864	6,19
653,318	6,22
653,772	6,16
654,225	6,01
654,679	6,21
655,133	5,99
655,586	6,18
656,039	6,11
656,492	6,06
656,946	5,93
657,399	5,9
657,851	5,94
658,304	5,86
658,757	5,82
659,209	5,77
659,662	5,7
660,114	5,69
660,567	5,63
661,019	5,5
661,471	5,53
661,923	5,55
662,375	5,49
662,826	5,53
663,278	5,47
663,73	5,4
664,181	5,41
664,632	5,41
665,084	5,33
665,535	5,3
665,986	5,2
666,437	5,27
666,888	5,31
667,338	5,37
667,789	5,34
668,24	5,31
668,69	5,4
669,14	5,49
669,591	5,4
670,041	5,43
670,491	5,59
670,941	5,56
671,391	5,59
671,84	5,65
672,29	5,71
672,74	5,77
673,189	5,87
673,638	5,93
674,088	5,82
674,537	6
674,986	6,08
675,435	6,08
675,883	6,22
676,332	6,29
676,781	6,37
677,229	6,33
677,678	6,48
678,126	6,56
678,574	6,75
679,022	6,95
679,47	6,91
679,918	6,98
680,366	7,16
680,814	7,11
681,261	7,22
681,709	7,46
682,156	7,53
682,604	7,59
683,051	7,69
683,498	7,77
683,945	7,87
684,392	7,94
684,839	8,17
685,286	8,12
685,732	8,26
686,179	8,43
686,625	8,47
687,071	8,65
687,518	8,66
687,964	8,67
688,41	9,04
688,856	9,04
689,301	9,45
689,747	9,44
690,193	9,84
690,638	10,02
691,084	10,42
691,529	10,77
691,974	11,02
692,419	11,48
692,864	12,15
693,309	12,46
693,754	12,8
694,199	13,45
694,643	13,71
695,088	14,56
695,532	14,99
695,977	15,64
696,421	16,23
696,865	16,61
697,309	17,49
697,753	18,05
698,197	18,53
698,64	19,33
699,084	19,98
699,527	20,35
699,971	21,02
700,414	21,91
700,857	22,56
701,3	22,99
701,743	23,54
702,186	24,34
702,629	24,9
703,072	25,56
703,515	26,39
703,957	26,61
704,399	27,48
704,842	28,2
705,284	28,84
705,726	29,27
706,168	29,93
706,61	30,7
707,052	31,22
707,494	31,7
707,935	32,66
708,377	33,01
708,818	33,51
709,26	34,17
709,701	34,63
710,142	35,02
710,583	35,75
711,024	36,3
711,465	36,86
711,905	37,34
712,346	37,94
712,787	38,56
713,227	39,04
713,667	39,58
714,108	40,22
714,548	40,84
714,988	41,51
715,428	41,93
715,868	42,09
716,307	42,7
716,747	43,21
717,186	44,08
717,626	44,44
718,065	44,66
718,504	45,47
718,944	46
719,383	45,96
719,822	46,55
720,261	46,74
720,699	47,29
721,138	47,77
721,576	48,29
722,015	48,47
722,453	49,21
722,892	49,64
723,33	49,79
723,768	50,13
724,206	50,43
724,644	51,09
725,081	51,28
725,519	51,6
725,957	52,16
726,394	52,18
726,832	52,53
727,269	52,95
727,706	53,36
728,143	53,92
728,58	53,82
729,017	53,99
729,454	54,25
729,89	54,6
730,327	54,86
730,764	54,95
731,2	55,44
731,636	55,67
732,072	55,54
732,509	55,76
732,945	55,92
733,38	55,61
733,816	56,35
734,252	56,37
734,688	56,76
735,123	57,32
735,559	56,56
735,994	57,05
736,429	57,31
736,864	57,55
737,299	57,62
737,734	57,87
738,169	57,77
738,604	57,72
739,038	58,06
739,473	58,1
739,907	58,1
740,342	58,47
740,776	58,73
741,21	58,23
741,644	58,21
742,078	58,52
742,512	58,18
742,946	58,51
743,379	58,72
743,813	58,5
744,246	58,3
744,68	58,84
745,113	58,42
745,546	59,12
745,979	58,88
746,412	58,9
746,845	59,05
747,278	58,87
747,711	59
748,143	58,99
748,576	58,77
749,008	58,73
749,441	59,05
749,873	58,46
750,305	58,78
750,737	58,92
751,169	58,16
751,601	59,11
752,032	58,77
752,464	58,37
752,896	58,47
753,327	58,59
753,758	58,32
754,19	58,12
754,621	58,78
755,052	58,15
755,483	58,59
755,914	58,2
756,344	58,69
756,775	58,47
757,206	58,02
757,636	57,79
758,066	57,76
758,497	58,08
758,927	58,09
759,357	57,97
759,787	57,75
760,217	57,61
760,647	58,16
761,076	57,55
761,506	57,39
761,935	57,88
762,365	58,04
762,794	57,67
763,223	57,7
763,653	57,44
764,082	57,69
764,51	57,29
764,939	57,36
765,368	57,45
765,797	57,03
766,225	57,37
766,654	57,4
767,082	57,31
767,51	56,98
767,938	56,54
768,367	56,88
768,795	57,03
769,222	56,99
769,65	57,24
770,078	57,16
770,505	57,08
770,933	56,83
771,36	56,95
771,788	57,11
772,215	56,74
772,642	56,98
773,069	56,63
773,496	56,38
773,923	56,74
774,349	56,67
774,776	56,75
775,203	56,97
775,629	56,78
776,055	56,66
776,482	56,45
776,908	56,58
777,334	56,51
777,76	56,39
778,186	56,69
778,611	56,35
779,037	56,24
779,463	56,39
779,888	56,36
780,314	56,35
780,739	56,14
781,164	56,49
781,589	56,23
782,014	55,84
782,439	56,62
782,864	56,51
783,289	56,03
783,713	56,32
784,138	55,44
784,562	56,18
784,987	56,32
785,411	56,58
785,835	56,1
786,259	55,35
786,683	55,83
787,107	55,84
787,531	56,48
787,954	55,75
788,378	55,97
788,802	56,15
789,225	55,73
789,648	55,7
790,071	56,35
790,495	55,76
790,918	56,03
791,34	56,01
791,763	55,84
792,186	55,99
792,609	56,05
793,031	56,06
793,454	55,9
793,876	55,52
794,298	55,84
794,721	55,84
795,143	55,95
795,565	55,62
795,986	56,21
796,408	55,54
796,83	55,98
797,252	55,41
797,673	55,99
798,094	55,25
798,516	56,13
798,937	55,91
799,358	55,18
799,779	55,71
800,2	55,42
800,621	55,58
801,042	55,6
801,462	55,44
801,883	55,34
802,303	55,91
802,724	55,56
803,144	55,03
803,564	55,08
803,984	55,79
804,404	55,57
804,824	55,62
805,244	55,27
805,664	55,49
806,084	55,54
806,503	55,45
806,923	55,52
807,342	55,49
807,761	55,19
808,18	55,72
808,599	55,25
809,018	55,52
809,437	55,51
809,856	55,26
810,275	55,64
810,693	55,48
811,112	55,31
811,53	55,2
811,949	55,51
812,367	55,89
812,785	55,38
813,203	55,42
813,621	55,39
814,039	55,35
814,457	55,06
814,874	55,36
815,292	55,22
815,709	55,47
816,127	55,6
816,544	55,41
816,961	54,85
817,378	55,78
817,795	55,47
818,212	55,25
818,629	55,12
819,046	55,59
819,462	55,57
819,879	55,17
820,295	55,41
820,712	55
821,128	55,26
821,544	55,3
821,96	55,04
822,376	55,24
822,792	55,19
823,208	55,37
823,624	55,27
824,039	54,77
824,455	55,44
824,87	55,25
825,286	55,18
825,701	55,48
826,116	54,87
826,531	55,21
826,946	55,29
827,361	54,78
827,776	55,29
828,19	55,12
828,605	55,27
829,02	55,02
829,434	54,78
829,848	55,06
830,263	54,64
830,677	55,14
831,091	54,97
831,505	55,14
831,919	54,71
832,332	55,07
832,746	54,63
833,16	54,71
833,573	54,66
833,987	55,24
834,4	54,86
834,813	55,07
835,226	54,7
835,639	55,03
836,052	55,07
836,465	55,09
836,878	54,87
837,29	55,25
837,703	54,89
838,116	54,99
838,528	54,98
838,94	54,57
839,352	54,91
839,765	54,66
840,177	54,88
840,589	54,78
841	54,62
841,412	54,77
841,824	55,02
842,235	55,09
842,647	55,01
843,058	54,54
843,47	54,45
843,881	55,03
844,292	55,48
844,703	54,94
845,114	54,54
845,525	54,7
845,935	54,4
846,346	55,01
846,757	54,82
847,167	54,55
847,577	54,51
847,988	54,54
848,398	54,32
848,808	54,45
849,218	54,67
849,628	54,67
850,038	54,71
850,448	54,87
850,857	54,55
851,267	54,72
851,676	54,97
852,086	54,7
852,495	54,55
852,904	55,2
853,313	54,94
853,722	54,18
854,131	54,67
854,54	54,98
854,949	53,98
855,357	54,27
855,766	54,71
856,174	54,88
856,583	54,68
856,991	54,76
857,399	54,54
857,807	54,64
858,215	54,44
858,623	54,72
859,031	54,29
859,439	54,65
859,846	54,24
860,254	54,05
860,661	54,65
861,069	54,38
861,476	54,23
861,883	54,42
862,29	54,57
862,697	54,25
863,104	54,38
863,511	54,75
863,918	54,43
864,325	54,3
864,731	53,67
865,138	54,31
865,544	54,27
865,95	54,37
866,357	54,57
866,763	54,23
867,169	53,97
867,575	54,47
867,98	54,6
868,386	54,51
868,792	53,82
869,197	55,01
869,603	54,75
870,008	54,23
870,414	54,39
870,819	54,08
871,224	53,95
871,629	54,1
872,034	54,14
872,439	54,03
872,844	54,56
873,248	54,49
873,653	54,33
874,057	54,56
874,462	54,45
874,866	54,42
875,27	54,53
875,674	54,28
876,078	54,02
876,482	54,5
876,886	54,15
877,29	54
877,694	54,61
878,097	54,35
878,501	54,59
878,904	54,33
879,308	54,44
879,711	53,78
880,114	54,18
880,517	54,3
880,92	54,16
881,323	53,96
881,726	54,21
882,128	54,48
882,531	54,58
882,934	54,32
883,336	54,26
883,738	53,83
884,141	54,29
884,543	54,41
884,945	54,27
885,347	54,03
885,749	54,11
886,151	53,83
886,552	54,53
886,954	54,52
887,355	54,18
887,757	54,19
888,158	53,63
888,56	54,61
888,961	54,06
889,362	54,32
889,763	54,29
890,164	54,21
890,565	53,91
890,965	54,01
891,366	53,99
891,767	54,19
892,167	53,92
892,567	53,65
892,968	53,91
893,368	53,91
893,768	54,06
894,168	53,94
894,568	54,17
894,968	54
895,368	54,22
895,767	53,9
896,167	54,01
896,566	54,18
896,966	53,55
897,365	54,06
897,764	53,89
898,164	53,98
898,563	54,54
898,962	54,03
899,361	53,92
899,759	53,82
900,158	53,9
900,557	54,03
900,955	54,06
901,354	54,39
901,752	53,97
902,15	54,26
902,548	53,79
902,947	54,24
903,345	54,1
903,742	54,02
904,14	54,36
904,538	54,1
904,936	54,31
905,333	54,02
905,731	54,07
906,128	53,37
906,525	53,91
906,923	54,08
907,32	53,84
907,717	54,58
908,114	54,13
908,511	53,81
908,907	54,34
909,304	53,73
909,701	53,76
910,097	53,87
910,494	53,85
910,89	53,72
911,286	53,87
911,682	53,68
912,078	54,35
912,474	53,79
912,87	53,52
913,266	54,27
913,662	53,71
914,058	54,01
914,453	54,56
914,849	53,81
915,244	53,52
915,639	53,89
916,034	54,01
916,43	54,17
916,825	54,08
917,22	53,39
917,614	53,87
918,009	54,27
918,404	54,41
918,798	53,88
919,193	53,9
919,587	53,69
919,982	53,66
920,376	54,13
920,77	53,69
921,164	54,16
921,558	53,4
921,952	53,53
922,346	54,08
922,74	53,42
923,133	54,25
923,527	53,31
923,92	53,7
924,314	53,67
924,707	53,9
925,1	53,96
925,493	53,92
925,886	54,07
926,279	54,09
926,672	53,76
927,065	53,67
927,457	53,69
927,85	53,26
928,243	53,8
928,635	54,15
929,027	53,78
929,42	53,44
929,812	53,26
930,204	53,73
930,596	54,1
930,988	53,85
931,379	53,93
931,771	53,73
932,163	54,29
932,554	53,74
932,946	54,25
933,337	53,49
933,729	53,63
934,12	53,01
934,511	53,4
934,902	53,81
935,293	53,65
935,684	53,23
936,075	53,34
936,465	53,08
936,856	53,95
937,246	53,89
937,637	53,99
938,027	53,99
938,417	54,18
938,808	53,12
939,198	52,86
939,588	53,79
939,978	52,72
940,368	53,55
940,757	53,07
941,147	54,44
941,537	54,1
941,926	52,75
942,315	52,93
942,705	53,67
943,094	53,44
943,483	54,45
943,872	53,68
944,261	53,2
944,65	53,49
945,039	53,2
945,428	53,38
945,816	52,4
946,205	52,96
946,593	52,83
946,982	52,62
947,37	53,64
947,758	53,93
948,146	53,22
948,534	53,5
948,922	53,4
949,31	52,71
949,698	53,16
950,086	52,14
950,473	52,35
950,861	52,71
951,248	53,71
951,636	52,31
952,023	53,21
952,41	52,72
952,797	52,49
953,184	52,56
953,571	53,22
953,958	53,6
954,345	52,82
954,731	53,33
955,118	52,1
955,505	53,17
955,891	53,11
956,277	52,89
956,664	52,69
957,05	52,4
957,436	52,49
957,822	51,69
958,208	52,28
958,594	52,6
958,979	52,2
959,365	52,26
959,751	51,61
960,136	52,38
960,522	52,16
960,907	52,2
961,292	52,65
961,677	53,33
962,062	52,3
962,447	52,55
962,832	52,14
963,217	51,59
963,602	52
963,986	52,88
964,371	52,51
964,756	51,83
965,14	52,22
965,524	52,62
965,908	51,79
966,293	51,92
966,677	52,56
967,061	52,16
967,445	52,21
967,828	52,12
968,212	51,59
968,596	52,41
968,979	52,05
969,363	52,31
969,746	52,03
970,129	52,8
970,513	52,21
970,896	51,64
971,279	52,06
971,662	52,19
972,045	51,73
972,428	52,48
972,81	52,06
973,193	53,18
973,575	52,51
973,958	52,08
974,34	52,66
974,723	52,2
975,105	52,7
975,487	52,64
975,869	52,25
976,251	52,62
976,633	52,25
977,015	52,5
977,396	52,18
977,778	51,71
978,16	51,97
978,541	52,12
978,922	53
979,304	51,83
979,685	51,55
980,066	52,42
980,447	52,7
980,828	51,87
981,209	52,79
981,59	51,09
981,97	52,15
982,351	52,21
982,732	52,92
983,112	52,71
983,493	51,8
983,873	52,47
984,253	52,92
984,633	52,26
985,013	52,76
985,393	52,36
985,773	52,21
986,153	52,37
986,533	51,73
986,912	51,89
987,292	53,13
987,671	52,64
988,051	52,48
988,43	52,02
988,809	52,72
989,188	52,48
989,567	52,01
989,946	51,94
990,325	51,84
990,704	52,67
991,083	51,98
991,461	52,27
991,84	52,05
992,218	51,51
992,597	52,01
992,975	52,09
993,353	52,2
993,732	52,84
994,11	51,99
994,488	51,97
994,866	53,06
995,243	52,41
995,621	52,52
995,999	52,12
996,376	52,74
996,754	52,16
997,131	53,22
997,509	53,17
997,886	52,83
998,263	52,99
998,64	52,92
999,017	52,04
999,394	53
999,771	52,21
1000,148	52,53
1000,524	53,32
1000,901	52,79
1001,277	53,38
1001,654	52,57
1002,03	52,9
1002,406	52,66
1002,783	53,33
1003,159	52,88
1003,535	52,7
1003,911	52,02
1004,286	52,74
1004,662	52,47
1005,038	52,53
1005,414	53,6
1005,789	53,09
1006,164	53,19
1006,54	53,26
1006,915	53,14
1007,29	52,1
1007,665	53,29
1008,04	52,82
1008,415	51,99
1008,79	52,72
1009,165	52,32
1009,54	53,42
1009,914	53,32
1010,289	52,49
1010,663	52,58
1011,038	52,9
1011,412	53,1
1011,786	52,97
1012,16	53,06
1012,535	52,21
1012,909	52,2
1013,282	53,73
1013,656	53,24
1014,03	53,7
1014,404	53,09
1014,777	53,08
1015,151	53,54
1015,524	52,4
1015,897	51,9
1016,271	52,58
1016,644	52,88
1017,017	53,59
1017,39	53,34
1017,763	53,35
1018,136	53,06
1018,508	52,91
1018,881	52,94
1019,254	53,04
1019,626	53,61
1019,999	53,69
1020,371	53,23
1020,743	52,74
1021,116	52,56
1021,488	53,35
1021,86	53,37
1022,232	53,4
1022,604	51,94
1022,975	52,98
1023,347	53,23
1023,719	53,57
1024,09	53,04
1024,462	53,47
1024,833	54,43
1025,204	54,23
1025,576	53
1025,947	52,74
1026,318	53,19
1026,689	52,77
1027,06	54,45
1027,431	54,44
1027,801	53,15
1028,172	53,57
1028,543	52,66
1028,913	53,55
1029,284	53,42
1029,654	52,99
1030,024	52,94
1030,394	52,74
1030,764	53,78
1031,135	53,27
1031,504	53,9
1031,874	53,99
1032,244	54,02
1032,614	54,17
1032,983	53,43
1033,353	54,46
1033,722	53,55
1034,092	53,05
1034,461	54,06
1034,83	52,63
1035,2	53,88
1035,569	53,38
1035,938	54,27
1036,307	53,61
1036,675	54,24
1037,044	52,75
1037,413	53,17
1037,781	52,63
1038,15	54,79
1038,518	53,7
1038,887	53,73
1039,255	54,29
1039,623	54,29
1039,991	54,02
1040,359	52,76
1040,727	52,66
1041,095	53,37
1041,463	53,47
1041,831	54,39
1042,198	54,01
1042,566	53,22
1042,933	55,51
1043,301	52,85
1043,668	55,12
1044,035	52,93
1044,402	54,8
1044,77	54,16
1045,137	55,17
1045,503	53,84
1045,87	53,18
1046,237	53,33
1046,604	53,64
1046,97	56,17
1047,337	53,78
1047,703	54,84
1048,07	54,49
1048,436	53,37
1048,802	53,98
1049,168	54,93
1049,534	53,08
1049,9	53,71
1050,266	55,3
1050,632	53,86
1050,998	54,31
1051,364	54,42
1051,729	55,4
1052,095	53,58
1052,46	54,26
1052,825	55,02
1053,191	55,4
1053,556	54,35
1053,921	55,13
1054,286	54,93
1054,651	53,34
1055,016	54,55
1055,381	55,52
1055,745	54,37
1056,11	54,61
1056,475	53,51
1056,839	53,72
1057,203	53,4
1057,568	54,03
1057,932	54
1058,296	54,36
1058,66	54,25
1059,024	53,78
1059,388	54,61
1059,752	54,26
1060,116	54,66
1060,48	54,7
1060,843	54,21
1061,207	55,1
1061,57	54,24
1061,934	55,84
1062,297	53,6
1062,66	55,69
1063,023	55,38
1063,386	55,6
1063,749	53,79
1064,112	53,69
1064,475	55,74
1064,838	54,16
1065,201	54,58
1065,563	53,95
1065,926	54,19
1066,288	53,28
1066,651	55,8
1067,013	56,01
1067,375	53,59
1067,737	55,8
1068,099	56,21
1068,461	53,61
1068,823	55,09
1069,185	54,32
1069,547	55,29
1069,909	54
1070,27	53,73
1070,632	55,24
1070,993	55,61
1071,355	53,78
1071,716	53,11
1072,077	54,55
1072,438	54,98
1072,799	56,2
1073,16	55,45
1073,521	53,98
1073,882	55,32
1074,243	54,95
1074,603	54,79
1074,964	55,26
1075,325	55,57
1075,685	56,73
1076,045	52,86
1076,406	54,71
1076,766	55,71
1077,126	53,95
1077,486	55,63
1077,846	55,29
1078,206	54,37
1078,566	55,54
1078,925	53,94
1079,285	55,22
1079,645	54,91
1080,004	57,62
1080,364	54,59
1080,723	53,42
1081,082	55,95
1081,442	55,54
1081,801	55,03
1082,16	53,03
1082,519	57,18
1082,878	55,25
1083,237	53,8
1083,595	54,28
1083,954	54,62
1084,313	55,78
1084,671	54,96
1085,03	56,62
1085,388	56,63
1085,746	58,16
1086,104	54,31
1086,463	54,59
1086,821	55,76
1087,179	54,76
1087,537	53,54
1087,894	56,72
1088,252	54,95
1088,61	55,32
1088,967	57,06
1089,325	56,11
1089,682	55,1
1090,04	57,42
1090,397	58,14
1090,754	56,61
1091,111	53,14
1091,469	54,74
1091,826	52,95
1092,182	53,25
1092,539	54,76
1092,896	53,66
1093,253	55,27
1093,609	53,43
1093,966	56,26
1094,322	55,01
1094,679	54,73
1095,035	58,48
1095,391	55,44
1095,748	58,25
1096,104	55,08
1096,46	56,45
1096,816	57,92
1097,171	54,8
1097,527	56,32
1097,883	55,86
1098,239	57,78
1098,594	58,15
1098,95	55,83
1099,305	57,43
1099,66	60,74
1100,016	58,16
1100,371	57,85
1100,726	55,86
1101,081	55,71
1101,436	56,99
1101,791	56,56
1102,146	58,69
1102,5	55,14
1102,855	56
1103,21	61,01
1103,564	58,24
1103,918	54,46
1104,273	55,51
1104,627	57,52
1104,981	59,48
1105,335	58,04
1105,69	55,76
1106,043	57,53
1106,397	58,98
1106,751	55,3
1107,105	58,93
1107,459	59,24
1107,812	60,65
1108,166	58,26
1108,519	61,76
1108,873	55,57
1109,226	57,71
1109,579	59,05
1109,932	61,8
1110,285	56,89
1110,638	56,83
1110,991	56,14
1111,344	60,26
1111,697	52,68
1112,05	55,08
1112,402	58,46
1112,755	55,53
1113,107	56,4
1113,46	60,73
1113,812	59,24
1114,164	60,06
1114,517	60,9
1114,869	93,33
1115,221	88,52
1115,573	93,85
1115,924	95,77
