Data from G4__Relative__3__00090.txt Node

Date: Thu Feb 01 16:25:23 CET 2024
User: diatiterra
Spectrometer: HDX00911
Trigger mode: 0
Integration Time (sec): 6,000000E-3
Scans to average: 2
Nonlinearity correction enabled: false
Boxcar width: 0
Storing dark spectrum: false
XAxis mode: Wavelengths
Number of Pixels in Spectrum: 2068
>>>>>Begin Spectral Data<<<<<
194,468	215,38
195,025	123,61
195,581	140,91
196,138	126,47
196,694	123,08
197,251	119,84
197,807	89,53
198,363	85,8
198,919	73,91
199,474	78,98
200,03	81,82
200,586	87,97
201,141	72,16
201,696	78,61
202,251	80,66
202,806	88,51
203,361	78,69
203,916	82,16
204,471	79,35
205,025	81,08
205,58	76,88
206,134	82,98
206,688	85,34
207,242	84,88
207,796	67,68
208,35	83,14
208,904	74,01
209,457	96,47
210,011	87,73
210,564	87,1
211,117	96,08
211,67	91,01
212,223	80,41
212,776	86,1
213,329	87,17
213,881	74,09
214,434	89,5
214,986	90,96
215,538	88,59
216,09	85,94
216,642	90,36
217,194	88,82
217,746	86,29
218,297	89,44
218,849	90,7
219,4	82,78
219,951	90,29
220,502	84,02
221,053	80,36
221,604	91,12
222,155	82,35
222,705	89,47
223,256	100
223,806	78,29
224,356	75,26
224,906	91,52
225,456	83,42
226,006	78,69
226,556	81,08
227,106	81,71
227,655	74,87
228,204	78,53
228,754	88,51
229,303	81,76
229,852	86,67
230,401	87,04
230,949	89,27
231,498	84,57
232,047	81,67
232,595	79,31
233,143	80
233,691	82,42
234,239	75,96
234,787	81,4
235,335	90,12
235,883	74,21
236,43	89,68
236,978	85,64
237,525	66,83
238,072	86,11
238,619	89,02
239,166	71,57
239,713	79,89
240,26	94,74
240,806	85,89
241,353	77,91
241,899	78,57
242,445	73,96
242,991	80
243,537	84,31
244,083	81,87
244,629	78
245,174	78,74
245,72	73,18
246,265	74,35
246,81	78,98
247,355	92,31
247,9	81,76
248,445	94,27
248,99	76,67
249,534	76,97
250,079	84,94
250,623	73,37
251,168	81,03
251,712	85,29
252,256	83,85
252,8	84,18
253,343	83,52
253,887	72,13
254,43	77,84
254,974	72,63
255,517	81,36
256,06	81,25
256,603	91,57
257,146	76,24
257,689	71,43
258,232	69,31
258,774	83,33
259,317	70,88
259,859	78,53
260,401	78,65
260,943	92,99
261,485	80
262,027	78,31
262,569	85,43
263,11	72,88
263,652	81,32
264,193	80,68
264,734	81,87
265,275	65,62
265,816	83,24
266,357	75,66
266,898	62,63
267,438	83,54
267,979	64,77
268,519	79,76
269,059	79,52
269,6	87,43
270,14	75,51
270,68	86,3
271,219	77,59
271,759	96,15
272,298	75,68
272,838	77,78
273,377	92,74
273,916	97,99
274,455	86,15
274,994	73,33
275,533	94,01
276,072	82,63
276,61	79,88
277,149	87,65
277,687	85,54
278,225	87,06
278,763	92,49
279,301	72,87
279,839	79,79
280,377	86,96
280,914	78,87
281,452	86,59
281,989	86,47
282,526	100,63
283,064	74,38
283,601	88,76
284,137	90,8
284,674	88,2
285,211	82,8
285,747	84,92
286,284	82,35
286,82	79,17
287,356	75,77
287,892	83,43
288,428	78,16
288,964	72,58
289,5	80,35
290,035	87,5
290,571	79,89
291,106	81,46
291,641	82,56
292,176	72,04
292,711	89,53
293,246	76,63
293,781	77,9
294,315	75,51
294,85	85,81
295,384	90,75
295,918	75,53
296,453	70,81
296,987	74,86
297,52	79,89
298,054	82,18
298,588	98,17
299,121	89,39
299,655	75,29
300,188	96,67
300,721	85,71
301,254	81,48
301,787	87,63
302,32	72,54
302,853	83,24
303,385	80,98
303,918	93,71
304,45	81,12
304,982	80,79
305,514	81,38
306,046	84,78
306,578	81,82
307,11	79,56
307,641	103,85
308,173	89,89
308,704	84,09
309,236	81,22
309,767	84,74
310,298	91,82
310,829	88
311,359	78,74
311,89	89,47
312,421	77,3
312,951	92,57
313,481	76,47
314,012	79,69
314,542	82,45
315,072	87,29
315,601	93,51
316,131	80,85
316,661	101,7
317,19	82,08
317,72	76,51
318,249	85
318,778	94,56
319,307	78,12
319,836	89,83
320,365	80,42
320,893	82,9
321,422	92,86
321,95	86,98
322,479	87,27
323,007	80,9
323,535	92,49
324,063	89,83
324,591	79,37
325,118	80,11
325,646	81,38
326,173	84,15
326,701	81,54
327,228	80,1
327,755	77,66
328,282	84,92
328,809	88,82
329,336	71,14
329,862	96,57
330,389	67,53
330,915	77,72
331,441	90,64
331,968	88,2
332,494	83,67
333,02	87,71
333,545	77,25
334,071	77,44
334,597	90,45
335,122	76,6
335,648	82,69
336,173	75,14
336,698	72,87
337,223	79,68
337,748	71,64
338,272	71,28
338,797	74,86
339,322	79,46
339,846	84,95
340,37	74,86
340,894	69,65
341,419	90,8
341,942	78,31
342,466	81,87
342,99	68,59
343,514	67,65
344,037	70,74
344,56	74,64
345,084	67,16
345,607	68,93
346,13	77,93
346,653	70,09
347,175	66,99
347,698	73,37
348,221	68,54
348,743	71,01
349,265	67,98
349,787	62,44
350,309	59,11
350,831	68,62
351,353	61,14
351,875	66,4
352,397	61,21
352,918	70,42
353,439	59,07
353,961	55,91
354,482	60,43
355,003	56,79
355,524	57,2
356,044	61,41
356,565	56,91
357,086	51,31
357,606	45,96
358,126	57,47
358,646	60,22
359,167	59,13
359,687	62,83
360,206	54,81
360,726	56,42
361,246	55,47
361,765	55,8
362,285	59,11
362,804	62,23
363,323	58,16
363,842	55,63
364,361	47,81
364,88	47,9
365,398	52,98
365,917	48,77
366,435	47
366,954	51,47
367,472	50,63
367,99	48,7
368,508	54,67
369,026	61,54
369,544	46,23
370,061	51,93
370,579	49,69
371,096	44,9
371,613	52,42
372,131	46,09
372,648	48,43
373,165	45,21
373,681	43,07
374,198	48,71
374,715	46,44
375,231	46,33
375,747	46,83
376,264	40,47
376,78	41,37
377,296	39,66
377,812	39,49
378,327	40,85
378,843	41,43
379,359	45,52
379,874	40,2
380,389	38,83
380,905	35,7
381,42	42,67
381,935	39,66
382,449	36,16
382,964	34,72
383,479	36,42
383,993	37,47
384,508	36,65
385,022	35,01
385,536	34,34
386,05	38,23
386,564	34,64
387,078	35,66
387,592	30,99
388,105	30,58
388,619	29,76
389,132	31,25
389,645	29,28
390,158	31,73
390,671	30,03
391,184	28,61
391,697	29,07
392,21	28,85
392,722	29,75
393,235	29,72
393,747	26,41
394,259	32,82
394,771	29,2
395,283	29,55
395,795	27,71
396,307	25,88
396,818	25,96
397,33	27,03
397,841	23,97
398,353	26,55
398,864	24,51
399,375	24,28
399,886	23,29
400,397	22,38
400,907	23,25
401,418	21,58
401,928	23,08
402,439	20,44
402,949	22,43
403,459	23,45
403,969	19,22
404,479	19,7
404,989	19,29
405,498	19,17
406,008	17,55
406,517	17,95
407,027	16,36
407,536	15,6
408,045	15,93
408,554	17,23
409,063	14,16
409,572	13,39
410,08	14,61
410,589	13,88
411,097	12,64
411,606	13,25
412,114	11,58
412,622	11,98
413,13	11,43
413,638	10
414,145	10,37
414,653	10,27
415,16	10,95
415,668	10,32
416,175	10
416,682	9,69
417,189	10,19
417,696	9,07
418,203	9,74
418,71	9,26
419,216	8,75
419,723	8,91
420,229	8,25
420,735	8,67
421,242	7,83
421,748	8,7
422,254	7,71
422,759	7,72
423,265	7,93
423,771	7,84
424,276	7,61
424,781	7,76
425,287	7,16
425,792	7,17
426,297	7,84
426,802	7,8
427,306	7,11
427,811	7,49
428,316	7,93
428,82	7,03
429,324	7,01
429,829	7,1
430,333	6,89
430,837	6,93
431,34	7,3
431,844	6,78
432,348	6,8
432,851	7
433,355	6,33
433,858	6,4
434,361	6,44
434,864	6,34
435,367	6,69
435,87	6,69
436,373	6,75
436,876	6,91
437,378	6,42
437,88	6,48
438,383	6,3
438,885	6,31
439,387	6,51
439,889	6,13
440,391	6,24
440,892	6,15
441,394	6,51
441,896	6,42
442,397	6,55
442,898	6,07
443,399	6,3
443,9	6,09
444,401	6,12
444,902	6,46
445,403	5,84
445,903	6,26
446,404	6,83
446,904	6,38
447,405	6,29
447,905	5,98
448,405	6,28
448,905	6,25
449,404	6,22
449,904	6,2
450,404	6,09
450,903	6,19
451,403	6,03
451,902	6,2
452,401	6,47
452,9	6,47
453,399	6,29
453,898	6,28
454,396	6,64
454,895	6,27
455,393	6,76
455,892	6,45
456,39	6,54
456,888	6,04
457,386	6,79
457,884	6,32
458,382	6,25
458,879	6,26
459,377	6,17
459,874	6,4
460,372	6,02
460,869	6,08
461,366	6,32
461,863	6,3
462,36	6,45
462,857	6,37
463,353	6,2
463,85	6,05
464,346	5,93
464,843	6,6
465,339	5,93
465,835	5,97
466,331	6,3
466,827	6,1
467,323	6,11
467,818	6,36
468,314	6,12
468,809	6,18
469,305	6,22
469,8	6,05
470,295	6,51
470,79	6,26
471,285	6,47
471,78	5,92
472,274	6,69
472,769	6,1
473,263	6,26
473,758	5,84
474,252	6,38
474,746	5,88
475,24	5,94
475,734	6,05
476,228	6,52
476,721	6,04
477,215	6,18
477,708	6,1
478,202	6,47
478,695	6,41
479,188	6,48
479,681	6,48
480,174	6,17
480,667	6,3
481,159	6,56
481,652	6,24
482,144	6,45
482,637	6,33
483,129	6,26
483,621	6,19
484,113	6,54
484,605	6,05
485,097	6,63
485,588	6,3
486,08	6,39
486,571	6,44
487,063	6,08
487,554	6,5
488,045	6,43
488,536	6,48
489,027	6,36
489,518	6,38
490,008	6,32
490,499	6,44
490,989	6,81
491,48	6,67
491,97	6,41
492,46	7
492,95	6,89
493,44	7,37
493,93	6,64
494,419	6,77
494,909	7,02
495,398	7,18
495,888	7,29
496,377	7,13
496,866	7,48
497,355	7,3
497,844	7,5
498,333	7,56
498,821	7,45
499,31	7,5
499,798	8,06
500,287	7,73
500,775	8,14
501,263	8,03
501,751	8,24
502,239	8,29
502,727	8,12
503,215	8,69
503,702	9,15
504,19	9,17
504,677	9,07
505,164	9,27
505,651	9,21
506,139	9,04
506,625	9,66
507,112	9,75
507,599	10,25
508,086	10,12
508,572	9,96
509,058	10,29
509,545	10,91
510,031	10,88
510,517	11,22
511,003	11,52
511,489	11,54
511,974	11,82
512,46	12,39
512,946	12,55
513,431	12,61
513,916	12,91
514,401	12,87
514,887	13,24
515,371	13,89
515,856	13,77
516,341	14,11
516,826	14,58
517,31	14,87
517,795	15,4
518,279	15,54
518,763	15,7
519,247	16,37
519,731	16,17
520,215	17,19
520,699	17,04
521,182	17,89
521,666	17,79
522,149	17,83
522,633	18,41
523,116	18,34
523,599	19,06
524,082	19,42
524,565	19,72
525,048	19,79
525,53	20,3
526,013	20,47
526,495	21,19
526,978	20,87
527,46	21,22
527,942	22
528,424	22,17
528,906	21,86
529,388	22,29
529,87	22,78
530,351	23,25
530,833	22,79
531,314	22,79
531,795	23,54
532,277	23,57
532,758	23,37
533,238	23,68
533,719	23,62
534,2	23,74
534,681	23,91
535,161	24,28
535,642	24,43
536,122	24,62
536,602	24,82
537,082	24,72
537,562	24,53
538,042	24,44
538,522	24,79
539,001	24,73
539,481	24,64
539,96	24,85
540,44	25,18
540,919	25,01
541,398	25,37
541,877	25,27
542,356	25,15
542,835	25,17
543,313	25,53
543,792	25,32
544,27	25,59
544,749	25,03
545,227	25,82
545,705	25,42
546,183	25,83
546,661	25,16
547,139	25,51
547,616	25,27
548,094	25,64
548,571	25,97
549,049	25,98
549,526	25,88
550,003	25,39
550,48	26,1
550,957	25,86
551,434	25,73
551,911	26,26
552,387	25,81
552,864	26,26
553,34	26,07
553,817	26,22
554,293	26,14
554,769	26,14
555,245	26,42
555,721	26,22
556,197	26,08
556,672	26,27
557,148	25,86
557,623	25,5
558,099	25,93
558,574	25,91
559,049	26,01
559,524	25,49
559,999	25,56
560,474	25,64
560,948	25,34
561,423	25,09
561,897	25,13
562,372	25,55
562,846	25,42
563,32	24,81
563,794	24,95
564,268	24,64
564,742	24,5
565,216	24,71
565,69	24,64
566,163	24,05
566,636	24,34
567,11	23,73
567,583	24,16
568,056	23,85
568,529	22,87
569,002	23,19
569,475	23,34
569,947	22,82
570,42	22,64
570,892	22,51
571,365	22,21
571,837	22,07
572,309	21,55
572,781	21,94
573,253	21,65
573,725	21,4
574,197	21,25
574,668	20,95
575,14	20,85
575,611	20,81
576,082	20,66
576,554	20,32
577,025	20,11
577,496	20,14
577,967	19,56
578,437	20,12
578,908	19,8
579,379	19,62
579,849	19,34
580,319	19,39
580,79	19,01
581,26	18,78
581,73	18,76
582,2	18,59
582,669	18,89
583,139	18,49
583,609	18,14
584,078	17,97
584,548	18,07
585,017	17,8
585,486	17,75
585,955	17,66
586,424	17,82
586,893	17,91
587,362	17,29
587,83	17,45
588,299	17,14
588,767	17,36
589,236	17,29
589,704	17,03
590,172	17,05
590,64	17,03
591,108	16,67
591,576	16,67
592,043	16,59
592,511	16,66
592,978	16,43
593,446	16,61
593,913	16,61
594,38	16,49
594,847	16,46
595,314	16,37
595,781	16,39
596,248	16,04
596,715	16,13
597,181	16,07
597,647	16,14
598,114	16,16
598,58	15,92
599,046	15,92
599,512	15,81
599,978	15,86
600,444	15,65
600,91	15,8
601,375	15,68
601,841	15,75
602,306	15,86
602,771	15,44
603,236	15,34
603,702	15,42
604,167	15,51
604,631	15,35
605,096	15,25
605,561	15,46
606,025	15,25
606,49	15,25
606,954	14,85
607,418	14,91
607,882	14,78
608,347	15,14
608,81	14,98
609,274	14,56
609,738	14,64
610,202	14,46
610,665	14,28
611,128	14,52
611,592	14,17
612,055	14,03
612,518	14,04
612,981	13,94
613,444	13,66
613,907	14,11
614,369	13,79
614,832	13,65
615,294	13,68
615,757	13,43
616,219	13,23
616,681	13,35
617,143	13,07
617,605	13,39
618,067	13,15
618,529	13,02
618,99	13,15
619,452	12,87
619,913	12,81
620,375	12,76
620,836	12,77
621,297	12,47
621,758	12,35
622,219	12,5
622,68	12,64
623,14	12,37
623,601	12,52
624,061	12,28
624,522	12,16
624,982	12,28
625,442	12,04
625,902	12,33
626,362	12,29
626,822	12,15
627,282	12,08
627,742	11,99
628,201	12,03
628,661	12,08
629,12	12,16
629,579	11,9
630,038	12,04
630,497	12,01
630,956	12,02
631,415	11,7
631,874	12,22
632,332	11,97
632,791	11,78
633,249	11,91
633,708	11,89
634,166	11,67
634,624	11,62
635,082	11,49
635,54	11,53
635,998	11,35
636,455	11,16
636,913	11,25
637,37	11,25
637,828	10,95
638,285	10,98
638,742	10,86
639,199	10,63
639,656	10,47
640,113	10,57
640,57	10,18
641,027	10,16
641,483	9,89
641,94	9,93
642,396	9,74
642,852	9,76
643,309	9,47
643,765	9,48
644,221	9,32
644,676	9,22
645,132	9,06
645,588	8,99
646,043	8,98
646,499	8,77
646,954	8,68
647,409	8,63
647,864	8,28
648,319	8,52
648,774	8,19
649,229	8,09
649,684	8,21
650,139	8,17
650,593	8,11
651,047	7,91
651,502	7,96
651,956	7,94
652,41	7,76
652,864	7,74
653,318	7,71
653,772	7,66
654,225	7,75
654,679	7,66
655,133	7,57
655,586	7,63
656,039	7,5
656,492	7,59
656,946	7,45
657,399	7,46
657,851	7,33
658,304	7,28
658,757	7,2
659,209	7,3
659,662	7,19
660,114	7,03
660,567	6,77
661,019	6,85
661,471	6,85
661,923	6,85
662,375	6,84
662,826	6,61
663,278	6,57
663,73	6,54
664,181	6,65
664,632	6,47
665,084	6,53
665,535	6,52
665,986	6,47
666,437	6,41
666,888	6,41
667,338	6,35
667,789	6,42
668,24	6,4
668,69	6,5
669,14	6,42
669,591	6,33
670,041	6,62
670,491	6,42
670,941	6,52
671,391	6,51
671,84	6,56
672,29	6,65
672,74	6,76
673,189	6,83
673,638	6,89
674,088	6,84
674,537	7,02
674,986	6,99
675,435	7,2
675,883	7,23
676,332	7,21
676,781	7,32
677,229	7,39
677,678	7,59
678,126	7,55
678,574	7,83
679,022	7,78
679,47	8,14
679,918	8,21
680,366	8,31
680,814	8,52
681,261	8,53
681,709	8,75
682,156	8,87
682,604	8,95
683,051	9
683,498	9,14
683,945	9,32
684,392	9,42
684,839	9,68
685,286	9,6
685,732	9,72
686,179	9,87
686,625	10,05
687,071	10,39
687,518	10,38
687,964	10,67
688,41	10,82
688,856	11,1
689,301	11,52
689,747	11,7
690,193	12,04
690,638	12,37
691,084	12,67
691,529	13,18
691,974	13,69
692,419	13,91
692,864	14,6
693,309	14,86
693,754	15,48
694,199	16,07
694,643	16,4
695,088	17,08
695,532	17,63
695,977	18,08
696,421	18,78
696,865	19,2
697,309	20,1
697,753	20,37
698,197	21,08
698,64	21,75
699,084	22,2
699,527	22,7
699,971	23,24
700,414	23,89
700,857	24,62
701,3	25
701,743	25,38
702,186	25,94
702,629	26,48
703,072	27,11
703,515	27,88
703,957	27,97
704,399	28,6
704,842	29,2
705,284	29,57
705,726	30,09
706,168	30,32
706,61	31,09
707,052	31,24
707,494	32,24
707,935	32,73
708,377	33,08
708,818	33,43
709,26	34,14
709,701	33,89
710,142	34,83
710,583	34,98
711,024	35,42
711,465	35,9
711,905	36,11
712,346	36,59
712,787	37,34
713,227	37,61
713,667	37,88
714,108	38,2
714,548	38,94
714,988	38,95
715,428	39,41
715,868	39,59
716,307	39,85
716,747	40,45
717,186	40,88
717,626	41,43
718,065	41,4
718,504	42,13
718,944	42,44
719,383	42,34
719,822	42,46
720,261	42,81
720,699	43,05
721,138	43,8
721,576	43,64
722,015	44,13
722,453	44,6
722,892	44,83
723,33	44,7
723,768	45,07
724,206	45,01
724,644	45,77
725,081	45,91
725,519	46,16
725,957	46,32
726,394	46,83
726,832	46,8
727,269	47,25
727,706	47,01
728,143	47,51
728,58	47,33
729,017	47,69
729,454	47,7
729,89	47,95
730,327	48,57
730,764	48,47
731,2	48,13
731,636	48,5
732,072	48,44
732,509	49,04
732,945	48,93
733,38	49,01
733,816	48,89
734,252	49,25
734,688	49,39
735,123	49,38
735,559	49,86
735,994	49,67
736,429	49,27
736,864	50,03
737,299	49,55
737,734	50,12
738,169	50,12
738,604	49,76
739,038	50,1
739,473	50,29
739,907	50,08
740,342	49,95
740,776	50,29
741,21	50,18
741,644	50,07
742,078	50,04
742,512	50,16
742,946	50,32
743,379	50,34
743,813	50,22
744,246	49,94
744,68	50,28
745,113	49,92
745,546	50,47
745,979	50,43
746,412	50,36
746,845	50,37
747,278	50,53
747,711	50,07
748,143	50,25
748,576	49,98
749,008	50,01
749,441	50,25
749,873	49,67
750,305	50,1
750,737	50,1
751,169	49,54
751,601	50,01
752,032	50,03
752,464	49,78
752,896	49,51
753,327	49,95
753,758	49,5
754,19	49,97
754,621	49,91
755,052	49,38
755,483	49,63
755,914	49,46
756,344	49,75
756,775	49,62
757,206	49,22
757,636	49,42
758,066	49,23
758,497	49,16
758,927	49,19
759,357	49,18
759,787	49,03
760,217	49,19
760,647	49,16
761,076	48,85
761,506	49,06
761,935	49,24
762,365	49,08
762,794	48,74
763,223	48,89
763,653	48,66
764,082	48,83
764,51	48,8
764,939	48,86
765,368	48,99
765,797	48,94
766,225	48,55
766,654	48,48
767,082	48,55
767,51	48,93
767,938	48,26
768,367	48,59
768,795	48,63
769,222	48,24
769,65	48,47
770,078	48,36
770,505	48,37
770,933	48,3
771,36	48,48
771,788	48,41
772,215	48,57
772,642	48,36
773,069	48,22
773,496	47,69
773,923	48,43
774,349	47,99
774,776	48,33
775,203	47,92
775,629	48,44
776,055	47,9
776,482	48,07
776,908	47,84
777,334	48,08
777,76	47,8
778,186	48,03
778,611	47,92
779,037	47,7
779,463	47,75
779,888	47,49
780,314	47,85
780,739	47,62
781,164	47,83
781,589	47,86
782,014	47,32
782,439	47,8
782,864	47,81
783,289	47,41
783,713	47,68
784,138	47,6
784,562	47,84
784,987	47,63
785,411	47,64
785,835	47,49
786,259	47,44
786,683	47,13
787,107	47,42
787,531	47,5
787,954	47,4
788,378	47,35
788,802	47,74
789,225	47,47
789,648	47,44
790,071	47,71
790,495	47,28
790,918	47,57
791,34	47,71
791,763	47,71
792,186	47,56
792,609	46,93
793,031	47,68
793,454	47,22
793,876	47,61
794,298	47,54
794,721	47,4
795,143	46,95
795,565	47,34
795,986	47,27
796,408	47,04
796,83	47,14
797,252	47,57
797,673	47,43
798,094	47,13
798,516	47,3
798,937	47,4
799,358	47,54
799,779	47,01
800,2	47,11
800,621	47,31
801,042	47,44
801,462	46,52
801,883	47,3
802,303	47
802,724	47,17
803,144	46,98
803,564	46,97
803,984	46,98
804,404	47,02
804,824	47,25
805,244	46,73
805,664	46,85
806,084	47,07
806,503	47,32
806,923	47,2
807,342	47,32
807,761	46,94
808,18	47,43
808,599	46,7
809,018	47,14
809,437	47,05
809,856	47,25
810,275	46,9
810,693	47,03
811,112	47,07
811,53	47,2
811,949	47,31
812,367	47,43
812,785	47,12
813,203	47,01
813,621	46,96
814,039	46,63
814,457	46,55
814,874	46,95
815,292	46,89
815,709	47,12
816,127	47,1
816,544	46,92
816,961	46,4
817,378	47,12
817,795	47,02
818,212	46,72
818,629	46,77
819,046	47,06
819,462	46,96
819,879	46,74
820,295	47,1
820,712	46,84
821,128	46,45
821,544	46,68
821,96	46,72
822,376	47,05
822,792	46,91
823,208	46,97
823,624	46,43
824,039	46,62
824,455	47,04
824,87	46,75
825,286	46,72
825,701	46,83
826,116	46,6
826,531	46,74
826,946	47,03
827,361	46,6
827,776	46,86
828,19	46,55
828,605	46,53
829,02	47,12
829,434	46,72
829,848	46,99
830,263	46,9
830,677	46,93
831,091	46,72
831,505	47,15
831,919	46,62
832,332	46,6
832,746	46,46
833,16	46,47
833,573	46,08
833,987	46,48
834,4	46,54
834,813	46,71
835,226	46,25
835,639	46,69
836,052	46,7
836,465	46,5
836,878	46,77
837,29	46,64
837,703	46,72
838,116	46,4
838,528	46,62
838,94	46,37
839,352	46,85
839,765	46,35
840,177	46,65
840,589	46,11
841	45,93
841,412	46,3
841,824	46,56
842,235	45,95
842,647	46,34
843,058	46,51
843,47	46,81
843,881	46,77
844,292	46,95
844,703	46,47
845,114	46,52
845,525	46,35
845,935	46,35
846,346	46,53
846,757	46,36
847,167	45,91
847,577	46,48
847,988	46,36
848,398	45,94
848,808	46,44
849,218	46,05
849,628	46,22
850,038	46,31
850,448	45,9
850,857	46,73
851,267	46,08
851,676	46,34
852,086	46,37
852,495	46,5
852,904	46,95
853,313	46,26
853,722	46,2
854,131	46,32
854,54	46,29
854,949	45,92
855,357	46,33
855,766	46,34
856,174	46,01
856,583	46,19
856,991	46,06
857,399	46,23
857,807	46,44
858,215	46,27
858,623	46,15
859,031	46,22
859,439	46,42
859,846	45,92
860,254	46,3
860,661	46,22
861,069	46,34
861,476	45,68
861,883	46,27
862,29	46,05
862,697	46,1
863,104	46,02
863,511	46,22
863,918	45,9
864,325	45,88
864,731	45,68
865,138	45,96
865,544	46,22
865,95	46,03
866,357	45,96
866,763	45,59
867,169	46,23
867,575	46,42
867,98	46,15
868,386	46,38
868,792	45,86
869,197	46,52
869,603	46,06
870,008	45,94
870,414	46,19
870,819	46
871,224	45,96
871,629	46,01
872,034	46,12
872,439	46,02
872,844	46,06
873,248	46
873,653	46,36
874,057	46,18
874,462	46,12
874,866	46,41
875,27	46,27
875,674	45,83
876,078	46
876,482	46,19
876,886	45,56
877,29	46,18
877,694	45,8
878,097	46,3
878,501	46,28
878,904	46,12
879,308	45,93
879,711	45,86
880,114	45,84
880,517	46,02
880,92	46,24
881,323	46,21
881,726	45,86
882,128	46,17
882,531	46,06
882,934	45,6
883,336	45,71
883,738	45,81
884,141	45,59
884,543	46,14
884,945	46,07
885,347	46,06
885,749	46,03
886,151	45,9
886,552	46,01
886,954	46,05
887,355	46,11
887,757	45,79
888,158	45,66
888,56	46,02
888,961	45,81
889,362	45,89
889,763	46,1
890,164	45,88
890,565	45,56
890,965	46,04
891,366	45,87
891,767	46,22
892,167	45,66
892,567	45,95
892,968	45,5
893,368	46,04
893,768	45,99
894,168	45,7
894,568	46,16
894,968	45,83
895,368	46,2
895,767	45,99
896,167	46,05
896,566	46,24
896,966	45,79
897,365	45,37
897,764	46,29
898,164	45,77
898,563	45,88
898,962	45,86
899,361	45,75
899,759	45,78
900,158	45,61
900,557	45,92
900,955	45,79
901,354	46,27
901,752	45,72
902,15	45,67
902,548	45,91
902,947	45,9
903,345	45,83
903,742	46
904,14	45,99
904,538	46,2
904,936	45,89
905,333	45,77
905,731	45,95
906,128	45,95
906,525	46,23
906,923	45,87
907,32	45,77
907,717	46,22
908,114	45,81
908,511	45,33
908,907	46,21
909,304	45,7
909,701	45,75
910,097	45,76
910,494	45,79
910,89	45,44
911,286	45,75
911,682	46
912,078	46,13
912,474	46,09
912,87	45,69
913,266	46,43
913,662	45,9
914,058	45,82
914,453	45,63
914,849	45,88
915,244	45,75
915,639	45,52
916,034	46,21
916,43	46,01
916,825	46,13
917,22	45,86
917,614	45,77
918,009	46,08
918,404	45,65
918,798	45,74
919,193	45,23
919,587	45,62
919,982	46,25
920,376	45,81
920,77	45,53
921,164	45,66
921,558	45,73
921,952	45,39
922,346	46,12
922,74	45,51
923,133	45,75
923,527	45,81
923,92	45,87
924,314	45,6
924,707	46,01
925,1	45,99
925,493	45,27
925,886	45,92
926,279	45,84
926,672	45,92
927,065	45,91
927,457	45,63
927,85	45,89
928,243	45,54
928,635	45,53
929,027	45,78
929,42	45,47
929,812	45,48
930,204	45,89
930,596	45,34
930,988	45,87
931,379	46,03
931,771	45,72
932,163	45,71
932,554	45,84
932,946	45,82
933,337	45,71
933,729	45,38
934,12	45,76
934,511	45,22
934,902	45,56
935,293	45,72
935,684	45,24
936,075	45,65
936,465	45,54
936,856	45,49
937,246	45,37
937,637	45,31
938,027	46,15
938,417	45,73
938,808	45,57
939,198	45,64
939,588	45,59
939,978	45,5
940,368	45,79
940,757	45,69
941,147	46,6
941,537	45,69
941,926	45,1
942,315	45,93
942,705	45,9
943,094	44,99
943,483	46
943,872	45,64
944,261	45,31
944,65	45,73
945,039	45,01
945,428	45,31
945,816	44,86
946,205	45,43
946,593	45,77
946,982	45,09
947,37	45,41
947,758	45,32
948,146	45,68
948,534	45,88
948,922	45,78
949,31	44,93
949,698	45,56
950,086	44,84
950,473	45,36
950,861	46,5
951,248	45,81
951,636	45,53
952,023	45,98
952,41	45,63
952,797	44,38
953,184	44,37
953,571	45,72
953,958	44,93
954,345	44,8
954,731	45,11
955,118	44,64
955,505	45,17
955,891	44,79
956,277	44,63
956,664	45,37
957,05	45,54
957,436	44,66
957,822	44,32
958,208	44,13
958,594	44,95
958,979	44,65
959,365	43,62
959,751	44,77
960,136	44,94
960,522	44,8
960,907	44,74
961,292	45,01
961,677	45
962,062	44,78
962,447	44,61
962,832	44,58
963,217	44,23
963,602	44,18
963,986	45,08
964,371	44,66
964,756	44,25
965,14	44,14
965,524	44,47
965,908	45,19
966,293	44,12
966,677	44,33
967,061	45,42
967,445	44,35
967,828	44,68
968,212	44,63
968,596	44,88
968,979	44,68
969,363	45,06
969,746	44,04
970,129	44,78
970,513	45,25
970,896	44,36
971,279	44,21
971,662	44,88
972,045	44,67
972,428	44,48
972,81	45,07
973,193	44,84
973,575	44,67
973,958	44,33
974,34	44,65
974,723	44,62
975,105	45,03
975,487	44,82
975,869	44,6
976,251	44,36
976,633	44,46
977,015	44,06
977,396	44,96
977,778	44,79
978,16	44,18
978,541	43,86
978,922	44,89
979,304	44,4
979,685	44,37
980,066	44,89
980,447	44,41
980,828	44,85
981,209	45,28
981,59	44,49
981,97	44,39
982,351	44,71
982,732	44,64
983,112	45,09
983,493	44,56
983,873	44,59
984,253	44,74
984,633	45
985,013	45,17
985,393	44,96
985,773	44,75
986,153	45,12
986,533	44,58
986,912	45,06
987,292	45,63
987,671	44,74
988,051	45,43
988,43	44,93
988,809	44,87
989,188	45,17
989,567	44,13
989,946	44,95
990,325	44,51
990,704	45,29
991,083	44,66
991,461	44,74
991,84	44,96
992,218	44,7
992,597	44,84
992,975	45,14
993,353	45,27
993,732	45,26
994,11	44,45
994,488	44,69
994,866	45,05
995,243	45,22
995,621	45,58
995,999	44,77
996,376	44,37
996,754	44,72
997,131	44,53
997,509	45,35
997,886	45,57
998,263	45,32
998,64	45,48
999,017	44,34
999,394	45,18
999,771	44,5
1000,148	44,43
1000,524	45,61
1000,901	45,59
1001,277	45,29
1001,654	44,88
1002,03	45,51
1002,406	45,24
1002,783	45,05
1003,159	45,95
1003,535	44,78
1003,911	45,09
1004,286	45,63
1004,662	44,44
1005,038	45,08
1005,414	45,16
1005,789	45,09
1006,164	45,02
1006,54	45,86
1006,915	45,57
1007,29	44,94
1007,665	45,36
1008,04	45,41
1008,415	44,58
1008,79	45,5
1009,165	45,19
1009,54	45,86
1009,914	45,39
1010,289	44,91
1010,663	44,89
1011,038	45,53
1011,412	44,58
1011,786	45,42
1012,16	45,59
1012,535	45,44
1012,909	44,94
1013,282	45,35
1013,656	45,86
1014,03	46,13
1014,404	45,92
1014,777	45,29
1015,151	45,07
1015,524	46
1015,897	46,01
1016,271	45,44
1016,644	45,38
1017,017	45,48
1017,39	45,7
1017,763	45,5
1018,136	45,8
1018,508	45,94
1018,881	46,08
1019,254	45,95
1019,626	45,44
1019,999	46,03
1020,371	45,43
1020,743	45,21
1021,116	44,78
1021,488	45,03
1021,86	45,7
1022,232	45,66
1022,604	45,44
1022,975	45,62
1023,347	45,69
1023,719	46,11
1024,09	45,76
1024,462	45,92
1024,833	45,76
1025,204	46,71
1025,576	45,45
1025,947	46,19
1026,318	45,77
1026,689	45,29
1027,06	47,04
1027,431	45,95
1027,801	46,19
1028,172	46,57
1028,543	45,82
1028,913	45,85
1029,284	46,34
1029,654	45,8
1030,024	46,05
1030,394	45,95
1030,764	46,68
1031,135	46,06
1031,504	46,04
1031,874	46,67
1032,244	46,45
1032,614	46,95
1032,983	45,58
1033,353	46,22
1033,722	46,41
1034,092	46,01
1034,461	46,43
1034,83	45,85
1035,2	47,25
1035,569	46,21
1035,938	46,9
1036,307	46,6
1036,675	46,8
1037,044	46,57
1037,413	46,94
1037,781	46,56
1038,15	46,58
1038,518	46,53
1038,887	47,16
1039,255	46,48
1039,623	47,12
1039,991	46,73
1040,359	46,17
1040,727	46,81
1041,095	44,82
1041,463	45,85
1041,831	46,59
1042,198	45,9
1042,566	46,05
1042,933	46,94
1043,301	46,6
1043,668	46,99
1044,035	45,48
1044,402	47,86
1044,77	45,86
1045,137	47,78
1045,503	47,18
1045,87	46,28
1046,237	45,94
1046,604	47,14
1046,97	48,53
1047,337	47,04
1047,703	47,36
1048,07	48,04
1048,436	47,08
1048,802	46,41
1049,168	48,27
1049,534	46,4
1049,9	47,58
1050,266	47,71
1050,632	47,42
1050,998	47,96
1051,364	47,53
1051,729	47,75
1052,095	47,59
1052,46	47,38
1052,825	47,31
1053,191	47,74
1053,556	47,13
1053,921	48,46
1054,286	48,57
1054,651	47,91
1055,016	47,37
1055,381	47,93
1055,745	47,59
1056,11	47,86
1056,475	48,05
1056,839	47,95
1057,203	46,47
1057,568	48,98
1057,932	47,31
1058,296	49,02
1058,66	47,68
1059,024	47,67
1059,388	47,4
1059,752	48,64
1060,116	47,96
1060,48	47,59
1060,843	49,23
1061,207	46,97
1061,57	49,03
1061,934	49,27
1062,297	47,05
1062,66	48,69
1063,023	48,86
1063,386	47,88
1063,749	47,67
1064,112	46,93
1064,475	48,52
1064,838	49,37
1065,201	47,7
1065,563	48,82
1065,926	47,95
1066,288	48,37
1066,651	48,18
1067,013	48,6
1067,375	48,13
1067,737	49,26
1068,099	47,48
1068,461	48,33
1068,823	48,88
1069,185	47,63
1069,547	49,38
1069,909	48,87
1070,27	46,52
1070,632	47,73
1070,993	48,56
1071,355	47,84
1071,716	47,74
1072,077	50,47
1072,438	48,19
1072,799	47,93
1073,16	48,85
1073,521	48,97
1073,882	49,02
1074,243	46,95
1074,603	47,97
1074,964	48,33
1075,325	48,51
1075,685	49,08
1076,045	47,25
1076,406	49,57
1076,766	48,65
1077,126	49,19
1077,486	47,59
1077,846	49,68
1078,206	49,49
1078,566	48,93
1078,925	48,55
1079,285	48,36
1079,645	49,68
1080,004	49,13
1080,364	49,74
1080,723	47,47
1081,082	48,57
1081,442	49,84
1081,801	47,25
1082,16	47,19
1082,519	50,64
1082,878	50,94
1083,237	46,11
1083,595	48,59
1083,954	47,9
1084,313	49,36
1084,671	47,77
1085,03	48,72
1085,388	49,47
1085,746	48,28
1086,104	49,03
1086,463	49,13
1086,821	48,84
1087,179	48,86
1087,537	48,72
1087,894	51,16
1088,252	50,54
1088,61	49,19
1088,967	50,3
1089,325	50,2
1089,682	50,22
1090,04	50,4
1090,397	52,06
1090,754	50,52
1091,111	50,56
1091,469	51,58
1091,826	50,75
1092,182	48,8
1092,539	47,92
1092,896	50,21
1093,253	49,88
1093,609	49,04
1093,966	49,18
1094,322	46,89
1094,679	51,47
1095,035	51,38
1095,391	49,97
1095,748	51,76
1096,104	50,26
1096,46	51,06
1096,816	50,34
1097,171	51,49
1097,527	51,29
1097,883	51,72
1098,239	48,17
1098,594	52,24
1098,95	52,04
1099,305	53,24
1099,66	50,76
1100,016	50,37
1100,371	51,62
1100,726	51,35
1101,081	50,46
1101,436	50,51
1101,791	50,84
1102,146	53,06
1102,5	50,08
1102,855	51,67
1103,21	54,94
1103,564	53,93
1103,918	50,47
1104,273	48,66
1104,627	53,81
1104,981	50
1105,335	56,16
1105,69	55,4
1106,043	52,17
1106,397	51,53
1106,751	54,26
1107,105	53,08
1107,459	52,49
1107,812	55,32
1108,166	54,24
1108,519	54,94
1108,873	54,18
1109,226	54,91
1109,579	56,03
1109,932	55,64
1110,285	54,13
1110,638	53,76
1110,991	53,8
1111,344	53,78
1111,697	53,36
1112,05	56,6
1112,402	53,97
1112,755	52,3
1113,107	52,48
1113,46	56,64
1113,812	55,3
1114,164	57,28
1114,517	57,31
1114,869	145
1115,221	152,46
1115,573	147,69
1115,924	136,62
