Data from A_2_0_Relative__0__00000.txt Node

Date: Mon Jan 29 12:44:19 CET 2024
User: diatiterra
Spectrometer: HDX00911
Trigger mode: 0
Integration Time (sec): 6,000000E-3
Scans to average: 4
Nonlinearity correction enabled: false
Boxcar width: 0
Storing dark spectrum: false
XAxis mode: Wavelengths
Number of Pixels in Spectrum: 2068
>>>>>Begin Spectral Data<<<<<
194,468	80,82
195,025	102,82
195,581	89,39
196,138	106,9
196,694	92,41
197,251	81,82
197,807	78,38
198,363	78,74
198,919	70,61
199,474	74,43
200,03	65,9
200,586	85,91
201,141	76,72
201,696	71
202,251	79,31
202,806	85,12
203,361	80,37
203,916	71,37
204,471	72,41
205,025	90,99
205,58	86,89
206,134	78,83
206,688	70,09
207,242	72,27
207,796	74,45
208,35	68,18
208,904	81,92
209,457	77,82
210,011	67,12
210,564	77,39
211,117	74,81
211,67	76,76
212,223	85,9
212,776	78,63
213,329	83,86
213,881	61,09
214,434	79,39
214,986	76,17
215,538	66,39
216,09	87,44
216,642	72,17
217,194	76,42
217,746	73,22
218,297	80,36
218,849	73,44
219,4	81,33
219,951	74
220,502	69,2
221,053	78,99
221,604	73,5
222,155	76,58
222,705	67,93
223,256	63,64
223,806	86,3
224,356	77,87
224,906	74,36
225,456	92,98
226,006	70,61
226,556	80,28
227,106	80,17
227,655	82,1
228,204	73,61
228,754	91,43
229,303	64,91
229,852	79,03
230,401	72,07
230,949	67,83
231,498	76,15
232,047	83,82
232,595	70,82
233,143	68,67
233,691	80,97
234,239	72,96
234,787	75,91
235,335	74,07
235,883	69,06
236,43	73,61
236,978	72,9
237,525	65,37
238,072	80,53
238,619	77,78
239,166	90,13
239,713	77,48
240,26	60,39
240,806	78,88
241,353	74,06
241,899	70,2
242,445	75,72
242,991	77,23
243,537	67,86
244,083	78,06
244,629	67,16
245,174	101,7
245,72	81,7
246,265	68,26
246,81	71,63
247,355	64,23
247,9	70,71
248,445	77,96
248,99	78,75
249,534	66,94
250,079	77,18
250,623	78,68
251,168	68,92
251,712	80
252,256	79,02
252,8	77,83
253,343	69,95
253,887	82,68
254,43	79,71
254,974	71,65
255,517	68,46
256,06	72,44
256,603	72,64
257,146	71,5
257,689	65,89
258,232	79,48
258,774	68,11
259,317	79,91
259,859	81,74
260,401	74,11
260,943	74,46
261,485	80,58
262,027	85,64
262,569	66,67
263,11	82,05
263,652	74,51
264,193	81,71
264,734	75,74
265,275	82,27
265,816	70,18
266,357	90,5
266,898	76,05
267,438	84,83
267,979	78,7
268,519	77,87
269,059	73,21
269,6	72,02
270,14	66,35
270,68	80,83
271,219	62,6
271,759	85,45
272,298	99,46
272,838	73,93
273,377	78,73
273,916	84,4
274,455	72,02
274,994	69,64
275,533	79,91
276,072	83,33
276,61	89,22
277,149	67,69
277,687	60
278,225	82,94
278,763	71,08
279,301	71,19
279,839	71,49
280,377	78,17
280,914	72,84
281,452	84,69
281,989	78,92
282,526	82,71
283,064	90,2
283,601	76,68
284,137	65,16
284,674	68,63
285,211	68,94
285,747	73,08
286,284	76,15
286,82	73,08
287,356	73,8
287,892	73
288,428	60,52
288,964	84,96
289,5	80,66
290,035	70,23
290,571	78,37
291,106	80
291,641	85,99
292,176	89
292,711	70,51
293,246	67,2
293,781	74,18
294,315	74,87
294,85	77,61
295,384	76,82
295,918	85,58
296,453	81,59
296,987	58,87
297,52	83,81
298,054	70,39
298,588	71,86
299,121	88,06
299,655	73,53
300,188	77,72
300,721	69,71
301,254	81,25
301,787	65,91
302,32	78,37
302,853	92,16
303,385	77,97
303,918	77,39
304,45	72,46
304,982	83,33
305,514	93,12
306,046	59,67
306,578	78,77
307,11	84,06
307,641	67,56
308,173	67,23
308,704	86,28
309,236	76,7
309,767	60,68
310,298	73,89
310,829	64,78
311,359	67,23
311,89	91,53
312,421	69,52
312,951	72,77
313,481	75,47
314,012	71,82
314,542	88,36
315,072	76,22
315,601	83,03
316,131	75,25
316,661	57,73
317,19	73,4
317,72	73,58
318,249	72,81
318,778	66,67
319,307	74,4
319,836	74,44
320,365	74,52
320,893	94,57
321,422	76,15
321,95	74,9
322,479	67,98
323,007	81,76
323,535	76,77
324,063	58,26
324,591	66,51
325,118	89,57
325,646	74,44
326,173	66,03
326,701	73,13
327,228	78,83
327,755	72,28
328,282	74,86
328,809	81,77
329,336	75,65
329,862	73,11
330,389	67,86
330,915	59,83
331,441	85,64
331,968	79,23
332,494	68,72
333,02	51,98
333,545	81,06
334,071	65,09
334,597	76,81
335,122	70,14
335,648	84,66
336,173	57,8
336,698	77,58
337,223	72,49
337,748	63,09
338,272	67,89
338,797	71,5
339,322	51,08
339,846	73,58
340,37	84,75
340,894	71,03
341,419	69,17
341,942	71,05
342,466	55,33
342,99	77,16
343,514	78,66
344,037	78,57
344,56	61,11
345,084	68,48
345,607	67,07
346,13	59,6
346,653	68,46
347,175	55
347,698	70,16
348,221	72,44
348,743	62,64
349,265	70,68
349,787	75,61
350,309	63,23
350,831	61,54
351,353	73,48
351,875	69,46
352,397	58,63
352,918	61,03
353,439	67,97
353,961	63,45
354,482	66,55
355,003	59,33
355,524	66,45
356,044	69,73
356,565	62,85
357,086	70,53
357,606	58,48
358,126	67,8
358,646	56,55
359,167	59,94
359,687	58,46
360,206	64,84
360,726	68,59
361,246	66,57
361,765	61,07
362,285	59,35
362,804	54,08
363,323	55,26
363,842	60,83
364,361	63,38
364,88	55,46
365,398	68,04
365,917	59,82
366,435	57,44
366,954	53,32
367,472	60,37
367,99	56,91
368,508	65,98
369,026	49,12
369,544	52,3
370,061	59,13
370,579	59,32
371,096	59,27
371,613	58,69
372,131	58,31
372,648	54,88
373,165	56,71
373,681	48,29
374,198	51,72
374,715	62,76
375,231	56,33
375,747	48,24
376,264	57,08
376,78	56,63
377,296	56,85
377,812	54,79
378,327	57,78
378,843	54,26
379,359	48,7
379,874	51,25
380,389	45,83
380,905	51,65
381,42	50,26
381,935	47,62
382,449	47,16
382,964	46,25
383,479	46,96
383,993	43,44
384,508	47,98
385,022	46,15
385,536	46,09
386,05	45,38
386,564	39,79
387,078	42,78
387,592	40,21
388,105	40,6
388,619	43,06
389,132	39,85
389,645	40,82
390,158	36,85
390,671	42,97
391,184	40,8
391,697	40,99
392,21	39,15
392,722	37,35
393,235	38,14
393,747	38,12
394,259	39,32
394,771	37,12
395,283	40,09
395,795	37,42
396,307	33,99
396,818	36,58
397,33	37,83
397,841	36,53
398,353	31,6
398,864	36,35
399,375	34,01
399,886	35,09
400,397	33,78
400,907	32,28
401,418	30,1
401,928	30,73
402,439	29,47
402,949	31,24
403,459	26,59
403,969	28,31
404,479	29,23
404,989	26,23
405,498	26,48
406,008	26,97
406,517	24,49
407,027	23,84
407,536	26,51
408,045	21,94
408,554	24,39
409,063	20,38
409,572	22,38
410,08	21,01
410,589	20,48
411,097	19,41
411,606	18,54
412,114	19,14
412,622	18,38
413,13	18,18
413,638	17,94
414,145	15,95
414,653	16,1
415,16	16,13
415,668	15,57
416,175	14,76
416,682	15,3
417,189	15,06
417,696	15,05
418,203	15,53
418,71	14,55
419,216	13,87
419,723	14,5
420,229	13,62
420,735	12,37
421,242	14,57
421,748	13,4
422,254	14,32
422,759	13,24
423,265	12,67
423,771	13,34
424,276	13,16
424,781	12,85
425,287	13,3
425,792	12,56
426,297	12,35
426,802	12,77
427,306	12,03
427,811	12,73
428,316	12,5
428,82	12,17
429,324	13,2
429,829	12,88
430,333	12,21
430,837	13,15
431,34	12,51
431,844	12,01
432,348	11,59
432,851	12,77
433,355	11,73
433,858	12,28
434,361	12,03
434,864	12,33
435,367	12,72
435,87	11,79
436,373	11,83
436,876	12,52
437,378	12,06
437,88	12,35
438,383	12,41
438,885	12,35
439,387	12,84
439,889	12,18
440,391	11,94
440,892	11,74
441,394	11,66
441,896	12,03
442,397	11,78
442,898	11,83
443,399	11,98
443,9	12,14
444,401	12,1
444,902	12,05
445,403	12,24
445,903	11,99
446,404	12,06
446,904	11,36
447,405	12,02
447,905	12
448,405	12,12
448,905	12,13
449,404	12,03
449,904	11,87
450,404	11,87
450,903	11,02
451,403	11,31
451,902	12,16
452,401	11,58
452,9	11,65
453,399	12,53
453,898	12,12
454,396	12,14
454,895	12,4
455,393	12,54
455,892	12,07
456,39	12,25
456,888	12,54
457,386	12,04
457,884	12,59
458,382	12,42
458,879	12,04
459,377	12,19
459,874	12,35
460,372	12,24
460,869	12,2
461,366	12,33
461,863	12,66
462,36	11,96
462,857	12,4
463,353	12,12
463,85	12,34
464,346	11,35
464,843	11,86
465,339	12
465,835	12,43
466,331	12,75
466,827	11,8
467,323	12,02
467,818	11,92
468,314	12,08
468,809	12,42
469,305	12,43
469,8	12,08
470,295	12,66
470,79	12,38
471,285	11,86
471,78	12,14
472,274	12,09
472,769	12,38
473,263	12,54
473,758	12,3
474,252	12,45
474,746	11,93
475,24	12,22
475,734	12,1
476,228	12,52
476,721	12,34
477,215	12,28
477,708	12,3
478,202	12,77
478,695	12,4
479,188	12,94
479,681	11,9
480,174	12,29
480,667	13,02
481,159	11,91
481,652	12,19
482,144	12,45
482,637	12,69
483,129	12,3
483,621	12,22
484,113	12,56
484,605	12,36
485,097	12,56
485,588	12,65
486,08	12,31
486,571	12,69
487,063	13,05
487,554	12,63
488,045	12,68
488,536	12,5
489,027	12,9
489,518	13,09
490,008	12,8
490,499	12,39
490,989	12,69
491,48	12,79
491,97	12,95
492,46	12,66
492,95	13,38
493,44	12,99
493,93	12,68
494,419	13,05
494,909	13,17
495,398	12,84
495,888	13,07
496,377	13,3
496,866	13,55
497,355	13,51
497,844	13,64
498,333	14,04
498,821	13,62
499,31	13,64
499,798	13,97
500,287	13,84
500,775	14,11
501,263	14,12
501,751	14,44
502,239	14,25
502,727	14,77
503,215	14,62
503,702	15,54
504,19	15,46
504,677	15,26
505,164	15,01
505,651	15,67
506,139	15,72
506,625	16,11
507,112	16,32
507,599	16,22
508,086	16,61
508,572	16,83
509,058	17,22
509,545	17,49
510,031	17,75
510,517	18,14
511,003	18,22
511,489	18,9
511,974	19,12
512,46	19,2
512,946	19,83
513,431	19,85
513,916	20,5
514,401	20,96
514,887	20,73
515,371	21,39
515,856	21,77
516,341	22,19
516,826	22,91
517,31	23,33
517,795	23,69
518,279	24,39
518,763	24,37
519,247	24,78
519,731	25,1
520,215	25,76
520,699	26,47
521,182	26,78
521,666	27,17
522,149	27,39
522,633	28,09
523,116	28,57
523,599	29,35
524,082	29,59
524,565	30,45
525,048	30,23
525,53	31,24
526,013	31,48
526,495	31,33
526,978	32,33
527,46	32,05
527,942	32,87
528,424	33,51
528,906	33,84
529,388	33,52
529,87	34,36
530,351	34,45
530,833	35,03
531,314	35,62
531,795	35,61
532,277	35,64
532,758	35,99
533,238	36,49
533,719	36,05
534,2	36,69
534,681	36,85
535,161	36,72
535,642	37,44
536,122	37,35
536,602	38,16
537,082	37,12
537,562	37,64
538,042	37,81
538,522	37,38
539,001	37,94
539,481	37,8
539,96	38,34
540,44	37,9
540,919	38,49
541,398	38,86
541,877	38,42
542,356	38,22
542,835	38,67
543,313	38,51
543,792	39,17
544,27	39,11
544,749	38,79
545,227	38,68
545,705	39,12
546,183	39,01
546,661	38,4
547,139	38,77
547,616	40,01
548,094	39,05
548,571	39,26
549,049	40,03
549,526	39,93
550,003	39,49
550,48	39,2
550,957	39,85
551,434	39,51
551,911	40,05
552,387	40,07
552,864	39,41
553,34	40,25
553,817	39,52
554,293	39,63
554,769	39,26
555,245	39,59
555,721	39,79
556,197	39,6
556,672	39,19
557,148	39,28
557,623	39,26
558,099	39,46
558,574	38,95
559,049	38,62
559,524	38,59
559,999	38,38
560,474	38,83
560,948	39,05
561,423	38,21
561,897	38,18
562,372	37,5
562,846	37,84
563,32	38,16
563,794	38,23
564,268	37,55
564,742	37,32
565,216	36,89
565,69	36,83
566,163	36,94
566,636	36,56
567,11	35,83
567,583	36,37
568,056	35,33
568,529	35,1
569,002	35,04
569,475	34,65
569,947	34,36
570,42	34,26
570,892	34,18
571,365	33,5
571,837	33,56
572,309	32,93
572,781	32,41
573,253	32,48
573,725	32,48
574,197	31,62
574,668	31,19
575,14	31,34
575,611	31,13
576,082	30,96
576,554	30,85
577,025	30,97
577,496	30,85
577,967	29,85
578,437	29,58
578,908	29,71
579,379	28,97
579,849	29,47
580,319	28,77
580,79	28,54
581,26	28,43
581,73	28,15
582,2	28,05
582,669	28,31
583,139	28,28
583,609	27,47
584,078	27,65
584,548	27,45
585,017	27,32
585,486	27,36
585,955	26,96
586,424	26,79
586,893	26,86
587,362	26,51
587,83	26,6
588,299	26,48
588,767	26,21
589,236	26
589,704	26
590,172	25,87
590,64	25,82
591,108	25,85
591,576	25,35
592,043	25,28
592,511	25,42
592,978	25,09
593,446	25,53
593,913	25,44
594,38	24,95
594,847	24,99
595,314	25,4
595,781	25,06
596,248	24,93
596,715	24,91
597,181	24,74
597,647	24,73
598,114	24,95
598,58	24,68
599,046	24,48
599,512	24,43
599,978	24,45
600,444	24,09
600,91	24,35
601,375	24,15
601,841	24,3
602,306	23,98
602,771	24,04
603,236	24,08
603,702	24,12
604,167	23,93
604,631	23,65
605,096	23,71
605,561	23,52
606,025	23,16
606,49	23,47
606,954	23,31
607,418	23,07
607,882	22,91
608,347	22,73
608,81	22,74
609,274	22,61
609,738	22,03
610,202	22,35
610,665	22,3
611,128	22,05
611,592	22,02
612,055	21,93
612,518	21,53
612,981	21,66
613,444	21,36
613,907	21,45
614,369	21,28
614,832	21,14
615,294	21,02
615,757	20,72
616,219	20,88
616,681	20,72
617,143	20,58
617,605	20,53
618,067	20,06
618,529	20,29
618,99	20,26
619,452	19,98
619,913	19,89
620,375	19,74
620,836	19,63
621,297	19,68
621,758	19,58
622,219	19,54
622,68	19,25
623,14	19,47
623,601	19,48
624,061	19,23
624,522	19,24
624,982	19,04
625,442	19,04
625,902	18,81
626,362	18,96
626,822	18,9
627,282	18,97
627,742	19,1
628,201	18,98
628,661	19,01
629,12	18,9
629,579	18,77
630,038	18,82
630,497	18,8
630,956	18,65
631,415	18,67
631,874	18,67
632,332	18,63
632,791	18,59
633,249	18,56
633,708	18,66
634,166	18,36
634,624	18,5
635,082	18,06
635,54	18,27
635,998	17,97
636,455	18,17
636,913	17,7
637,37	17,68
637,828	17,83
638,285	17,51
638,742	17,34
639,199	17,15
639,656	17,07
640,113	16,97
640,57	16,81
641,027	16,58
641,483	16,43
641,94	16,15
642,396	16,31
642,852	16,06
643,309	15,82
643,765	15,99
644,221	15,6
644,676	15,53
645,132	15,48
645,588	15,22
646,043	15,17
646,499	14,92
646,954	14,91
647,409	14,79
647,864	14,65
648,319	14,51
648,774	14,22
649,229	14,22
649,684	14,09
650,139	14,22
650,593	13,88
651,047	14,09
651,502	13,91
651,956	13,72
652,41	13,7
652,864	13,81
653,318	13,57
653,772	13,77
654,225	13,56
654,679	13,52
655,133	13,44
655,586	13,51
656,039	13,41
656,492	13,52
656,946	13,49
657,399	13,1
657,851	13,08
658,304	12,97
658,757	12,88
659,209	12,94
659,662	12,68
660,114	12,77
660,567	12,75
661,019	12,42
661,471	12,39
661,923	12,58
662,375	12,46
662,826	12,4
663,278	12,34
663,73	12,27
664,181	12,19
664,632	12,13
665,084	12,03
665,535	12,01
665,986	11,99
666,437	11,97
666,888	11,97
667,338	12,03
667,789	12,07
668,24	12,02
668,69	12,12
669,14	12,01
669,591	12,13
670,041	11,99
670,491	12,23
670,941	12,49
671,391	12,1
671,84	12,49
672,29	12,51
672,74	12,37
673,189	12,56
673,638	12,52
674,088	12,56
674,537	12,7
674,986	12,89
675,435	12,93
675,883	13,15
676,332	13,18
676,781	13,32
677,229	13,29
677,678	13,67
678,126	13,67
678,574	13,72
679,022	14,09
679,47	13,96
679,918	14,06
680,366	14,23
680,814	14,55
681,261	14,77
681,709	14,8
682,156	14,8
682,604	15,13
683,051	15,07
683,498	15,05
683,945	15,41
684,392	15,39
684,839	15,61
685,286	15,64
685,732	15,9
686,179	15,67
686,625	16,08
687,071	16,13
687,518	16,57
687,964	16,65
688,41	17,15
688,856	17,12
689,301	17,48
689,747	17,71
690,193	18,23
690,638	18,69
691,084	19,08
691,529	19,54
691,974	19,79
692,419	20,52
692,864	21,25
693,309	22,01
693,754	22,51
694,199	23,22
694,643	24,25
695,088	24,9
695,532	25,72
695,977	26,67
696,421	27,35
696,865	28,27
697,309	28,85
697,753	30,2
698,197	31,12
698,64	31,92
699,084	32,72
699,527	34,13
699,971	34,5
700,414	35,65
700,857	36,4
701,3	37,63
701,743	38,37
702,186	39,28
702,629	40,18
703,072	41,29
703,515	41,83
703,957	42,91
704,399	44,25
704,842	44,66
705,284	45,48
705,726	46,35
706,168	47,34
706,61	47,98
707,052	49,28
707,494	50,14
707,935	50,84
708,377	51,69
708,818	52,3
709,26	53,63
709,701	54,2
710,142	55,12
710,583	55,66
711,024	56,48
711,465	57,02
711,905	57,63
712,346	58,77
712,787	59,23
713,227	60,14
713,667	60,86
714,108	62,05
714,548	62,68
714,988	63,39
715,428	63,71
715,868	64,53
716,307	65,18
716,747	65,95
717,186	67,32
717,626	67,37
718,065	68,23
718,504	68,97
718,944	69,4
719,383	70,1
719,822	70,5
720,261	71,43
720,699	71,77
721,138	72,1
721,576	72,77
722,015	73,88
722,453	73,82
722,892	74,7
723,33	75,47
723,768	75,1
724,206	76,03
724,644	76,24
725,081	77,13
725,519	77,17
725,957	78,46
726,394	78,52
726,832	78,67
727,269	79,04
727,706	80,06
728,143	79,7
728,58	80,68
729,017	80,84
729,454	80,78
729,89	81,56
730,327	82,1
730,764	82,25
731,2	82,53
731,636	82,5
732,072	82,88
732,509	83,56
732,945	83,61
733,38	83,94
733,816	84,15
734,252	84,69
734,688	84,95
735,123	84,85
735,559	85,5
735,994	85,81
736,429	85,1
736,864	85,35
737,299	85,7
737,734	85,32
738,169	86,03
738,604	86,21
739,038	86,74
739,473	85,91
739,907	86,37
740,342	87,1
740,776	87,06
741,21	87,22
741,644	87,72
742,078	87,01
742,512	87,3
742,946	88,07
743,379	87,41
743,813	87,95
744,246	88,09
744,68	88,4
745,113	88,45
745,546	88,05
745,979	88,83
746,412	88,65
746,845	88,04
747,278	88,36
747,711	88,22
748,143	88,3
748,576	88,36
749,008	88,39
749,441	88,13
749,873	88,38
750,305	88,78
750,737	88,46
751,169	88,4
751,601	88,34
752,032	88,92
752,464	88,54
752,896	88,36
753,327	89,05
753,758	88,43
754,19	88,53
754,621	88,82
755,052	88,51
755,483	89,28
755,914	88,29
756,344	88,73
756,775	88,19
757,206	88,24
757,636	88,67
758,066	88,59
758,497	87,93
758,927	88,48
759,357	88,59
759,787	88,22
760,217	88,45
760,647	88,26
761,076	88,5
761,506	88,38
761,935	88,67
762,365	88,12
762,794	88,5
763,223	87,67
763,653	88,35
764,082	88,4
764,51	87,66
764,939	88,21
765,368	88,02
765,797	87,83
766,225	87,86
766,654	87,6
767,082	87,72
767,51	88,11
767,938	87,96
768,367	87,95
768,795	88,04
769,222	87,93
769,65	88,36
770,078	88
770,505	87,7
770,933	87,92
771,36	87,8
771,788	87,83
772,215	87,21
772,642	87,81
773,069	87,74
773,496	87,65
773,923	87,69
774,349	88,01
774,776	88,49
775,203	87,36
775,629	87,83
776,055	87,65
776,482	88,5
776,908	87,16
777,334	87,83
777,76	87,93
778,186	87,44
778,611	87,32
779,037	87,65
779,463	87,12
779,888	87,54
780,314	87,56
780,739	88
781,164	87,23
781,589	87,59
782,014	87,47
782,439	87,32
782,864	87,57
783,289	87,96
783,713	87,54
784,138	87,11
784,562	87,83
784,987	86,89
785,411	87,48
785,835	87,76
786,259	87,65
786,683	87,72
787,107	87,26
787,531	87,24
787,954	87,66
788,378	87,16
788,802	87,98
789,225	87,8
789,648	87,56
790,071	87,66
790,495	87,65
790,918	87
791,34	87,73
791,763	87,6
792,186	87,7
792,609	87,31
793,031	87,14
793,454	87,45
793,876	87,39
794,298	86,88
794,721	87,22
795,143	87,28
795,565	87,59
795,986	87,68
796,408	87,36
796,83	87,1
797,252	87,16
797,673	87,32
798,094	87,47
798,516	87,54
798,937	86,91
799,358	86,98
799,779	87,63
800,2	87,57
800,621	87,4
801,042	87,68
801,462	87,41
801,883	87,11
802,303	87,59
802,724	87,31
803,144	87,28
803,564	87,6
803,984	87,64
804,404	88,05
804,824	87,66
805,244	87,48
805,664	87,54
806,084	87,59
806,503	87,64
806,923	87,49
807,342	87,5
807,761	87,66
808,18	87,52
808,599	87,06
809,018	86,64
809,437	86,92
809,856	87,16
810,275	87,51
810,693	86,86
811,112	87,16
811,53	87,4
811,949	87,51
812,367	86,92
812,785	87,16
813,203	87,34
813,621	86,74
814,039	87,27
814,457	87,5
814,874	87,26
815,292	87,14
815,709	87,37
816,127	87,49
816,544	87,33
816,961	86,82
817,378	87,09
817,795	87,83
818,212	87,42
818,629	87,53
819,046	87,43
819,462	86,93
819,879	87,84
820,295	88,13
820,712	86,74
821,128	87,42
821,544	87,12
821,96	86,97
822,376	87,3
822,792	86,5
823,208	87,01
823,624	87,27
824,039	87,23
824,455	87,5
824,87	87,53
825,286	87,69
825,701	87,53
826,116	87,17
826,531	87,44
826,946	87,1
827,361	87,2
827,776	86,92
828,19	86,95
828,605	86,81
829,02	87,35
829,434	87,63
829,848	87,63
830,263	86,93
830,677	86,91
831,091	87
831,505	87,14
831,919	87,25
832,332	86,98
832,746	87,07
833,16	87,02
833,573	86,98
833,987	86,98
834,4	87,16
834,813	87,42
835,226	86,86
835,639	87,82
836,052	87,05
836,465	87,17
836,878	86,57
837,29	87,03
837,703	87,02
838,116	86,62
838,528	87,23
838,94	87,01
839,352	86,84
839,765	87,23
840,177	87,05
840,589	86,44
841	86,87
841,412	86,8
841,824	87,08
842,235	86,57
842,647	86,91
843,058	87,11
843,47	87,61
843,881	87,43
844,292	86,54
844,703	86,9
845,114	87,02
845,525	87,23
845,935	86,74
846,346	86,96
846,757	86,74
847,167	87,27
847,577	86,64
847,988	86,84
848,398	87,44
848,808	86,74
849,218	87,06
849,628	86,55
850,038	86,73
850,448	86,93
850,857	86,65
851,267	87,11
851,676	87,08
852,086	86,91
852,495	86,82
852,904	86,73
853,313	86,38
853,722	86,62
854,131	86,73
854,54	86,65
854,949	86,78
855,357	86,75
855,766	87,21
856,174	86,9
856,583	87,44
856,991	86,87
857,399	86,73
857,807	87,23
858,215	87,09
858,623	86,41
859,031	86,19
859,439	87,1
859,846	86,83
860,254	86,96
860,661	87,13
861,069	86,56
861,476	87,06
861,883	87,07
862,29	86,68
862,697	87,3
863,104	86,43
863,511	86,83
863,918	86,45
864,325	87,05
864,731	86,61
865,138	86,97
865,544	87,26
865,95	87,05
866,357	86,36
866,763	86,74
867,169	86,01
867,575	86,87
867,98	86,68
868,386	86,41
868,792	86,69
869,197	86,61
869,603	86,59
870,008	86,99
870,414	86,61
870,819	86,35
871,224	86,74
871,629	86,83
872,034	86,9
872,439	86,41
872,844	87,2
873,248	86,95
873,653	86,57
874,057	87,11
874,462	86,91
874,866	87,08
875,27	86,49
875,674	85,93
876,078	86,62
876,482	86,64
876,886	86,77
877,29	86,63
877,694	87,17
878,097	86,76
878,501	87,11
878,904	86,43
879,308	86,27
879,711	86,86
880,114	86,26
880,517	86,93
880,92	86,74
881,323	87,12
881,726	86,97
882,128	87,1
882,531	87,3
882,934	86,61
883,336	86,35
883,738	86,39
884,141	87,29
884,543	86,95
884,945	86,51
885,347	86,77
885,749	86,7
886,151	86,66
886,552	86,93
886,954	86,65
887,355	87,02
887,757	86,23
888,158	86,63
888,56	86,34
888,961	86,44
889,362	86,81
889,763	86,79
890,164	86,72
890,565	86,5
890,965	87,35
891,366	86,72
891,767	87,05
892,167	86,25
892,567	86,23
892,968	86,55
893,368	86,47
893,768	86,45
894,168	86,49
894,568	87,11
894,968	86,24
895,368	86,7
895,767	86,56
896,167	86,88
896,566	87,18
896,966	86,6
897,365	87,05
897,764	86,58
898,164	86,98
898,563	86,3
898,962	86,32
899,361	86,91
899,759	86,12
900,158	86,71
900,557	86,4
900,955	86,53
901,354	86,78
901,752	86,69
902,15	86,23
902,548	87,15
902,947	86,37
903,345	86,45
903,742	86,33
904,14	86,7
904,538	86,19
904,936	86,29
905,333	86,62
905,731	86,91
906,128	86,48
906,525	86,23
906,923	86,97
907,32	86,55
907,717	86,3
908,114	86,3
908,511	86,26
908,907	86,02
909,304	86,9
909,701	86,27
910,097	86,32
910,494	86,62
910,89	86,71
911,286	87,11
911,682	86,33
912,078	86,47
912,474	86,22
912,87	87,04
913,266	86,44
913,662	86,02
914,058	86,56
914,453	86,71
914,849	86,52
915,244	87,03
915,639	86,47
916,034	86,24
916,43	86,97
916,825	86,26
917,22	85,66
917,614	86,08
918,009	86,24
918,404	86,28
918,798	86,32
919,193	86,04
919,587	86,16
919,982	86,78
920,376	86,23
920,77	85,62
921,164	86,23
921,558	86,1
921,952	85,85
922,346	86,3
922,74	85,94
923,133	86,34
923,527	86,07
923,92	85,94
924,314	86,3
924,707	85,88
925,1	86,57
925,493	86,24
925,886	85,97
926,279	86,76
926,672	86,33
927,065	85,42
927,457	85,83
927,85	85,83
928,243	85,59
928,635	85,98
929,027	85,22
929,42	86,12
929,812	84,68
930,204	85,59
930,596	85,63
930,988	86,53
931,379	86,14
931,771	85,76
932,163	85,68
932,554	86,22
932,946	85,95
933,337	85,34
933,729	85,14
934,12	85,68
934,511	85,61
934,902	85,61
935,293	86,25
935,684	86,04
936,075	85,5
936,465	86,15
936,856	85,28
937,246	85,78
937,637	85,47
938,027	85,6
938,417	85,26
938,808	85,29
939,198	85,53
939,588	85,68
939,978	84,79
940,368	85,98
940,757	86,36
941,147	85,02
941,537	84,27
941,926	84,04
942,315	85,32
942,705	85,04
943,094	84,44
943,483	84,73
943,872	85,55
944,261	84,34
944,65	85,29
945,039	85,48
945,428	84,81
945,816	85,89
946,205	84,23
946,593	84,11
946,982	85,03
947,37	84,66
947,758	85,28
948,146	85,2
948,534	85,22
948,922	84,01
949,31	84,62
949,698	83,66
950,086	83,01
950,473	83,26
950,861	84,35
951,248	83,82
951,636	83,64
952,023	82,84
952,41	83,73
952,797	83,25
953,184	83,49
953,571	84,34
953,958	83,35
954,345	83,96
954,731	84,28
955,118	83,62
955,505	83,56
955,891	83,57
956,277	83,84
956,664	82,49
957,05	83,62
957,436	83,35
957,822	82,88
958,208	83,49
958,594	82,56
958,979	83,44
959,365	83,28
959,751	82,84
960,136	83,37
960,522	83,49
960,907	82,9
961,292	83,2
961,677	83,29
962,062	83,7
962,447	82,31
962,832	83,43
963,217	82,2
963,602	81,94
963,986	83,02
964,371	82,65
964,756	82,15
965,14	82,91
965,524	82,47
965,908	82,83
966,293	83,42
966,677	81,68
967,061	82,55
967,445	82,57
967,828	82,89
968,212	82,04
968,596	82,37
968,979	82,14
969,363	82,84
969,746	82,25
970,129	83,27
970,513	83,21
970,896	82,31
971,279	82,53
971,662	83,41
972,045	81,59
972,428	82,25
972,81	82,84
973,193	83,12
973,575	82,33
973,958	81,64
974,34	82,5
974,723	82,39
975,105	82,99
975,487	82,44
975,869	82,5
976,251	82,28
976,633	81,64
977,015	82,8
977,396	82,57
977,778	83,02
978,16	82,1
978,541	81,71
978,922	82,5
979,304	82,53
979,685	81,97
980,066	82,54
980,447	82,87
980,828	82,35
981,209	82,44
981,59	81,7
981,97	82,47
982,351	82,66
982,732	82,99
983,112	81,81
983,493	82,6
983,873	82,33
984,253	82,89
984,633	82,58
985,013	81,7
985,393	82,64
985,773	83,01
986,153	82,74
986,533	82,77
986,912	83,11
987,292	82,5
987,671	82,42
988,051	82,47
988,43	82,45
988,809	82,35
989,188	82,88
989,567	81,96
989,946	83,35
990,325	82,08
990,704	82,42
991,083	82,88
991,461	82,07
991,84	82,56
992,218	81,91
992,597	83,41
992,975	83,01
993,353	83,01
993,732	83,21
994,11	82,9
994,488	83,18
994,866	82,93
995,243	82,78
995,621	82,75
995,999	82,62
996,376	82,37
996,754	83,11
997,131	82,26
997,509	82,62
997,886	82,48
998,263	82,32
998,64	82,99
999,017	82,47
999,394	83,1
999,771	83,91
1000,148	83,01
1000,524	83,18
1000,901	82,72
1001,277	83,09
1001,654	83,61
1002,03	83,1
1002,406	82,19
1002,783	83,59
1003,159	82,97
1003,535	82,64
1003,911	82,16
1004,286	81,82
1004,662	82,85
1005,038	82,6
1005,414	83,45
1005,789	83,99
1006,164	83,34
1006,54	83,48
1006,915	83,21
1007,29	83,08
1007,665	83,09
1008,04	82,95
1008,415	83,93
1008,79	82,89
1009,165	83,67
1009,54	83,29
1009,914	82,67
1010,289	83,86
1010,663	83,08
1011,038	83,96
1011,412	84,07
1011,786	83,18
1012,16	83,75
1012,535	83,85
1012,909	84,34
1013,282	83,54
1013,656	83,89
1014,03	83,83
1014,404	83,42
1014,777	83,61
1015,151	83,31
1015,524	84,25
1015,897	83,2
1016,271	83,63
1016,644	83,43
1017,017	84,65
1017,39	83,39
1017,763	83,51
1018,136	83,34
1018,508	83,92
1018,881	83,38
1019,254	83,41
1019,626	83,41
1019,999	83,67
1020,371	84,58
1020,743	85
1021,116	84,04
1021,488	83,75
1021,86	83,78
1022,232	85,02
1022,604	83,89
1022,975	83,04
1023,347	84,27
1023,719	84,83
1024,09	84,78
1024,462	84,52
1024,833	83,17
1025,204	84,02
1025,576	84,59
1025,947	83,93
1026,318	84,23
1026,689	83,43
1027,06	84,53
1027,431	84,6
1027,801	83,33
1028,172	85,24
1028,543	84,51
1028,913	85,39
1029,284	84,53
1029,654	84,27
1030,024	85,02
1030,394	84,71
1030,764	84,3
1031,135	83,35
1031,504	84,5
1031,874	85
1032,244	83,63
1032,614	85,02
1032,983	84,59
1033,353	84,11
1033,722	84,77
1034,092	85,37
1034,461	83,47
1034,83	83,82
1035,2	83,32
1035,569	85,43
1035,938	84
1036,307	86,07
1036,675	85,76
1037,044	84,41
1037,413	84,75
1037,781	85,17
1038,15	83,81
1038,518	84,6
1038,887	84,94
1039,255	84,95
1039,623	85,63
1039,991	86,25
1040,359	85,55
1040,727	84,91
1041,095	85,08
1041,463	83,83
1041,831	84,92
1042,198	83,93
1042,566	84,19
1042,933	85,74
1043,301	84,07
1043,668	84,36
1044,035	85,53
1044,402	86,55
1044,77	85,81
1045,137	85,93
1045,503	85,08
1045,87	85,14
1046,237	85,45
1046,604	85,37
1046,97	84,85
1047,337	84,63
1047,703	83,73
1048,07	83,44
1048,436	83,15
1048,802	85,05
1049,168	84,79
1049,534	86,02
1049,9	85,24
1050,266	83,76
1050,632	85,29
1050,998	85,96
1051,364	84,56
1051,729	84,33
1052,095	82,63
1052,46	86,59
1052,825	86,29
1053,191	84,38
1053,556	86,09
1053,921	85,56
1054,286	84,42
1054,651	85,19
1055,016	83,88
1055,381	86,51
1055,745	85,47
1056,11	86,12
1056,475	86,33
1056,839	85,77
1057,203	86,86
1057,568	84,43
1057,932	85,55
1058,296	86,47
1058,66	85,25
1059,024	85,95
1059,388	84,04
1059,752	84,76
1060,116	84,67
1060,48	85,48
1060,843	85,59
1061,207	86,43
1061,57	85,89
1061,934	85,52
1062,297	85,7
1062,66	85,39
1063,023	86,23
1063,386	85,61
1063,749	85,85
1064,112	83,36
1064,475	86,07
1064,838	83,99
1065,201	83,82
1065,563	85,2
1065,926	85,21
1066,288	87,33
1066,651	83,71
1067,013	85,4
1067,375	85,96
1067,737	85,97
1068,099	84,91
1068,461	84,18
1068,823	86,88
1069,185	85,44
1069,547	85,42
1069,909	84,63
1070,27	83,16
1070,632	85,73
1070,993	84,5
1071,355	81,46
1071,716	84,93
1072,077	86,86
1072,438	83,04
1072,799	84,5
1073,16	87,38
1073,521	87,01
1073,882	86,45
1074,243	86,47
1074,603	84,93
1074,964	83,81
1075,325	85,07
1075,685	85,19
1076,045	86,59
1076,406	85,82
1076,766	84,06
1077,126	84,26
1077,486	87,77
1077,846	84,59
1078,206	86,15
1078,566	84,29
1078,925	85,99
1079,285	85,35
1079,645	86,2
1080,004	82,92
1080,364	86,7
1080,723	85,26
1081,082	82,52
1081,442	84,01
1081,801	84,56
1082,16	86,11
1082,519	85,58
1082,878	85,61
1083,237	86,21
1083,595	86,34
1083,954	81,87
1084,313	87,05
1084,671	84,79
1085,03	83,3
1085,388	88,37
1085,746	83,73
1086,104	85,4
1086,463	85,66
1086,821	86,43
1087,179	86,1
1087,537	85,84
1087,894	85,03
1088,252	85,55
1088,61	84,97
1088,967	85,52
1089,325	85,27
1089,682	86,64
1090,04	82,78
1090,397	84,49
1090,754	84,09
1091,111	84,7
1091,469	86,42
1091,826	83,94
1092,182	86,54
1092,539	84,58
1092,896	86,81
1093,253	84,97
1093,609	86,37
1093,966	87,91
1094,322	86,57
1094,679	83,93
1095,035	85,14
1095,391	80,17
1095,748	85,59
1096,104	82,38
1096,46	83,8
1096,816	85,11
1097,171	84,79
1097,527	84,89
1097,883	85,65
1098,239	85,75
1098,594	82,43
1098,95	84,56
1099,305	82,53
1099,66	83,31
1100,016	79,05
1100,371	82,04
1100,726	82,46
1101,081	81,77
1101,436	83,37
1101,791	85,26
1102,146	82,2
1102,5	83,52
1102,855	85,31
1103,21	88,59
1103,564	82,91
1103,918	80,38
1104,273	87,03
1104,627	81,07
1104,981	83,04
1105,335	86,19
1105,69	82,62
1106,043	84,72
1106,397	85,34
1106,751	84,03
1107,105	79,04
1107,459	82,95
1107,812	84,01
1108,166	83,42
1108,519	85,31
1108,873	87,12
1109,226	80,62
1109,579	83,39
1109,932	82,74
1110,285	82,89
1110,638	84,03
1110,991	85,58
1111,344	84,47
1111,697	83,99
1112,05	84,18
1112,402	85,12
1112,755	80,14
1113,107	80,62
1113,46	84,69
1113,812	89,06
1114,164	90,42
1114,517	82,75
1114,869	85,88
1115,221	79,07
1115,573	63,11
1115,924	71,59
