Data from A_2_0_Relative__9__00009.txt Node

Date: Mon Jan 29 12:45:01 CET 2024
User: diatiterra
Spectrometer: HDX00911
Trigger mode: 0
Integration Time (sec): 6,000000E-3
Scans to average: 4
Nonlinearity correction enabled: false
Boxcar width: 0
Storing dark spectrum: false
XAxis mode: Wavelengths
Number of Pixels in Spectrum: 2068
>>>>>Begin Spectral Data<<<<<
194,468	75,34
195,025	87,32
195,581	69,7
196,138	74,14
196,694	88,97
197,251	77,01
197,807	82,16
198,363	70,05
198,919	58,37
199,474	72,15
200,03	57,14
200,586	76,82
201,141	65,09
201,696	72,29
202,251	67,98
202,806	70,7
203,361	63,01
203,916	72,65
204,471	67,98
205,025	71,67
205,58	69,42
206,134	70,72
206,688	55,98
207,242	61,34
207,796	69,16
208,35	71,82
208,904	76,15
209,457	63,42
210,011	94,06
210,564	72,17
211,117	64,73
211,67	77,59
212,223	74,45
212,776	68,38
213,329	78,35
213,881	67,7
214,434	81,58
214,986	65,96
215,538	69,67
216,09	79,9
216,642	75,22
217,194	62,2
217,746	66,11
218,297	64,29
218,849	66,39
219,4	78,01
219,951	79,5
220,502	67,41
221,053	63,87
221,604	64,96
222,155	53,15
222,705	59,92
223,256	68,83
223,806	83,56
224,356	73,36
224,906	67,03
225,456	72,37
226,006	67,35
226,556	72,94
227,106	78,06
227,655	66,81
228,204	66,67
228,754	73,88
229,303	71,93
229,852	72,58
230,401	64,41
230,949	70
231,498	63,6
232,047	58,51
232,595	61,48
233,143	60,09
233,691	72,47
234,239	62,23
234,787	72,73
235,335	65,02
235,883	68,61
236,43	53,7
236,978	66,82
237,525	74,15
238,072	58,85
238,619	68,89
239,166	71,67
239,713	76,13
240,26	63,92
240,806	68,92
241,353	61,79
241,899	71,84
242,445	53,91
242,991	66,52
243,537	58,93
244,083	64,56
244,629	59,78
245,174	83,52
245,72	65,96
246,265	53,48
246,81	73,49
247,355	52,44
247,9	66,95
248,445	67,74
248,99	52,92
249,534	63,27
250,079	70,87
250,623	73,1
251,168	63,96
251,712	56,8
252,256	64,39
252,8	67,83
253,343	52,71
253,887	61,04
254,43	63,77
254,974	59,79
255,517	65,15
256,06	60,89
256,603	58,21
257,146	69,43
257,689	59,69
258,232	62,88
258,774	61,08
259,317	58,52
259,859	64,38
260,401	68,75
260,943	66,85
261,485	60,19
262,027	65,35
262,569	63,13
263,11	70,09
263,652	70,59
264,193	70,73
264,734	62,87
265,275	55,91
265,816	65,79
266,357	53,39
266,898	64,07
267,438	65,88
267,979	57,83
268,519	65,16
269,059	61,24
269,6	69,27
270,14	56,25
270,68	70,42
271,219	50,39
271,759	67,73
272,298	68,28
272,838	66,82
273,377	64,71
273,916	56,42
274,455	61,01
274,994	60,27
275,533	68,04
276,072	71,93
276,61	72,55
277,149	66,15
277,687	56,44
278,225	59,72
278,763	59,04
279,301	44,49
279,839	61,4
280,377	51,78
280,914	59,05
281,452	70,41
281,989	69,12
282,526	64,02
283,064	73,04
283,601	56,95
284,137	53,85
284,674	64,71
285,211	75,74
285,747	48,29
286,284	62,39
286,82	62,82
287,356	72,93
287,892	62
288,428	57,94
288,964	76,55
289,5	62,26
290,035	65,58
290,571	64,42
291,106	71,11
291,641	70,53
292,176	55,5
292,711	66,67
293,246	60,4
293,781	62,91
294,315	70,16
294,85	74,63
295,384	63,18
295,918	63,94
296,453	77,61
296,987	55,65
297,52	76,19
298,054	70,39
298,588	58,44
299,121	67,16
299,655	58,82
300,188	75,54
300,721	60,58
301,254	60,1
301,787	72,27
302,32	62,98
302,853	73,04
303,385	63,98
303,918	66,83
304,45	62,8
304,982	67,57
305,514	79,89
306,046	60,91
306,578	61,32
307,11	67,15
307,641	69,33
308,173	62,61
308,704	66,81
309,236	66,02
309,767	61,54
310,298	64,16
310,829	62,61
311,359	55,32
311,89	76,72
312,421	65,24
312,951	71,36
313,481	63,21
314,012	63,64
314,542	67,2
315,072	61,62
315,601	72,94
316,131	61,88
316,661	55,45
317,19	63,05
317,72	63,21
318,249	60,83
318,778	57
319,307	63,29
319,836	58,3
320,365	69,23
320,893	76,09
321,422	60,09
321,95	56,9
322,479	58,77
323,007	78,82
323,535	60,61
324,063	63,3
324,591	58,96
325,118	57,39
325,646	64,13
326,173	46,41
326,701	59,47
327,228	62,16
327,755	53,96
328,282	72,13
328,809	71,43
329,336	56,48
329,862	62,26
330,389	59,38
330,915	65,07
331,441	76,41
331,968	63,39
332,494	47,39
333,02	47,22
333,545	65,64
334,071	58,49
334,597	60,39
335,122	64,25
335,648	80,95
336,173	55,96
336,698	56,5
337,223	66,14
337,748	57,51
338,272	63,68
338,797	52
339,322	51,52
339,846	66,32
340,37	67,23
340,894	49,53
341,419	61,67
341,942	59,65
342,466	57,38
342,99	55,6
343,514	62,76
344,037	58,67
344,56	60,19
345,084	45,29
345,607	45,12
346,13	45,6
346,653	51,92
347,175	41,92
347,698	56,45
348,221	51,18
348,743	51,7
349,265	50,75
349,787	59,76
350,309	52,23
350,831	51,28
351,353	55,2
351,875	53,97
352,397	47,12
352,918	56,62
353,439	58,2
353,961	50,69
354,482	42,7
355,003	47,01
355,524	54,07
356,044	45,58
356,565	53,12
357,086	46,32
357,606	48,44
358,126	57,59
358,646	48,62
359,167	57,19
359,687	46,77
360,206	52,58
360,726	52,24
361,246	48,39
361,765	48,66
362,285	40,95
362,804	39,13
363,323	49,25
363,842	47,22
364,361	48
364,88	44,54
365,398	44,87
365,917	47,51
366,435	43,15
366,954	43,24
367,472	36,48
367,99	42,82
368,508	36,69
369,026	36,59
369,544	50
370,061	47,56
370,579	44,07
371,096	44,39
371,613	45,31
372,131	46,99
372,648	39,02
373,165	42,59
373,681	36,67
374,198	42,79
374,715	37,93
375,231	47,06
375,747	42,07
376,264	45,39
376,78	47,87
377,296	32,11
377,812	36,46
378,327	34,12
378,843	37,41
379,359	35,93
379,874	36,99
380,389	34,88
380,905	34,07
381,42	36,03
381,935	36,51
382,449	39,46
382,964	35,67
383,479	35,9
383,993	34,36
384,508	36,6
385,022	31,75
385,536	31,09
386,05	34,1
386,564	33,98
387,078	34,44
387,592	29,76
388,105	31,06
388,619	30,38
389,132	27,46
389,645	30,15
390,158	25,49
390,671	31,62
391,184	29,66
391,697	30,27
392,21	25,39
392,722	27,45
393,235	27,35
393,747	26,18
394,259	28,41
394,771	25,97
395,283	27,59
395,795	26,61
396,307	26,11
396,818	27,14
397,33	23,95
397,841	24,95
398,353	23,31
398,864	25,88
399,375	24,03
399,886	23,85
400,397	20,49
400,907	24,6
401,418	22,21
401,928	22,32
402,439	21,28
402,949	18,8
403,459	20,01
403,969	19,04
404,479	19,53
404,989	18,43
405,498	17,93
406,008	19,42
406,517	19,19
407,027	17,44
407,536	17,42
408,045	15,93
408,554	16,17
409,063	14,59
409,572	15,39
410,08	13,34
410,589	14,41
411,097	12,73
411,606	12,92
412,114	12,88
412,622	12,96
413,13	12,04
413,638	11,96
414,145	12,47
414,653	10,89
415,16	10,42
415,668	11,36
416,175	10,48
416,682	10,06
417,189	10,04
417,696	9,56
418,203	9,47
418,71	9,59
419,216	9,73
419,723	9,02
420,229	9,04
420,735	8,25
421,242	9,41
421,748	9,1
422,254	9,47
422,759	9,1
423,265	8,31
423,771	8,29
424,276	8,78
424,781	8,5
425,287	8,47
425,792	8,11
426,297	7,66
426,802	8,54
427,306	8,64
427,811	8,5
428,316	8,27
428,82	8,19
429,324	8,36
429,829	9,02
430,333	8,05
430,837	8,61
431,34	8,06
431,844	7,31
432,348	7,63
432,851	8,12
433,355	7,04
433,858	7,79
434,361	8,08
434,864	7,63
435,367	7,84
435,87	7,6
436,373	7,28
436,876	7,92
437,378	7,79
437,88	7,67
438,383	7,68
438,885	8,16
439,387	7,94
439,889	7,79
440,391	7,97
440,892	7,82
441,394	7,56
441,896	7,58
442,397	7,85
442,898	7,59
443,399	7,82
443,9	7,92
444,401	7,72
444,902	8
445,403	7,7
445,903	8,24
446,404	7,47
446,904	7,59
447,405	7,74
447,905	8,3
448,405	7,7
448,905	8,4
449,404	7,73
449,904	7,83
450,404	7,55
450,903	8,02
451,403	7,43
451,902	8,05
452,401	7,76
452,9	7,91
453,399	8,35
453,898	8,32
454,396	8,33
454,895	8,61
455,393	8,39
455,892	8,18
456,39	7,66
456,888	8,3
457,386	8,04
457,884	8,09
458,382	8,02
458,879	8,19
459,377	8,28
459,874	8,23
460,372	8,22
460,869	7,93
461,366	8
461,863	8,59
462,36	8,08
462,857	8,15
463,353	8,5
463,85	8
464,346	7,52
464,843	8,52
465,339	8,47
465,835	8,03
466,331	8,79
466,827	8,5
467,323	8,26
467,818	8,17
468,314	8,14
468,809	8,41
469,305	7,94
469,8	8,03
470,295	8,44
470,79	8,49
471,285	8,03
471,78	8,15
472,274	8,14
472,769	8,32
473,263	8
473,758	8,03
474,252	8,61
474,746	8,17
475,24	8,11
475,734	8,47
476,228	8,25
476,721	8,17
477,215	8,17
477,708	8,68
478,202	8,64
478,695	8,64
479,188	8,27
479,681	8,34
480,174	8,31
480,667	8,11
481,159	8,55
481,652	8,17
482,144	8,58
482,637	8,39
483,129	8,49
483,621	8,72
484,113	8,26
484,605	8,75
485,097	8,54
485,588	8,64
486,08	8,25
486,571	8,43
487,063	8,7
487,554	8,82
488,045	8,44
488,536	8,67
489,027	8,74
489,518	8,85
490,008	8,73
490,499	8,87
490,989	8,96
491,48	8,86
491,97	8,59
492,46	8,6
492,95	9,09
493,44	9,07
493,93	8,71
494,419	9,29
494,909	9,18
495,398	9,31
495,888	9,12
496,377	9,33
496,866	9,4
497,355	9,37
497,844	9,6
498,333	9,93
498,821	10,47
499,31	10,15
499,798	10,17
500,287	10,68
500,775	10,65
501,263	10,49
501,751	10,51
502,239	11
502,727	11,09
503,215	11,07
503,702	11,99
504,19	12,04
504,677	11,72
505,164	11,9
505,651	12,47
506,139	12,12
506,625	13,06
507,112	13,02
507,599	12,93
508,086	13,76
508,572	14,05
509,058	13,98
509,545	13,99
510,031	14,56
510,517	15,44
511,003	15,43
511,489	15,59
511,974	16,09
512,46	16,16
512,946	16,72
513,431	16,59
513,916	17,15
514,401	17,23
514,887	18,25
515,371	18,38
515,856	18,67
516,341	19,53
516,826	19,63
517,31	20,22
517,795	20,53
518,279	21,21
518,763	21,34
519,247	21,45
519,731	22,14
520,215	22,83
520,699	22,9
521,182	23,43
521,666	24,37
522,149	24,71
522,633	24,9
523,116	25,28
523,599	26,03
524,082	26,32
524,565	26,87
525,048	27,16
525,53	27,54
526,013	27,58
526,495	28,28
526,978	28,68
527,46	29,18
527,942	29,98
528,424	30,58
528,906	30,39
529,388	30,66
529,87	30,39
530,351	31,32
530,833	31,32
531,314	31,63
531,795	32,41
532,277	32,46
532,758	32,44
533,238	33,16
533,719	32,64
534,2	33,18
534,681	33,36
535,161	33,27
535,642	33,95
536,122	33,94
536,602	34,21
537,082	34,2
537,562	34,04
538,042	33,69
538,522	34,51
539,001	34,09
539,481	34,39
539,96	34,93
540,44	34,39
540,919	34,96
541,398	34,99
541,877	34,94
542,356	34,74
542,835	35,04
543,313	35,42
543,792	34,9
544,27	35,16
544,749	34,98
545,227	35,46
545,705	35,62
546,183	35,69
546,661	35,4
547,139	35,1
547,616	35,99
548,094	35,82
548,571	36,09
549,049	36,3
549,526	35,87
550,003	35,99
550,48	35,96
550,957	36,34
551,434	36,03
551,911	36,14
552,387	36,09
552,864	36,24
553,34	35,98
553,817	36,17
554,293	36,28
554,769	35,51
555,245	35,36
555,721	35,87
556,197	35,91
556,672	35,78
557,148	35,7
557,623	35,92
558,099	35,96
558,574	35,35
559,049	35,58
559,524	35,4
559,999	35,1
560,474	34,92
560,948	35,18
561,423	34,74
561,897	34,85
562,372	34,45
562,846	34,86
563,32	34,27
563,794	34,48
564,268	33,94
564,742	33,7
565,216	33,97
565,69	32,86
566,163	33,56
566,636	33,05
567,11	32,54
567,583	32,7
568,056	32,17
568,529	32,25
569,002	31,61
569,475	31,7
569,947	31,16
570,42	31,48
570,892	30,92
571,365	30,67
571,837	30,44
572,309	30,03
572,781	29,99
573,253	29,92
573,725	29,82
574,197	29,38
574,668	29,06
575,14	28,21
575,611	28,24
576,082	28,28
576,554	28,06
577,025	27,91
577,496	27,69
577,967	27,36
578,437	26,76
578,908	26,84
579,379	26,82
579,849	26,5
580,319	26,54
580,79	26
581,26	25,61
581,73	25,8
582,2	25,53
582,669	25,63
583,139	25,5
583,609	25,19
584,078	25,01
584,548	24,91
585,017	24,72
585,486	24,76
585,955	24,08
586,424	24,65
586,893	24,28
587,362	24,17
587,83	24,02
588,299	23,96
588,767	24,03
589,236	23,55
589,704	23,68
590,172	23,51
590,64	23,39
591,108	22,97
591,576	23,26
592,043	22,73
592,511	22,95
592,978	22,46
593,446	22,62
593,913	23,07
594,38	22,61
594,847	22,49
595,314	22,64
595,781	22,36
596,248	22,52
596,715	22,25
597,181	22,09
597,647	22,46
598,114	22,56
598,58	22,08
599,046	22,07
599,512	22,53
599,978	21,85
600,444	21,64
600,91	21,89
601,375	21,9
601,841	21,98
602,306	21,89
602,771	21,9
603,236	21,79
603,702	21,24
604,167	21,66
604,631	21,45
605,096	21,66
605,561	21,05
606,025	21,28
606,49	20,83
606,954	21,37
607,418	20,75
607,882	20,56
608,347	20,6
608,81	20,35
609,274	20,21
609,738	20,59
610,202	19,93
610,665	19,96
611,128	20,17
611,592	19,71
612,055	19,72
612,518	19,37
612,981	19,3
613,444	19,25
613,907	18,74
614,369	18,88
614,832	18,73
615,294	18,69
615,757	18,67
616,219	18,54
616,681	18,29
617,143	17,94
617,605	17,91
618,067	17,99
618,529	17,98
618,99	17,74
619,452	17,56
619,913	17,61
620,375	17,56
620,836	17,22
621,297	17,44
621,758	17,23
622,219	17,09
622,68	16,83
623,14	16,87
623,601	16,99
624,061	16,87
624,522	16,74
624,982	16,85
625,442	16,75
625,902	16,63
626,362	16,64
626,822	16,48
627,282	16,83
627,742	16,67
628,201	16,33
628,661	16,4
629,12	16,68
629,579	16,56
630,038	16,4
630,497	16,33
630,956	16,38
631,415	16,45
631,874	16,12
632,332	16,23
632,791	16,32
633,249	16,15
633,708	16,22
634,166	15,95
634,624	15,95
635,082	15,89
635,54	15,95
635,998	15,56
636,455	15,43
636,913	15,81
637,37	15,29
637,828	15,23
638,285	15,24
638,742	14,98
639,199	14,84
639,656	14,71
640,113	14,42
640,57	14,34
641,027	14,18
641,483	14,04
641,94	13,83
642,396	13,69
642,852	13,58
643,309	13,49
643,765	13,59
644,221	13,21
644,676	13,08
645,132	13,07
645,588	12,81
646,043	12,61
646,499	12,52
646,954	12,42
647,409	12,08
647,864	12,05
648,319	12,05
648,774	12,03
649,229	11,67
649,684	11,56
650,139	11,34
650,593	11,59
651,047	11,43
651,502	11,48
651,956	11,07
652,41	11,17
652,864	11,01
653,318	10,97
653,772	10,88
654,225	10,85
654,679	10,87
655,133	10,89
655,586	10,79
656,039	10,86
656,492	10,51
656,946	10,63
657,399	10,41
657,851	10,29
658,304	10,36
658,757	10,24
659,209	9,95
659,662	9,94
660,114	9,87
660,567	9,68
661,019	9,48
661,471	9,46
661,923	9,46
662,375	9,16
662,826	9,23
663,278	9,14
663,73	9,01
664,181	8,89
664,632	8,93
665,084	8,75
665,535	8,69
665,986	8,78
666,437	8,49
666,888	8,59
667,338	8,69
667,789	8,73
668,24	8,54
668,69	8,56
669,14	8,55
669,591	8,69
670,041	8,52
670,491	8,63
670,941	8,78
671,391	8,8
671,84	8,82
672,29	8,78
672,74	8,95
673,189	8,9
673,638	9,07
674,088	9,06
674,537	9,06
674,986	9,24
675,435	9,38
675,883	9,34
676,332	9,42
676,781	9,64
677,229	9,65
677,678	9,95
678,126	10,1
678,574	10,18
679,022	10,19
679,47	10,39
679,918	10,57
680,366	10,69
680,814	10,82
681,261	11,04
681,709	11,1
682,156	11,21
682,604	11,47
683,051	11,67
683,498	11,66
683,945	11,87
684,392	12,03
684,839	12,02
685,286	12,4
685,732	12,59
686,179	12,8
686,625	13,1
687,071	13,18
687,518	13,42
687,964	13,71
688,41	14,03
688,856	14,42
689,301	14,79
689,747	15,21
690,193	15,61
690,638	16,19
691,084	16,66
691,529	17,24
691,974	17,62
692,419	18,71
692,864	19,11
693,309	19,9
693,754	20,62
694,199	21,39
694,643	22,27
695,088	22,7
695,532	23,83
695,977	24,61
696,421	25,73
696,865	26,27
697,309	26,89
697,753	28,09
698,197	29,19
698,64	29,94
699,084	30,79
699,527	31,66
699,971	32,57
700,414	33,24
700,857	34,15
701,3	35,11
701,743	35,98
702,186	36,96
702,629	37,75
703,072	38,7
703,515	39,67
703,957	39,94
704,399	41,19
704,842	41,69
705,284	42,75
705,726	43,65
706,168	44,38
706,61	45,07
707,052	45,67
707,494	46,86
707,935	47,11
708,377	47,95
708,818	48,89
709,26	50,13
709,701	50,68
710,142	51,36
710,583	51,4
711,024	52,59
711,465	53
711,905	53,87
712,346	54,33
712,787	54,79
713,227	55,92
713,667	56,43
714,108	57,44
714,548	57,84
714,988	58,18
715,428	58,68
715,868	59,09
716,307	60,09
716,747	60,45
717,186	61,32
717,626	61,73
718,065	62,22
718,504	62,73
718,944	62,96
719,383	63,82
719,822	64,21
720,261	65,01
720,699	65,58
721,138	65,77
721,576	66,34
722,015	66,99
722,453	66,99
722,892	67,93
723,33	67,94
723,768	68,42
724,206	69,24
724,644	69,11
725,081	69,94
725,519	69,46
725,957	70,51
726,394	70,91
726,832	71,29
727,269	71,2
727,706	72,32
728,143	71,57
728,58	72,28
729,017	72,63
729,454	72,97
729,89	73,35
730,327	73,71
730,764	74,04
731,2	74,02
731,636	74,06
732,072	74,06
732,509	74,85
732,945	75,13
733,38	75,51
733,816	75,34
734,252	76,04
734,688	75,98
735,123	75,86
735,559	76,65
735,994	76,65
736,429	75,96
736,864	76,65
737,299	76,29
737,734	76,52
738,169	77,15
738,604	77,44
739,038	77,47
739,473	77,06
739,907	77,15
740,342	77,49
740,776	77,65
741,21	78,22
741,644	78,09
742,078	78,01
742,512	78,56
742,946	78,15
743,379	77,85
743,813	78,71
744,246	78,25
744,68	78,81
745,113	78,85
745,546	78,62
745,979	78,69
746,412	78,74
746,845	78,24
747,278	78,38
747,711	78,5
748,143	78,16
748,576	78,56
749,008	78,57
749,441	78,81
749,873	79,05
750,305	78,7
750,737	78,78
751,169	78,71
751,601	78,89
752,032	78,58
752,464	79,07
752,896	78,6
753,327	78,5
753,758	79,07
754,19	78,88
754,621	79,04
755,052	78,55
755,483	78,66
755,914	78,8
756,344	79,04
756,775	78,56
757,206	78,58
757,636	79,12
758,066	78,74
758,497	78,46
758,927	78,42
759,357	78,82
759,787	78,66
760,217	79,05
760,647	78,74
761,076	78,83
761,506	78,77
761,935	78,87
762,365	78,54
762,794	78,49
763,223	78,36
763,653	78,53
764,082	78,48
764,51	78,3
764,939	78,35
765,368	78,7
765,797	78,2
766,225	78,58
766,654	78,54
767,082	78,21
767,51	78,49
767,938	78,36
768,367	78,39
768,795	78,37
769,222	78,1
769,65	78,59
770,078	78,22
770,505	78,37
770,933	78,31
771,36	78,02
771,788	78,47
772,215	78,14
772,642	78,11
773,069	77,83
773,496	78,23
773,923	77,78
774,349	78,27
774,776	78,36
775,203	77,73
775,629	78,35
776,055	78,03
776,482	78,18
776,908	77,36
777,334	77,83
777,76	78,52
778,186	77,92
778,611	77,99
779,037	77,87
779,463	78,11
779,888	77,85
780,314	77,94
780,739	78,19
781,164	77,69
781,589	77,82
782,014	77,94
782,439	77,72
782,864	77,91
783,289	77,89
783,713	78,18
784,138	77,54
784,562	78,4
784,987	77,87
785,411	77,61
785,835	77,85
786,259	77,52
786,683	77,95
787,107	77,7
787,531	77,79
787,954	77,89
788,378	77,32
788,802	77,73
789,225	77,99
789,648	77,81
790,071	77,93
790,495	78,37
790,918	77,78
791,34	77,72
791,763	78,22
792,186	77,76
792,609	77,74
793,031	77,95
793,454	77,65
793,876	77,77
794,298	77,41
794,721	77,87
795,143	77,93
795,565	77,8
795,986	78,18
796,408	77,47
796,83	78,33
797,252	77,74
797,673	77,89
798,094	77,56
798,516	77,71
798,937	77,74
799,358	77,77
799,779	77,78
800,2	77,64
800,621	77,52
801,042	78,27
801,462	77,78
801,883	77,42
802,303	77,1
802,724	77,36
803,144	77,67
803,564	77,59
803,984	77,48
804,404	78,37
804,824	77,82
805,244	77,75
805,664	78,08
806,084	77,97
806,503	77,4
806,923	77,71
807,342	77,64
807,761	77,84
808,18	77,89
808,599	77,51
809,018	77,33
809,437	77,95
809,856	77,62
810,275	78,75
810,693	77,48
811,112	77,71
811,53	77,64
811,949	77,76
812,367	77,61
812,785	77,36
813,203	77,5
813,621	77,3
814,039	77,81
814,457	78,16
814,874	78,21
815,292	77,68
815,709	78,03
816,127	77,45
816,544	77,93
816,961	77,42
817,378	77,36
817,795	77,94
818,212	77,69
818,629	77,37
819,046	77,9
819,462	77,44
819,879	78,15
820,295	78,36
820,712	77,47
821,128	78
821,544	77,74
821,96	77,44
822,376	77,4
822,792	77,36
823,208	77,73
823,624	77,55
824,039	77,64
824,455	77,79
824,87	77,7
825,286	78,09
825,701	77,49
826,116	78,1
826,531	77,58
826,946	77,51
827,361	77,16
827,776	76,79
828,19	77,28
828,605	77,65
829,02	78,01
829,434	77,97
829,848	78,07
830,263	77,15
830,677	77,81
831,091	77,8
831,505	77,75
831,919	77,53
832,332	77,53
832,746	78,26
833,16	77,95
833,573	77,49
833,987	77,19
834,4	77,58
834,813	77,46
835,226	77,42
835,639	77,87
836,052	77,63
836,465	77,35
836,878	77,34
837,29	77,86
837,703	77,48
838,116	77,58
838,528	77,69
838,94	77,6
839,352	77,72
839,765	77,98
840,177	78,14
840,589	76,91
841	77,28
841,412	77,58
841,824	77,37
842,235	77,64
842,647	77,55
843,058	77,41
843,47	77,98
843,881	77,94
844,292	77,37
844,703	77,36
845,114	77,41
845,525	77,56
845,935	77,59
846,346	77,5
846,757	76,95
847,167	78,08
847,577	77,53
847,988	77,24
848,398	77,99
848,808	77,54
849,218	77,65
849,628	77,1
850,038	77,34
850,448	77,21
850,857	77,8
851,267	77,58
851,676	77,4
852,086	77,69
852,495	77,44
852,904	77,94
853,313	77,16
853,722	77,44
854,131	76,99
854,54	77,22
854,949	77,71
855,357	77,38
855,766	77,48
856,174	77,56
856,583	77,8
856,991	77,49
857,399	77,14
857,807	77,09
858,215	77,35
858,623	77,03
859,031	77,12
859,439	78,36
859,846	77,45
860,254	77,69
860,661	77,44
861,069	77,15
861,476	77,37
861,883	77,34
862,29	77,49
862,697	77,4
863,104	76,92
863,511	77,06
863,918	76,97
864,325	76,95
864,731	77,27
865,138	77,29
865,544	77,17
865,95	77,7
866,357	76,73
866,763	77,61
867,169	76,95
867,575	76,98
867,98	77,26
868,386	77,73
868,792	77,54
869,197	77
869,603	77,75
870,008	77,33
870,414	77,3
870,819	77,53
871,224	77,58
871,629	77,89
872,034	78,06
872,439	77,05
872,844	77,62
873,248	77,42
873,653	77,23
874,057	77,44
874,462	77,03
874,866	78,17
875,27	76,94
875,674	77,46
876,078	77,75
876,482	77,22
876,886	77,33
877,29	77,39
877,694	77,47
878,097	77,02
878,501	77,42
878,904	76,78
879,308	77
879,711	77,14
880,114	77,29
880,517	77,09
880,92	77,11
881,323	77,68
881,726	77,63
882,128	78,07
882,531	77,87
882,934	77,14
883,336	77,11
883,738	77,16
884,141	77,7
884,543	76,98
884,945	77,34
885,347	77,46
885,749	76,77
886,151	77,36
886,552	77,37
886,954	77,46
887,355	77,56
887,757	77,05
888,158	77,08
888,56	76,96
888,961	77,25
889,362	77,56
889,763	77,29
890,164	76,98
890,565	77,15
890,965	77,66
891,366	77,68
891,767	77,48
892,167	76,82
892,567	77,15
892,968	77,57
893,368	77,09
893,768	77,35
894,168	77,42
894,568	77,85
894,968	77,25
895,368	77,06
895,767	77,18
896,167	77,54
896,566	77,11
896,966	77,06
897,365	77,37
897,764	77,26
898,164	77,38
898,563	77,79
898,962	76,98
899,361	77,22
899,759	77,33
900,158	77,24
900,557	77,4
900,955	77,07
901,354	77,05
901,752	76,78
902,15	77,22
902,548	77,91
902,947	76,75
903,345	77,62
903,742	77,31
904,14	76,89
904,538	76,85
904,936	77,11
905,333	77,23
905,731	77,44
906,128	77,33
906,525	76,79
906,923	77,46
907,32	77,64
907,717	76,85
908,114	76,98
908,511	77,24
908,907	76,98
909,304	76,91
909,701	76,83
910,097	76,79
910,494	77,26
910,89	77,1
911,286	77,19
911,682	77,18
912,078	77,17
912,474	76,59
912,87	77,54
913,266	76,89
913,662	76,93
914,058	77,39
914,453	77,17
914,849	77,28
915,244	77,11
915,639	77,56
916,034	76,43
916,43	77,59
916,825	76,85
917,22	76,71
917,614	77,01
918,009	76,99
918,404	77,18
918,798	76,93
919,193	77,4
919,587	77,04
919,982	77,41
920,376	76,52
920,77	76,67
921,164	77,18
921,558	76,7
921,952	76,9
922,346	76,6
922,74	77,3
923,133	77,22
923,527	76,99
923,92	76,95
924,314	76,92
924,707	77,41
925,1	76,66
925,493	77,09
925,886	76,95
926,279	76,6
926,672	76,88
927,065	76,78
927,457	76,75
927,85	76,7
928,243	76,49
928,635	76,03
929,027	76,08
929,42	76,57
929,812	76,01
930,204	76,72
930,596	76,4
930,988	75,89
931,379	77,31
931,771	76,43
932,163	76,18
932,554	76,19
932,946	76,16
933,337	76,01
933,729	76,43
934,12	76,63
934,511	76,48
934,902	76,61
935,293	76,32
935,684	75,98
936,075	76,49
936,465	76,15
936,856	76,62
937,246	76,66
937,637	75,29
938,027	76,54
938,417	76,08
938,808	76,46
939,198	76,43
939,588	76,11
939,978	75,48
940,368	77,05
940,757	76,17
941,147	76,68
941,537	75,28
941,926	75,85
942,315	75,49
942,705	75,88
943,094	75,14
943,483	75,11
943,872	76,44
944,261	75,47
944,65	75,79
945,039	75,67
945,428	75,5
945,816	75,76
946,205	74,69
946,593	74,88
946,982	74,72
947,37	74,64
947,758	75,74
948,146	75,8
948,534	75,54
948,922	74,04
949,31	74,41
949,698	75,44
950,086	73,77
950,473	74,57
950,861	74,53
951,248	73,39
951,636	74,39
952,023	73,67
952,41	73,93
952,797	73,96
953,184	73,34
953,571	73,74
953,958	74,4
954,345	74,41
954,731	74,27
955,118	74,01
955,505	74,25
955,891	73,25
956,277	73,76
956,664	74,03
957,05	74,44
957,436	73,17
957,822	72,25
958,208	73,43
958,594	72,15
958,979	72,29
959,365	73,41
959,751	72,98
960,136	72,36
960,522	73,52
960,907	72,8
961,292	73,74
961,677	72,78
962,062	73,75
962,447	73,3
962,832	73,29
963,217	72,7
963,602	72,01
963,986	72,28
964,371	71,88
964,756	72,79
965,14	72,83
965,524	72,88
965,908	72,93
966,293	72,74
966,677	72,44
967,061	72,77
967,445	72,45
967,828	72,72
968,212	72,83
968,596	73,6
968,979	72,6
969,363	72,55
969,746	72,92
970,129	73,16
970,513	72,94
970,896	72,67
971,279	72,65
971,662	73,69
972,045	72,51
972,428	71,82
972,81	72,59
973,193	72,71
973,575	71,94
973,958	72,2
974,34	72,67
974,723	72,84
975,105	72,9
975,487	72,58
975,869	73,32
976,251	72,82
976,633	71,89
977,015	72,38
977,396	72,37
977,778	72,61
978,16	73,09
978,541	72,34
978,922	72,1
979,304	72,82
979,685	72,32
980,066	73,01
980,447	72,78
980,828	72,92
981,209	72,23
981,59	71,62
981,97	71,56
982,351	72,9
982,732	73,55
983,112	71,87
983,493	73,06
983,873	72,62
984,253	73,09
984,633	72,72
985,013	72,75
985,393	72,8
985,773	72,72
986,153	72,81
986,533	72,68
986,912	73,02
987,292	72,79
987,671	72,22
988,051	72,04
988,43	72,82
988,809	72,46
989,188	72,25
989,567	72,62
989,946	72,85
990,325	72,55
990,704	72,41
991,083	73,14
991,461	72,56
991,84	73,09
992,218	72,41
992,597	73,55
992,975	73,23
993,353	72,84
993,732	73,39
994,11	73,28
994,488	72,66
994,866	74,13
995,243	72,81
995,621	72,77
995,999	73,07
996,376	73,45
996,754	73,21
997,131	73,72
997,509	72,6
997,886	71,88
998,263	72,57
998,64	73,34
999,017	72,67
999,394	73,03
999,771	73,19
1000,148	73,6
1000,524	74,29
1000,901	73,57
1001,277	73,38
1001,654	73,76
1002,03	72,77
1002,406	73,18
1002,783	73,21
1003,159	73,16
1003,535	72,37
1003,911	72,69
1004,286	73,61
1004,662	73,17
1005,038	73,59
1005,414	73,25
1005,789	73,78
1006,164	73,12
1006,54	73,59
1006,915	73,71
1007,29	73,04
1007,665	73,95
1008,04	73,88
1008,415	74
1008,79	74,37
1009,165	73,26
1009,54	73,8
1009,914	73,55
1010,289	74,23
1010,663	73,84
1011,038	75,15
1011,412	73,97
1011,786	73,8
1012,16	74,15
1012,535	72,84
1012,909	74,8
1013,282	74,13
1013,656	74,3
1014,03	73,89
1014,404	73,53
1014,777	73,67
1015,151	74,48
1015,524	73,65
1015,897	73,34
1016,271	74,15
1016,644	73,39
1017,017	75,12
1017,39	74,53
1017,763	74,23
1018,136	73,45
1018,508	74,85
1018,881	74,31
1019,254	74,47
1019,626	73,6
1019,999	74,16
1020,371	74,96
1020,743	74,54
1021,116	74,89
1021,488	73,85
1021,86	74,98
1022,232	75,33
1022,604	74,08
1022,975	74,62
1023,347	74,29
1023,719	75,34
1024,09	74,24
1024,462	74,82
1024,833	74,02
1025,204	75,61
1025,576	73,6
1025,947	74,95
1026,318	74,36
1026,689	73,75
1027,06	73,28
1027,431	74,4
1027,801	73,49
1028,172	75,08
1028,543	74,91
1028,913	75,34
1029,284	74,66
1029,654	74,53
1030,024	74,5
1030,394	74,97
1030,764	74,96
1031,135	74,39
1031,504	75,47
1031,874	74,4
1032,244	75,21
1032,614	75,57
1032,983	74,68
1033,353	74,85
1033,722	75,22
1034,092	75,36
1034,461	74,91
1034,83	75,89
1035,2	74,93
1035,569	74,93
1035,938	74,81
1036,307	75,93
1036,675	74,66
1037,044	74,55
1037,413	74,35
1037,781	75,16
1038,15	74,12
1038,518	74,3
1038,887	74,93
1039,255	75,14
1039,623	75,55
1039,991	76,67
1040,359	76,01
1040,727	75,41
1041,095	75,41
1041,463	74,36
1041,831	75,46
1042,198	75,09
1042,566	75,42
1042,933	75,78
1043,301	74,84
1043,668	75,05
1044,035	74,9
1044,402	76,37
1044,77	76,87
1045,137	76,83
1045,503	75,46
1045,87	76,26
1046,237	76,33
1046,604	75,02
1046,97	76,64
1047,337	75,48
1047,703	74,15
1048,07	74,98
1048,436	75,56
1048,802	75,6
1049,168	76,55
1049,534	75,34
1049,9	75,25
1050,266	73,61
1050,632	76,28
1050,998	75,42
1051,364	76,31
1051,729	74,91
1052,095	75,05
1052,46	76,41
1052,825	77,41
1053,191	76,49
1053,556	76,34
1053,921	77,29
1054,286	76,3
1054,651	75,47
1055,016	75,16
1055,381	75,23
1055,745	76,35
1056,11	77,9
1056,475	75
1056,839	76,82
1057,203	76,58
1057,568	75,89
1057,932	77,61
1058,296	77,78
1058,66	74,53
1059,024	76,02
1059,388	75,09
1059,752	74,54
1060,116	75,1
1060,48	75,36
1060,843	76,04
1061,207	76,74
1061,57	77,58
1061,934	77,04
1062,297	77,17
1062,66	78,09
1063,023	75,49
1063,386	75,32
1063,749	76,78
1064,112	75,01
1064,475	74,95
1064,838	75,54
1065,201	73,79
1065,563	76,95
1065,926	76,14
1066,288	76,81
1066,651	75,58
1067,013	73,93
1067,375	77,03
1067,737	75,66
1068,099	75,12
1068,461	76,56
1068,823	77,39
1069,185	76,46
1069,547	76,65
1069,909	75,53
1070,27	74,98
1070,632	77,24
1070,993	74,32
1071,355	74,77
1071,716	76,1
1072,077	77,66
1072,438	73,86
1072,799	74,91
1073,16	77,42
1073,521	75,78
1073,882	78,12
1074,243	75,7
1074,603	75,32
1074,964	75
1075,325	77,73
1075,685	76,15
1076,045	77,18
1076,406	74,15
1076,766	75,98
1077,126	75,6
1077,486	75,49
1077,846	74,47
1078,206	76,03
1078,566	76,72
1078,925	77,49
1079,285	74,34
1079,645	75,71
1080,004	76,11
1080,364	75,56
1080,723	75,9
1081,082	72,69
1081,442	76,34
1081,801	74,58
1082,16	77,15
1082,519	76,07
1082,878	76,63
1083,237	76,72
1083,595	74,84
1083,954	72,99
1084,313	77,31
1084,671	73,57
1085,03	74,18
1085,388	77,28
1085,746	74,89
1086,104	75,69
1086,463	77,38
1086,821	74,9
1087,179	76,89
1087,537	76,26
1087,894	77,67
1088,252	71,51
1088,61	77,59
1088,967	76,54
1089,325	74,32
1089,682	75,03
1090,04	73,55
1090,397	77,83
1090,754	75,94
1091,111	75,82
1091,469	75,01
1091,826	75,95
1092,182	77,11
1092,539	76,51
1092,896	75,23
1093,253	73,61
1093,609	73,34
1093,966	77,22
1094,322	75,11
1094,679	78,08
1095,035	74,66
1095,391	73,71
1095,748	77,9
1096,104	74,66
1096,46	76,77
1096,816	73,42
1097,171	77,71
1097,527	77,81
1097,883	76,61
1098,239	73,67
1098,594	73,54
1098,95	73,88
1099,305	72,47
1099,66	76,02
1100,016	71,94
1100,371	77,95
1100,726	75,62
1101,081	73,41
1101,436	72,38
1101,791	75,04
1102,146	76,04
1102,5	75,81
1102,855	76,25
1103,21	75,99
1103,564	74,95
1103,918	71,66
1104,273	78,03
1104,627	76,34
1104,981	74,36
1105,335	74,92
1105,69	75,25
1106,043	78,72
1106,397	75,91
1106,751	74,41
1107,105	74,93
1107,459	73,99
1107,812	73,4
1108,166	78,04
1108,519	78,04
1108,873	78,65
1109,226	72,69
1109,579	72,84
1109,932	72,39
1110,285	69,1
1110,638	76,54
1110,991	76,72
1111,344	77,65
1111,697	76,4
1112,05	72,53
1112,402	77,21
1112,755	77,82
1113,107	75,12
1113,46	79,3
1113,812	78,23
1114,164	75,75
1114,517	73,69
1114,869	94,12
1115,221	73,26
1115,573	66,02
1115,924	81,82
