Data from A_6_0_Relative__8__00018.txt Node

Date: Mon Jan 29 12:46:33 CET 2024
User: diatiterra
Spectrometer: HDX00911
Trigger mode: 0
Integration Time (sec): 6,000000E-3
Scans to average: 4
Nonlinearity correction enabled: false
Boxcar width: 0
Storing dark spectrum: false
XAxis mode: Wavelengths
Number of Pixels in Spectrum: 2068
>>>>>Begin Spectral Data<<<<<
194,468	91,78
195,025	111,27
195,581	131,82
196,138	105,17
196,694	91,03
197,251	89,84
197,807	91,35
198,363	88,89
198,919	84,49
199,474	86,3
200,03	80,18
200,586	75
201,141	80,6
201,696	79,65
202,251	82,27
202,806	80
203,361	84,47
203,916	73,08
204,471	88,67
205,025	87,12
205,58	93,69
206,134	86,49
206,688	74,79
207,242	79,41
207,796	84,14
208,35	78,64
208,904	80
209,457	87,94
210,011	90,87
210,564	87,39
211,117	82,95
211,67	69,71
212,223	85,02
212,776	85,9
213,329	81,89
213,881	71,98
214,434	94,3
214,986	80,43
215,538	85,25
216,09	101,01
216,642	88,26
217,194	82,11
217,746	89,12
218,297	79,46
218,849	81,33
219,4	81,74
219,951	80,5
220,502	81,25
221,053	78,99
221,604	88,89
222,155	79,73
222,705	69,2
223,256	83,98
223,806	83,56
224,356	75,82
224,906	72,89
225,456	82,02
226,006	80
226,556	84,4
227,106	86,92
227,655	96,07
228,204	85,65
228,754	80,41
229,303	86,84
229,852	79,03
230,401	82,43
230,949	85,22
231,498	71,55
232,047	81,74
232,595	86,77
233,143	80,69
233,691	80,16
234,239	66,09
234,787	91,82
235,335	84,77
235,883	84,3
236,43	81,94
236,978	74,77
237,525	72,68
238,072	94,69
238,619	86,67
239,166	86,7
239,713	81,98
240,26	68,24
240,806	77,29
241,353	72,17
241,899	82,86
242,445	73,66
242,991	81,25
243,537	77,23
244,083	89,45
244,629	72,32
245,174	102,27
245,72	80,85
246,265	83,48
246,81	85,58
247,355	69,51
247,9	84,1
248,445	87,1
248,99	78,33
249,534	75,1
250,079	90,78
250,623	92,89
251,168	76,58
251,712	72,8
252,256	91,71
252,8	85,65
253,343	74,88
253,887	89,61
254,43	84,06
254,974	88,66
255,517	74,27
256,06	80,89
256,603	79,1
257,146	88,6
257,689	74,81
258,232	71,62
258,774	69,73
259,317	78,17
259,859	77,17
260,401	83,48
260,943	100
261,485	87,38
262,027	88,61
262,569	78,79
263,11	85,04
263,652	93,14
264,193	70,73
264,734	84,65
265,275	69,55
265,816	79,82
266,357	80,09
266,898	97,01
267,438	86,73
267,979	83,48
268,519	77,87
269,059	75,6
269,6	87,61
270,14	79,81
270,68	82,08
271,219	70,08
271,759	78,64
272,298	81,72
272,838	87,2
273,377	84,62
273,916	80,28
274,455	75,23
274,994	80,36
275,533	79,91
276,072	82,02
276,61	83,33
277,149	76,92
277,687	71,56
278,225	76,78
278,763	76,31
279,301	59,32
279,839	80,7
280,377	75,63
280,914	69,4
281,452	85,71
281,989	89,22
282,526	98,13
283,064	91,18
283,601	71,3
284,137	79,64
284,674	77,94
285,211	79,57
285,747	72,65
286,284	72,48
286,82	72,65
287,356	80,35
287,892	87,5
288,428	72,1
288,964	82,3
289,5	94,81
290,035	81,4
290,571	76,44
291,106	86,67
291,641	74,88
292,176	81,82
292,711	82,05
293,246	84,4
293,781	77,46
294,315	78,53
294,85	78,11
295,384	69,55
295,918	89,42
296,453	71,64
296,987	58,47
297,52	83,81
298,054	83,5
298,588	71,86
299,121	72,14
299,655	68,63
300,188	76,63
300,721	82,16
301,254	82,69
301,787	75,45
302,32	72,12
302,853	84,8
303,385	80,08
303,918	90,45
304,45	67,63
304,982	79,73
305,514	87,3
306,046	63,37
306,578	73,58
307,11	79,23
307,641	69,78
308,173	75,63
308,704	82,3
309,236	71,36
309,767	74,79
310,298	74,78
310,829	73,48
311,359	57,87
311,89	82,01
312,421	79,68
312,951	82,16
313,481	74,06
314,012	81,82
314,542	88,89
315,072	71,89
315,601	72,48
316,131	73,76
316,661	60,91
317,19	70,94
317,72	82,38
318,249	74,65
318,778	69,08
319,307	69,08
319,836	69,51
320,365	77,88
320,893	74,46
321,422	71,1
321,95	79,08
322,479	78,07
323,007	76,47
323,535	78,28
324,063	71,56
324,591	73,58
325,118	80,43
325,646	78,03
326,173	77,99
326,701	78,41
327,228	76,13
327,755	70,79
328,282	83,61
328,809	76,35
329,336	86,01
329,862	65,09
330,389	69,64
330,915	73,36
331,441	87,18
331,968	77,6
332,494	76,3
333,02	65,48
333,545	77,09
334,071	69,34
334,597	71,01
335,122	79,19
335,648	82,01
336,173	71,56
336,698	65,47
337,223	105,82
337,748	74,25
338,272	84,74
338,797	80
339,322	68,83
339,846	78,76
340,37	76,27
340,894	71,03
341,419	72,08
341,942	78,51
342,466	78,69
342,99	82,76
343,514	80,33
344,037	87,24
344,56	65,28
345,084	64,49
345,607	80,49
346,13	61,2
346,653	66,92
347,175	63,08
347,698	72,18
348,221	70,87
348,743	73,58
349,265	73,68
349,787	72,76
350,309	64,6
350,831	71,06
351,353	79,93
351,875	90,38
352,397	70,86
352,918	69,85
353,439	74,22
353,961	67,24
354,482	62,28
355,003	71,64
355,524	75,57
356,044	73,81
356,565	74,65
357,086	66,32
357,606	59,52
358,126	81,73
358,646	67,24
359,167	65,44
359,687	64,31
360,206	75,16
360,726	58,65
361,246	70,38
361,765	83,56
362,285	65,28
362,804	65,76
363,323	64,26
363,842	62,22
364,361	73,85
364,88	59,94
365,398	69,5
365,917	67,74
366,435	72,92
366,954	57,29
367,472	64,3
367,99	66,57
368,508	69,82
369,026	67,92
369,544	63,27
370,061	70,44
370,579	64,89
371,096	77,02
371,613	64,08
372,131	66,75
372,648	58,29
373,165	65,65
373,681	60,14
374,198	62,93
374,715	63,91
375,231	63,12
375,747	65,86
376,264	61,57
376,78	71,24
377,296	58,9
377,812	64,56
378,327	67,8
378,843	59,26
379,359	62,22
379,874	63,97
380,389	59,74
380,905	61,17
381,42	56,59
381,935	57,5
382,449	58,36
382,964	54,27
383,479	58,33
383,993	58,67
384,508	53,75
385,022	59,57
385,536	51
386,05	52,6
386,564	52,91
387,078	51,67
387,592	51,61
388,105	51,77
388,619	54,03
389,132	47,87
389,645	47,39
390,158	50,63
390,671	49,41
391,184	47,6
391,697	47,7
392,21	50,34
392,722	48,87
393,235	46,37
393,747	45,13
394,259	48,57
394,771	47,42
395,283	42,78
395,795	45,43
396,307	44,93
396,818	44,82
397,33	44,77
397,841	42,88
398,353	43,26
398,864	43,86
399,375	39,65
399,886	41,14
400,397	39,16
400,907	38,05
401,418	39,72
401,928	36,46
402,439	35,04
402,949	39,8
403,459	33,74
403,969	35,08
404,479	34,75
404,989	31,88
405,498	33,69
406,008	32,93
406,517	33,09
407,027	31,63
407,536	30,76
408,045	29,56
408,554	31,62
409,063	28,49
409,572	29,09
410,08	28,78
410,589	27,15
411,097	25,29
411,606	24,68
412,114	22,74
412,622	24,52
413,13	23,97
413,638	23,05
414,145	21,64
414,653	21,58
415,16	22,65
415,668	20,81
416,175	20,59
416,682	19,5
417,189	19,45
417,696	18,52
418,203	19,54
418,71	19,12
419,216	17,68
419,723	19,45
420,229	19,14
420,735	17,17
421,242	17,31
421,748	17,82
422,254	18,88
422,759	17,3
423,265	16,41
423,771	17,23
424,276	16,95
424,781	16,74
425,287	17,21
425,792	17,28
426,297	16,6
426,802	17,61
427,306	17,46
427,811	16,34
428,316	17,03
428,82	16,34
429,324	17,15
429,829	17,68
430,333	16,46
430,837	16,68
431,34	17,31
431,844	16,16
432,348	16,47
432,851	16,51
433,355	16,52
433,858	16
434,361	16,07
434,864	16,09
435,367	15,52
435,87	16,31
436,373	15,12
436,876	15,88
437,378	15,76
437,88	16,23
438,383	15,68
438,885	16,12
439,387	16,16
439,889	16,18
440,391	16,09
440,892	15,57
441,394	16,5
441,896	16,25
442,397	15,28
442,898	16,27
443,399	15,74
443,9	16
444,401	16,04
444,902	16,09
445,403	15,76
445,903	15,33
446,404	15,79
446,904	16,21
447,405	15,57
447,905	16,12
448,405	16,78
448,905	16,06
449,404	16,43
449,904	15,93
450,404	15,92
450,903	16,08
451,403	15,36
451,902	16,28
452,401	16,54
452,9	16,39
453,399	16,28
453,898	17,07
454,396	16,23
454,895	17,21
455,393	16,6
455,892	15,88
456,39	16,69
456,888	17,18
457,386	16,36
457,884	16,32
458,382	16,44
458,879	16,08
459,377	16,23
459,874	16,29
460,372	16,32
460,869	15,69
461,366	16,68
461,863	17,14
462,36	16,44
462,857	16,32
463,353	16,99
463,85	16,93
464,346	16,77
464,843	16,34
465,339	17,14
465,835	16,26
466,331	16,77
466,827	16,41
467,323	16,47
467,818	16,92
468,314	16,55
468,809	16,79
469,305	17,01
469,8	16,2
470,295	16,79
470,79	17,2
471,285	16,93
471,78	17,18
472,274	16,34
472,769	16,59
473,263	16,6
473,758	16,6
474,252	16,97
474,746	16,7
475,24	17,08
475,734	16,47
476,228	16,4
476,721	16,65
477,215	16,93
477,708	16,63
478,202	16,99
478,695	16,75
479,188	16,55
479,681	16,44
480,174	17,17
480,667	17,11
481,159	16,79
481,652	17,13
482,144	16,81
482,637	17,48
483,129	16,89
483,621	16,98
484,113	17,21
484,605	17,22
485,097	17
485,588	16,76
486,08	16,94
486,571	16,83
487,063	17,26
487,554	17,1
488,045	16,62
488,536	17,19
489,027	16,78
489,518	17,05
490,008	17
490,499	17,34
490,989	17,54
491,48	17,75
491,97	17,5
492,46	17,25
492,95	18,05
493,44	17,85
493,93	17,77
494,419	17,77
494,909	17,16
495,398	17,97
495,888	17,3
496,377	18,03
496,866	18
497,355	18,8
497,844	18,32
498,333	18,58
498,821	18,47
499,31	18,36
499,798	18,53
500,287	19,14
500,775	18,99
501,263	18,78
501,751	19,13
502,239	19,4
502,727	19,22
503,215	19,92
503,702	20,23
504,19	19,93
504,677	20,08
505,164	20,33
505,651	20,17
506,139	20,72
506,625	21,23
507,112	21,18
507,599	20,97
508,086	21,4
508,572	21,78
509,058	22,1
509,545	22,11
510,031	22,71
510,517	23,6
511,003	23,04
511,489	23,48
511,974	23,73
512,46	23,95
512,946	24,55
513,431	24,42
513,916	25,5
514,401	25,73
514,887	25,91
515,371	26,41
515,856	26,43
516,341	27,5
516,826	27,36
517,31	28,01
517,795	28,41
518,279	29,37
518,763	29,57
519,247	29,44
519,731	30,43
520,215	30,89
520,699	31,84
521,182	31,66
521,666	32,03
522,149	33,14
522,633	33,3
523,116	33,73
523,599	34,39
524,082	35,16
524,565	35,19
525,048	36,09
525,53	36,24
526,013	36,13
526,495	37,07
526,978	37,36
527,46	37,6
527,942	38,29
528,424	38,26
528,906	39,08
529,388	38,89
529,87	39,05
530,351	39,98
530,833	40,29
531,314	40,61
531,795	41,28
532,277	41,52
532,758	40,9
533,238	41,8
533,719	41,85
534,2	42,1
534,681	42,44
535,161	42,58
535,642	42,8
536,122	43,31
536,602	42,61
537,082	42,57
537,562	43,08
538,042	43
538,522	43,01
539,001	43,62
539,481	43,19
539,96	44,05
540,44	43,65
540,919	43,62
541,398	44,3
541,877	43,56
542,356	43,51
542,835	44,29
543,313	44,38
543,792	44,48
544,27	44,7
544,749	44,63
545,227	44,78
545,705	45
546,183	44,91
546,661	44,53
547,139	44,36
547,616	45
548,094	45,31
548,571	44,56
549,049	45,13
549,526	45,5
550,003	45,36
550,48	44,6
550,957	45,49
551,434	45,13
551,911	45,21
552,387	45,78
552,864	45,09
553,34	45,33
553,817	44,99
554,293	45,54
554,769	45,18
555,245	44,93
555,721	45,19
556,197	45,03
556,672	44,59
557,148	45,05
557,623	45,63
558,099	44,85
558,574	44,93
559,049	44,75
559,524	44,9
559,999	44,38
560,474	44,4
560,948	44,7
561,423	44,08
561,897	44,4
562,372	44,12
562,846	43,92
563,32	43,11
563,794	43,85
564,268	43,23
564,742	43,7
565,216	42,9
565,69	42,34
566,163	42,45
566,636	41,93
567,11	41,6
567,583	42,01
568,056	41,2
568,529	41,05
569,002	40,79
569,475	40,75
569,947	40,16
570,42	39,68
570,892	39,83
571,365	39,61
571,837	39,09
572,309	38,5
572,781	38,52
573,253	38,28
573,725	38,43
574,197	38,06
574,668	37,34
575,14	37,08
575,611	36,82
576,082	37,02
576,554	36,66
577,025	36,39
577,496	35,93
577,967	36,1
578,437	35,8
578,908	35,6
579,379	34,81
579,849	35,02
580,319	34,75
580,79	34,51
581,26	34,17
581,73	34,08
582,2	33,32
582,669	33,69
583,139	34,24
583,609	33,31
584,078	33,24
584,548	33,29
585,017	33,37
585,486	32,87
585,955	32,67
586,424	33,05
586,893	32,03
587,362	32,36
587,83	32,09
588,299	32,5
588,767	31,79
589,236	32,13
589,704	31,88
590,172	31,53
590,64	31,99
591,108	31,81
591,576	31,47
592,043	31,36
592,511	31,38
592,978	31,2
593,446	30,73
593,913	31,46
594,38	30,62
594,847	31,09
595,314	30,83
595,781	30,68
596,248	30,66
596,715	30,56
597,181	30,59
597,647	30,25
598,114	30,53
598,58	30,66
599,046	30,27
599,512	30,63
599,978	30,01
600,444	30,54
600,91	30,17
601,375	30,03
601,841	30,06
602,306	29,89
602,771	29,75
603,236	29,89
603,702	29,45
604,167	29,74
604,631	29,39
605,096	29,52
605,561	28,99
606,025	29,35
606,49	29,24
606,954	29,14
607,418	28,75
607,882	28,52
608,347	28,79
608,81	28,48
609,274	28,31
609,738	27,97
610,202	27,88
610,665	27,54
611,128	27,86
611,592	27,61
612,055	27,79
612,518	27,07
612,981	27,07
613,444	27,19
613,907	26,82
614,369	26,82
614,832	26,75
615,294	26,57
615,757	26,66
616,219	26,2
616,681	25,69
617,143	25,78
617,605	25,75
618,067	26,06
618,529	25,86
618,99	25,46
619,452	25,48
619,913	25,35
620,375	25,29
620,836	25,13
621,297	25
621,758	24,83
622,219	24,78
622,68	24,63
623,14	24,76
623,601	24,45
624,061	25,06
624,522	24,6
624,982	24,58
625,442	24,5
625,902	24,45
626,362	24,63
626,822	24,29
627,282	24,38
627,742	24,33
628,201	24,37
628,661	24,45
629,12	24,35
629,579	24,18
630,038	24,13
630,497	24,31
630,956	23,96
631,415	23,96
631,874	24,23
632,332	23,89
632,791	23,88
633,249	23,79
633,708	24,15
634,166	23,79
634,624	23,68
635,082	23,53
635,54	23,19
635,998	23,11
636,455	23,34
636,913	23,31
637,37	22,86
637,828	22,91
638,285	22,74
638,742	22,86
639,199	22,47
639,656	22,28
640,113	22,38
640,57	22,13
641,027	21,79
641,483	21,79
641,94	21,47
642,396	21,62
642,852	21,51
643,309	21,48
643,765	21,18
644,221	20,97
644,676	21,19
645,132	20,84
645,588	20,69
646,043	20,51
646,499	20,39
646,954	20,25
647,409	19,91
647,864	19,94
648,319	19,87
648,774	19,66
649,229	19,53
649,684	19,61
650,139	19,45
650,593	19,35
651,047	19,38
651,502	19,47
651,956	19,06
652,41	19,02
652,864	18,96
653,318	19,03
653,772	18,78
654,225	18,84
654,679	18,67
655,133	18,64
655,586	18,66
656,039	18,55
656,492	18,45
656,946	18,33
657,399	18,47
657,851	18,16
658,304	17,94
658,757	18,05
659,209	17,81
659,662	18,04
660,114	17,76
660,567	17,65
661,019	17,42
661,471	17,27
661,923	17,37
662,375	17,3
662,826	17,28
663,278	17,17
663,73	17
664,181	16,98
664,632	17,14
665,084	17,04
665,535	16,93
665,986	16,73
666,437	16,93
666,888	17,02
667,338	16,92
667,789	16,8
668,24	16,85
668,69	16,8
669,14	16,89
669,591	16,8
670,041	16,75
670,491	17,12
670,941	17,09
671,391	17,08
671,84	17,16
672,29	17,29
672,74	17,19
673,189	17,43
673,638	17,56
674,088	17,46
674,537	17,45
674,986	17,48
675,435	17,57
675,883	17,78
676,332	17,88
676,781	17,94
677,229	18
677,678	18,21
678,126	18,36
678,574	18,49
679,022	18,51
679,47	18,78
679,918	18,87
680,366	18,72
680,814	19,19
681,261	19,19
681,709	19,3
682,156	19,36
682,604	19,89
683,051	19,74
683,498	19,69
683,945	19,99
684,392	20,11
684,839	20,12
685,286	20,37
685,732	20,37
686,179	20,7
686,625	20,72
687,071	20,99
687,518	21,21
687,964	21,25
688,41	21,73
688,856	21,79
689,301	22,2
689,747	22,64
690,193	22,92
690,638	23,42
691,084	23,81
691,529	24,33
691,974	24,58
692,419	25,47
692,864	25,91
693,309	26,97
693,754	27,39
694,199	28
694,643	29,07
695,088	29,51
695,532	30,95
695,977	31,8
696,421	32,08
696,865	32,99
697,309	33,73
697,753	35,08
698,197	35,93
698,64	36,86
699,084	37,84
699,527	38,91
699,971	39,65
700,414	40,65
700,857	41,79
701,3	42,98
701,743	43,44
702,186	44,82
702,629	45,16
703,072	46,38
703,515	47,49
703,957	48,12
704,399	49,17
704,842	50,46
705,284	51,19
705,726	52,04
706,168	52,82
706,61	53,66
707,052	54,57
707,494	55,79
707,935	56,01
708,377	57,19
708,818	58,13
709,26	59,22
709,701	60,03
710,142	60,89
710,583	61,02
711,024	62,67
711,465	63,09
711,905	63,97
712,346	64,6
712,787	65,67
713,227	66,1
713,667	67,09
714,108	68,41
714,548	68,94
714,988	69,99
715,428	69,65
715,868	70,49
716,307	71,74
716,747	72,19
717,186	72,78
717,626	73,62
718,065	74,48
718,504	74,93
718,944	75,45
719,383	75,73
719,822	76,93
720,261	77,68
720,699	78,41
721,138	78,65
721,576	79,21
722,015	80,23
722,453	80,48
722,892	81,17
723,33	81,66
723,768	81,77
724,206	83,09
724,644	82,98
725,081	83,64
725,519	83,74
725,957	84,8
726,394	85,03
726,832	85,24
727,269	85,89
727,706	86,42
728,143	86,23
728,58	86,99
729,017	87,38
729,454	87,8
729,89	88,44
730,327	88,1
730,764	89,05
731,2	89,47
731,636	88,93
732,072	89,17
732,509	89,69
732,945	90,44
733,38	90,25
733,816	90,5
734,252	91,4
734,688	91,24
735,123	91,54
735,559	91,8
735,994	92,17
736,429	91,74
736,864	92,45
737,299	92,58
737,734	92,63
738,169	92,68
738,604	93,18
739,038	93,08
739,473	92,88
739,907	92,82
740,342	93,4
740,776	93,87
741,21	93,71
741,644	94,31
742,078	93,74
742,512	94,06
742,946	94,2
743,379	94,64
743,813	94,84
744,246	94,59
744,68	95,19
745,113	95,28
745,546	95,18
745,979	95,45
746,412	94,83
746,845	94,56
747,278	94,82
747,711	94,66
748,143	95,05
748,576	94,91
749,008	95,17
749,441	94,88
749,873	95,09
750,305	95,08
750,737	94,9
751,169	94,85
751,601	94,6
752,032	95,34
752,464	95,34
752,896	94,99
753,327	95,53
753,758	95,33
754,19	94,8
754,621	95,09
755,052	94,96
755,483	95,04
755,914	95,31
756,344	95,12
756,775	95,19
757,206	94,9
757,636	94,96
758,066	95,16
758,497	94,36
758,927	94,62
759,357	95,12
759,787	94,82
760,217	94,91
760,647	94,76
761,076	94,5
761,506	94,97
761,935	95,44
762,365	94,26
762,794	94,35
763,223	94,5
763,653	95,04
764,082	94,8
764,51	94,04
764,939	94,26
765,368	94,34
765,797	94,09
766,225	94,22
766,654	94,54
767,082	94,24
767,51	94,69
767,938	94,37
768,367	94,44
768,795	94,65
769,222	94,12
769,65	94,67
770,078	94,52
770,505	94,22
770,933	94,15
771,36	93,86
771,788	94,17
772,215	93,7
772,642	93,93
773,069	94,33
773,496	94,34
773,923	94,46
774,349	93,89
774,776	94,54
775,203	93,88
775,629	94,26
776,055	94,37
776,482	94,54
776,908	93,84
777,334	93,52
777,76	94,14
778,186	93,59
778,611	94,02
779,037	93,99
779,463	93,46
779,888	93,68
780,314	94,38
780,739	94,25
781,164	93,97
781,589	93,28
782,014	93,73
782,439	93,64
782,864	93,82
783,289	93,99
783,713	93,35
784,138	93,55
784,562	94,2
784,987	93,4
785,411	93,84
785,835	93,88
786,259	93,44
786,683	93,9
787,107	93,96
787,531	93,98
787,954	94,13
788,378	92,94
788,802	94,01
789,225	93,79
789,648	93,9
790,071	93,88
790,495	93,8
790,918	93,51
791,34	93,65
791,763	94,36
792,186	94,31
792,609	93,57
793,031	93,43
793,454	93,94
793,876	93,95
794,298	93,53
794,721	93,73
795,143	93,45
795,565	93,67
795,986	93,79
796,408	93,41
796,83	93,48
797,252	93,62
797,673	93,56
798,094	93,57
798,516	93,43
798,937	93,29
799,358	93,17
799,779	93,77
800,2	93,43
800,621	93,88
801,042	93,96
801,462	93,75
801,883	93,36
802,303	93,39
802,724	93,1
803,144	93,36
803,564	93,59
803,984	93,39
804,404	94,51
804,824	93,33
805,244	93,96
805,664	93,69
806,084	93,74
806,503	93,59
806,923	93,72
807,342	93,1
807,761	93,58
808,18	93,57
808,599	93,36
809,018	92,45
809,437	93,44
809,856	93,58
810,275	93,66
810,693	93,47
811,112	93,48
811,53	92,92
811,949	93,44
812,367	93,27
812,785	93,68
813,203	93,34
813,621	93,42
814,039	93,22
814,457	93,28
814,874	93,33
815,292	92,89
815,709	93,28
816,127	93,45
816,544	93,81
816,961	93,36
817,378	93,07
817,795	93,95
818,212	93,54
818,629	93,31
819,046	93,46
819,462	93,09
819,879	93,12
820,295	93,58
820,712	93,42
821,128	93,27
821,544	93,11
821,96	93,23
822,376	92,94
822,792	92,98
823,208	92,68
823,624	92,81
824,039	93,02
824,455	93,29
824,87	93,51
825,286	93,97
825,701	93,24
826,116	93,29
826,531	93,17
826,946	92,69
827,361	92,97
827,776	92,82
828,19	92,96
828,605	93,66
829,02	93,46
829,434	93,45
829,848	93,28
830,263	92,46
830,677	93,05
831,091	93,28
831,505	92,98
831,919	93,44
832,332	92,51
832,746	93,27
833,16	93,2
833,573	92,83
833,987	92,6
834,4	92,76
834,813	93,39
835,226	92,41
835,639	93,35
836,052	92,8
836,465	93,11
836,878	92,88
837,29	92,69
837,703	92,48
838,116	92,41
838,528	93,02
838,94	92,63
839,352	92,85
839,765	93,1
840,177	92,76
840,589	92,51
841	92,31
841,412	92,53
841,824	92,81
842,235	93,37
842,647	92,5
843,058	92,98
843,47	93,04
843,881	92,7
844,292	92,43
844,703	92,39
845,114	93,19
845,525	93,52
845,935	92,42
846,346	92,81
846,757	92,64
847,167	93,14
847,577	92,49
847,988	92,42
848,398	92,98
848,808	92,94
849,218	93,01
849,628	92,29
850,038	92,49
850,448	93,08
850,857	92,99
851,267	92,75
851,676	92,83
852,086	92,65
852,495	92,13
852,904	92,5
853,313	91,93
853,722	93,19
854,131	92,31
854,54	92,21
854,949	92,48
855,357	92,39
855,766	93,15
856,174	92,45
856,583	93,32
856,991	92,05
857,399	92,18
857,807	92,35
858,215	92,28
858,623	92,77
859,031	92,03
859,439	93,15
859,846	92,51
860,254	92,68
860,661	92,28
861,069	92,12
861,476	92,44
861,883	92,43
862,29	92,44
862,697	92,44
863,104	92,21
863,511	92,4
863,918	91,74
864,325	92,42
864,731	91,75
865,138	92,99
865,544	92,27
865,95	92,83
866,357	91,86
866,763	92,31
867,169	92,09
867,575	92,24
867,98	91,77
868,386	92,57
868,792	92,13
869,197	92,39
869,603	92,6
870,008	92,81
870,414	92,81
870,819	92,92
871,224	92,15
871,629	92,5
872,034	92,42
872,439	91,95
872,844	92,54
873,248	92,41
873,653	91,96
874,057	92,27
874,462	92,19
874,866	92,63
875,27	92,55
875,674	92,25
876,078	92,8
876,482	92,3
876,886	92,61
877,29	92,51
877,694	92,89
878,097	92,52
878,501	92,35
878,904	91,94
879,308	91,78
879,711	91,94
880,114	92,03
880,517	92,47
880,92	92,25
881,323	92,35
881,726	92,19
882,128	92,31
882,531	92,62
882,934	91,89
883,336	92,18
883,738	91,87
884,141	92,76
884,543	91,81
884,945	92,09
885,347	92,18
885,749	91,7
886,151	92,14
886,552	92,35
886,954	92,03
887,355	92,06
887,757	92,11
888,158	92,33
888,56	91,83
888,961	91,86
889,362	92,49
889,763	92,52
890,164	91,68
890,565	92,43
890,965	92,67
891,366	92,39
891,767	92,25
892,167	91,6
892,567	91,89
892,968	92,33
893,368	92,17
893,768	92,33
894,168	91,19
894,568	92,48
894,968	91,81
895,368	91,95
895,767	92,11
896,167	91,58
896,566	92,35
896,966	91,96
897,365	92,52
897,764	92,09
898,164	92,25
898,563	92,09
898,962	91,7
899,361	92,46
899,759	91,93
900,158	92,01
900,557	91,6
900,955	91,76
901,354	91,38
901,752	91,79
902,15	92,17
902,548	92,59
902,947	92,17
903,345	91,81
903,742	92,14
904,14	92,11
904,538	91,99
904,936	91,78
905,333	92,22
905,731	91,92
906,128	91,82
906,525	91,32
906,923	91,51
907,32	91,9
907,717	92,18
908,114	91,78
908,511	91
908,907	91,93
909,304	91,97
909,701	91,41
910,097	91,61
910,494	91,26
910,89	91,6
911,286	91,87
911,682	91,65
912,078	91,42
912,474	91,88
912,87	92,18
913,266	91,96
913,662	91,27
914,058	92,07
914,453	91,56
914,849	91,95
915,244	91,69
915,639	92,04
916,034	91,45
916,43	91,91
916,825	92,44
917,22	91,09
917,614	91,4
918,009	90,88
918,404	91,2
918,798	92,14
919,193	91,7
919,587	91,94
919,982	91,73
920,376	91,81
920,77	90,63
921,164	91,48
921,558	91,85
921,952	90,84
922,346	92,01
922,74	92,13
923,133	92,05
923,527	90,86
923,92	91,61
924,314	91,07
924,707	91,43
925,1	91,99
925,493	91,2
925,886	91,65
926,279	92,03
926,672	91,65
927,065	91,48
927,457	91,94
927,85	91,36
928,243	91,23
928,635	91,21
929,027	90,63
929,42	91,51
929,812	90,51
930,204	91,91
930,596	91,17
930,988	90,87
931,379	91,53
931,771	91,08
932,163	91,02
932,554	91,31
932,946	91,14
933,337	90,45
933,729	91,63
934,12	90,35
934,511	91,19
934,902	91,27
935,293	91,55
935,684	91,16
936,075	91,18
936,465	91,71
936,856	90,9
937,246	91,05
937,637	91,21
938,027	91,21
938,417	91,5
938,808	89,94
939,198	90,98
939,588	91,27
939,978	90,19
940,368	91,28
940,757	90,02
941,147	90,79
941,537	90,49
941,926	90,21
942,315	91,32
942,705	89,89
943,094	89,35
943,483	89,15
943,872	90,37
944,261	89,43
944,65	91,1
945,039	89,34
945,428	90,27
945,816	91,33
946,205	89,51
946,593	89,63
946,982	90,47
947,37	88,68
947,758	89,91
948,146	90,33
948,534	88,78
948,922	90,3
949,31	90,04
949,698	89,29
950,086	89,03
950,473	88,86
950,861	89,46
951,248	89,95
951,636	88,18
952,023	89,16
952,41	88,61
952,797	88,65
953,184	88,79
953,571	88,92
953,958	89,22
954,345	89,52
954,731	88,89
955,118	89,04
955,505	88,92
955,891	88,56
956,277	88,66
956,664	88,59
957,05	88,33
957,436	88,26
957,822	87,66
958,208	88,25
958,594	87,66
958,979	87,43
959,365	89,11
959,751	87,98
960,136	88,61
960,522	87,97
960,907	87,89
961,292	88,75
961,677	88,2
962,062	88,89
962,447	87,23
962,832	88,67
963,217	87,46
963,602	87,1
963,986	87,66
964,371	86,86
964,756	88,29
965,14	88,52
965,524	87,94
965,908	88,32
966,293	87,17
966,677	87,61
967,061	87,68
967,445	87,21
967,828	87,98
968,212	87,72
968,596	87,91
968,979	88,23
969,363	88,06
969,746	87,16
970,129	88,18
970,513	88,33
970,896	87,64
971,279	87,86
971,662	88,39
972,045	88,02
972,428	87,46
972,81	87,09
973,193	87,64
973,575	86,89
973,958	86,43
974,34	87,26
974,723	86,99
975,105	88,2
975,487	87,35
975,869	88,04
976,251	87,95
976,633	87,26
977,015	87,72
977,396	87
977,778	87,74
978,16	86,81
978,541	87,18
978,922	87,46
979,304	87,75
979,685	86,75
980,066	88,09
980,447	88,33
980,828	87,2
981,209	87,8
981,59	86,93
981,97	86,18
982,351	86,82
982,732	88,36
983,112	86,16
983,493	88,94
983,873	86,66
984,253	88,41
984,633	87,52
985,013	87,25
985,393	88,25
985,773	87,86
986,153	87,17
986,533	87,82
986,912	87,96
987,292	87,66
987,671	87,52
988,051	87,96
988,43	87,74
988,809	87,93
989,188	87,92
989,567	88,21
989,946	88,66
990,325	87,06
990,704	87,35
991,083	87,47
991,461	87,81
991,84	87,55
992,218	87,51
992,597	88,99
992,975	87,49
993,353	87,58
993,732	88,25
994,11	88,25
994,488	87,96
994,866	88,65
995,243	87,83
995,621	88,08
995,999	88,49
996,376	88,79
996,754	88,28
997,131	88,01
997,509	87,89
997,886	87,09
998,263	88,69
998,64	88,7
999,017	87,67
999,394	88,16
999,771	87,39
1000,148	87,82
1000,524	88,77
1000,901	88,28
1001,277	87,91
1001,654	88,34
1002,03	88,75
1002,406	88,18
1002,783	88,35
1003,159	87,95
1003,535	88,38
1003,911	87,28
1004,286	88,47
1004,662	88,19
1005,038	88,31
1005,414	87,82
1005,789	87,79
1006,164	87,78
1006,54	89,3
1006,915	88,65
1007,29	88,17
1007,665	87,75
1008,04	88,46
1008,415	88,75
1008,79	89,05
1009,165	87,79
1009,54	88,94
1009,914	88,18
1010,289	89,39
1010,663	88,5
1011,038	88,48
1011,412	88,82
1011,786	87,86
1012,16	88,29
1012,535	88,05
1012,909	89,82
1013,282	88,01
1013,656	88,73
1014,03	88,6
1014,404	87,59
1014,777	89,02
1015,151	88,89
1015,524	88,56
1015,897	88,9
1016,271	88,16
1016,644	89,08
1017,017	89,18
1017,39	89,79
1017,763	88,81
1018,136	87,83
1018,508	89,45
1018,881	88,85
1019,254	89,74
1019,626	88,52
1019,999	88,85
1020,371	89,84
1020,743	89,43
1021,116	90,21
1021,488	90,55
1021,86	88,87
1022,232	89,65
1022,604	90,09
1022,975	88,23
1023,347	88,61
1023,719	89,35
1024,09	90,39
1024,462	89,24
1024,833	89,5
1025,204	88,95
1025,576	88,43
1025,947	90,02
1026,318	89,38
1026,689	89,21
1027,06	88,65
1027,431	89,65
1027,801	89,56
1028,172	89,8
1028,543	89,18
1028,913	90,93
1029,284	89,3
1029,654	89
1030,024	90,16
1030,394	88,51
1030,764	89,48
1031,135	88,78
1031,504	88,86
1031,874	90,03
1032,244	89,07
1032,614	89,84
1032,983	89,74
1033,353	89,67
1033,722	90,17
1034,092	90,01
1034,461	89,79
1034,83	88,48
1035,2	91,4
1035,569	89,25
1035,938	88,68
1036,307	91,07
1036,675	90,4
1037,044	89,54
1037,413	88,7
1037,781	89,43
1038,15	88,44
1038,518	89,2
1038,887	88,98
1039,255	90,6
1039,623	91,3
1039,991	90,54
1040,359	89,7
1040,727	89,55
1041,095	91,21
1041,463	89,21
1041,831	88,15
1042,198	89,57
1042,566	89,39
1042,933	89,17
1043,301	89,74
1043,668	88,54
1044,035	88,86
1044,402	89,86
1044,77	90,97
1045,137	90,36
1045,503	90,86
1045,87	89,87
1046,237	90,48
1046,604	90,22
1046,97	90,09
1047,337	90,66
1047,703	88,28
1048,07	89,75
1048,436	89,94
1048,802	90,07
1049,168	89,8
1049,534	91,29
1049,9	90,16
1050,266	89,11
1050,632	90,67
1050,998	89,15
1051,364	88,96
1051,729	89,42
1052,095	89,12
1052,46	89,92
1052,825	91,87
1053,191	89,34
1053,556	90,93
1053,921	89,07
1054,286	89,94
1054,651	90,45
1055,016	89,47
1055,381	90,95
1055,745	90,18
1056,11	91,75
1056,475	90,1
1056,839	92,95
1057,203	91,22
1057,568	91,34
1057,932	92,84
1058,296	91,9
1058,66	89,9
1059,024	90,89
1059,388	88,86
1059,752	88,42
1060,116	89,39
1060,48	90,72
1060,843	89,28
1061,207	92,05
1061,57	90,75
1061,934	90,38
1062,297	88,77
1062,66	90,5
1063,023	91,53
1063,386	90,54
1063,749	91,4
1064,112	87,56
1064,475	91,33
1064,838	89,82
1065,201	89,13
1065,563	89,74
1065,926	91,38
1066,288	90,43
1066,651	89,96
1067,013	90,1
1067,375	91,6
1067,737	90,89
1068,099	89,88
1068,461	89,15
1068,823	91,63
1069,185	91,13
1069,547	90,54
1069,909	91,32
1070,27	89,64
1070,632	89,83
1070,993	89,94
1071,355	88,02
1071,716	88,7
1072,077	90,91
1072,438	88,73
1072,799	89,41
1073,16	90,58
1073,521	90,22
1073,882	90,35
1074,243	91,27
1074,603	92,15
1074,964	89,89
1075,325	90,02
1075,685	90,24
1076,045	89,68
1076,406	91,59
1076,766	90,96
1077,126	87,83
1077,486	90,05
1077,846	87,97
1078,206	90,43
1078,566	89,59
1078,925	91,66
1079,285	91,65
1079,645	91,39
1080,004	89,5
1080,364	92,67
1080,723	90,01
1081,082	88,3
1081,442	88,58
1081,801	91,92
1082,16	93,79
1082,519	90,74
1082,878	90,55
1083,237	92,53
1083,595	88,89
1083,954	87,91
1084,313	90,18
1084,671	87,58
1085,03	89,44
1085,388	92,79
1085,746	89,27
1086,104	90,33
1086,463	90,56
1086,821	90,42
1087,179	89,25
1087,537	91,11
1087,894	90,96
1088,252	90,07
1088,61	91,35
1088,967	94,04
1089,325	88,38
1089,682	91,29
1090,04	88,73
1090,397	90,58
1090,754	88,27
1091,111	91,47
1091,469	89,74
1091,826	90,93
1092,182	88,93
1092,539	89,89
1092,896	90,49
1093,253	89,98
1093,609	90,03
1093,966	93,91
1094,322	88,73
1094,679	90,5
1095,035	87,79
1095,391	88,68
1095,748	89,1
1096,104	89,07
1096,46	91,49
1096,816	89,23
1097,171	90
1097,527	88,27
1097,883	86,69
1098,239	90,41
1098,594	85,04
1098,95	85,84
1099,305	89,19
1099,66	91,38
1100,016	87,2
1100,371	90,44
1100,726	89,82
1101,081	86,4
1101,436	84,28
1101,791	89,9
1102,146	90,16
1102,5	86,4
1102,855	90,63
1103,21	91,1
1103,564	88,16
1103,918	86,76
1104,273	90,04
1104,627	90,35
1104,981	89,55
1105,335	89,19
1105,69	91,82
1106,043	90,02
1106,397	88,97
1106,751	91,16
1107,105	87,96
1107,459	90,03
1107,812	90,48
1108,166	91,19
1108,519	90,44
1108,873	89,08
1109,226	86
1109,579	86,98
1109,932	89,09
1110,285	86,05
1110,638	88,19
1110,991	94,7
1111,344	94,25
1111,697	90,39
1112,05	90,4
1112,402	88,42
1112,755	90,94
1113,107	87,08
1113,46	89,33
1113,812	90,45
1114,164	87,76
1114,517	87,77
1114,869	85,88
1115,221	90,7
1115,573	63,11
1115,924	93,18
