Data from C_6_0_Relative__8__00071.txt Node

Date: Mon Jan 29 12:55:49 CET 2024
User: diatiterra
Spectrometer: HDX00911
Trigger mode: 0
Integration Time (sec): 6,000000E-3
Scans to average: 4
Nonlinearity correction enabled: false
Boxcar width: 0
Storing dark spectrum: false
XAxis mode: Wavelengths
Number of Pixels in Spectrum: 2068
>>>>>Begin Spectral Data<<<<<
194,468	30,49
195,025	29,65
195,581	43,6
196,138	19,88
196,694	51,22
197,251	34,75
197,807	38,95
198,363	35,42
198,919	36,4
199,474	37,33
200,03	29,36
200,586	34,3
201,141	33,12
201,696	39,14
202,251	35,23
202,806	34,5
203,361	35,44
203,916	40,09
204,471	32,2
205,025	42,15
205,58	33,33
206,134	32,44
206,688	35,14
207,242	34,18
207,796	33,47
208,35	39,41
208,904	38,57
209,457	34,62
210,011	30,44
210,564	42,62
211,117	32,88
211,67	40,24
212,223	41,11
212,776	36,9
213,329	41,62
213,881	35,32
214,434	36,99
214,986	36,51
215,538	36,73
216,09	39,28
216,642	38,76
217,194	39,58
217,746	41,95
218,297	37,12
218,849	40,56
219,4	42,17
219,951	39,33
220,502	38,12
221,053	36,97
221,604	35,83
222,155	34,94
222,705	36,12
223,256	37,53
223,806	37,53
224,356	39,32
224,906	38,99
225,456	42,74
226,006	36,36
226,556	37,79
227,106	35,27
227,655	40,94
228,204	32,52
228,754	36,96
229,303	36,48
229,852	42,33
230,401	40,99
230,949	40
231,498	37,33
232,047	38,54
232,595	37,66
233,143	36,12
233,691	40,16
234,239	37,5
234,787	39,32
235,335	40,86
235,883	37,42
236,43	37,4
236,978	37,04
237,525	34,6
238,072	34,64
238,619	42,52
239,166	40,18
239,713	36,65
240,26	41,08
240,806	43,07
241,353	39,08
241,899	45,59
242,445	40
242,991	35,14
243,537	37,7
244,083	42,95
244,629	41,1
245,174	36,68
245,72	40
246,265	37,76
246,81	45,37
247,355	44,47
247,9	38,73
248,445	32,41
248,99	34,29
249,534	36,73
250,079	43,11
250,623	41,3
251,168	42,51
251,712	35,7
252,256	40
252,8	42,92
253,343	40,28
253,887	36,17
254,43	34,12
254,974	32,71
255,517	40,94
256,06	38,63
256,603	33,41
257,146	32,95
257,689	36,58
258,232	39,23
258,774	30,45
259,317	38,83
259,859	41,91
260,401	38,31
260,943	37,56
261,485	37,11
262,027	37,42
262,569	39,25
263,11	39,53
263,652	38,59
264,193	34,27
264,734	30,73
265,275	35,92
265,816	32,97
266,357	37,87
266,898	35,16
267,438	38,99
267,979	36,95
268,519	35,89
269,059	42,06
269,6	36,79
270,14	41,67
270,68	39,41
271,219	38,4
271,759	40,45
272,298	31,63
272,838	43,35
273,377	39,71
273,916	36,69
274,455	33,18
274,994	41,41
275,533	45,03
276,072	38,41
276,61	43,61
277,149	38,83
277,687	36,16
278,225	36,88
278,763	42,99
279,301	35,56
279,839	34,84
280,377	32,94
280,914	35,27
281,452	41,51
281,989	41,76
282,526	33,69
283,064	34,07
283,601	38,52
284,137	37,14
284,674	35,92
285,211	42,48
285,747	31,5
286,284	34,7
286,82	42,14
287,356	49,23
287,892	34,01
288,428	27,9
288,964	44,94
289,5	35,06
290,035	35,54
290,571	43,9
291,106	25,5
291,641	41,36
292,176	39,85
292,711	39,25
293,246	39,91
293,781	36,12
294,315	34,91
294,85	41,59
295,384	32,36
295,918	32,67
296,453	42,69
296,987	39,34
297,52	35,31
298,054	40,04
298,588	38,48
299,121	32,82
299,655	33,48
300,188	39,18
300,721	43,26
301,254	34,7
301,787	39,71
302,32	36,87
302,853	35,46
303,385	35,9
303,918	30,73
304,45	30,04
304,982	35,11
305,514	32,41
306,046	36,76
306,578	36,38
307,11	32,87
307,641	33,04
308,173	35
308,704	34,82
309,236	39,66
309,767	35,53
310,298	36,36
310,829	41,31
311,359	29,44
311,89	41,31
312,421	28,48
312,951	37,91
313,481	34,33
314,012	33,78
314,542	36,47
315,072	33,67
315,601	34,91
316,131	38,22
316,661	39,13
317,19	28,51
317,72	32,62
318,249	31,15
318,778	32,35
319,307	31,06
319,836	34,87
320,365	34,79
320,893	42,38
321,422	29,03
321,95	36,22
322,479	35,44
323,007	32,61
323,535	36,05
324,063	32,39
324,591	33,57
325,118	34,07
325,646	34,67
326,173	35,62
326,701	33,1
327,228	35,91
327,755	29,19
328,282	33,69
328,809	36,42
329,336	25,64
329,862	30,91
330,389	36,32
330,915	29,55
331,441	37,76
331,968	30,6
332,494	32,5
333,02	29,89
333,545	36,22
334,071	27,68
334,597	32,45
335,122	26,5
335,648	34,54
336,173	27,11
336,698	36,01
337,223	34,49
337,748	35,29
338,272	32,01
338,797	32,1
339,322	31,22
339,846	29,57
340,37	32,15
340,894	26,73
341,419	38,66
341,942	29,82
342,466	33,4
342,99	37,76
343,514	36,27
344,037	27,8
344,56	27,53
345,084	35,98
345,607	31,23
346,13	30,73
346,653	26,33
347,175	31,06
347,698	36,54
348,221	35,57
348,743	32,53
349,265	33,74
349,787	34,34
350,309	32,31
350,831	37,07
351,353	37,18
351,875	33,22
352,397	36,83
352,918	32,42
353,439	38,11
353,961	40
354,482	33,84
355,003	32,24
355,524	34,76
356,044	38,38
356,565	35,11
357,086	36,88
357,606	38,45
358,126	42,28
358,646	37,6
359,167	37,81
359,687	35,06
360,206	36,04
360,726	40,43
361,246	39,41
361,765	38,88
362,285	37,56
362,804	37,48
363,323	39,61
363,842	36,45
364,361	41,18
364,88	37,63
365,398	41,18
365,917	36,51
366,435	38,17
366,954	38,4
367,472	40,05
367,99	41,63
368,508	42,12
369,026	40,39
369,544	39,63
370,061	38,74
370,579	39,18
371,096	40,92
371,613	44,03
372,131	41,48
372,648	36,49
373,165	39,93
373,681	40,91
374,198	39,01
374,715	42,83
375,231	42,3
375,747	39,84
376,264	37,45
376,78	41,81
377,296	40,38
377,812	39,94
378,327	39,39
378,843	39,51
379,359	40,96
379,874	37,09
380,389	39,16
380,905	40,48
381,42	37,85
381,935	38,21
382,449	40,56
382,964	39,21
383,479	39,55
383,993	38,9
384,508	39,19
385,022	36,66
385,536	36,99
386,05	37,19
386,564	35,73
387,078	38,37
387,592	38,05
388,105	34,59
388,619	33,29
389,132	36,37
389,645	36,38
390,158	36,6
390,671	34,78
391,184	34,57
391,697	34,69
392,21	36,42
392,722	32,89
393,235	33,4
393,747	33,52
394,259	31,89
394,771	32,8
395,283	32,15
395,795	32
396,307	32,47
396,818	31,8
397,33	32,05
397,841	33,02
398,353	31,66
398,864	29,87
399,375	31,67
399,886	29,15
400,397	32,11
400,907	29,08
401,418	26,92
401,928	26,92
402,439	27,26
402,949	27,3
403,459	27,43
403,969	26,14
404,479	24,37
404,989	24,22
405,498	24,02
406,008	23,42
406,517	23,29
407,027	22,59
407,536	21,15
408,045	21,9
408,554	21,11
409,063	19,4
409,572	19,87
410,08	18,88
410,589	19,11
411,097	18,04
411,606	18,03
412,114	17,03
412,622	16,27
413,13	16,51
413,638	15,88
414,145	16,15
414,653	15,29
415,16	14,61
415,668	14,73
416,175	14,73
416,682	14,33
417,189	13,88
417,696	14,02
418,203	12,81
418,71	13,58
419,216	12,95
419,723	12,61
420,229	12,84
420,735	12,03
421,242	12,48
421,748	12,37
422,254	12,51
422,759	12,18
423,265	12,07
423,771	11,68
424,276	11,65
424,781	11,98
425,287	11,76
425,792	11,76
426,297	11,57
426,802	11,19
427,306	11,34
427,811	11,88
428,316	11,24
428,82	11,53
429,324	11,3
429,829	11,56
430,333	11,32
430,837	11,25
431,34	11,34
431,844	11,11
432,348	10,78
432,851	10,98
433,355	10,98
433,858	10,97
434,361	10,66
434,864	10,78
435,367	10,71
435,87	10,87
436,373	10,73
436,876	11,09
437,378	10,73
437,88	10,59
438,383	10,81
438,885	10,65
439,387	11,01
439,889	10,76
440,391	10,93
440,892	10,52
441,394	10,79
441,896	10,8
442,397	11,05
442,898	10,73
443,399	11,22
443,9	10,75
444,401	11,08
444,902	11,27
445,403	10,81
445,903	11,19
446,404	11,1
446,904	11,5
447,405	11,36
447,905	11,2
448,405	11,55
448,905	11,44
449,404	11,45
449,904	11,47
450,404	11,65
450,903	11,41
451,403	12,1
451,902	11,99
452,401	12,04
452,9	11,87
453,399	12,07
453,898	12,54
454,396	12,15
454,895	12,19
455,393	12,64
455,892	12,84
456,39	12,24
456,888	12,49
457,386	12,46
457,884	12,55
458,382	12,52
458,879	12,69
459,377	12,86
459,874	12,21
460,372	12,91
460,869	12,95
461,366	12,48
461,863	12,46
462,36	12,71
462,857	12,86
463,353	12,68
463,85	12,48
464,346	12,77
464,843	12,55
465,339	12,87
465,835	12,57
466,331	12,62
466,827	12,66
467,323	12,63
467,818	12,77
468,314	12,56
468,809	12,98
469,305	12,68
469,8	12,71
470,295	12,9
470,79	12,8
471,285	12,54
471,78	12,9
472,274	12,67
472,769	13,02
473,263	12,99
473,758	12,84
474,252	12,97
474,746	12,86
475,24	12,95
475,734	12,81
476,228	12,87
476,721	12,74
477,215	12,95
477,708	13,05
478,202	13,21
478,695	13,08
479,188	13,13
479,681	13,17
480,174	13,06
480,667	13,37
481,159	13,04
481,652	13,55
482,144	13,2
482,637	13,22
483,129	13,17
483,621	13,25
484,113	13,23
484,605	13,64
485,097	13,7
485,588	13,48
486,08	13,36
486,571	13,41
487,063	13,64
487,554	13,54
488,045	13,38
488,536	13,85
489,027	14
489,518	14,06
490,008	13,93
490,499	13,89
490,989	14,41
491,48	14,6
491,97	14,54
492,46	14,29
492,95	14,77
493,44	14,58
493,93	14,71
494,419	14,78
494,909	14,99
495,398	15,13
495,888	15,2
496,377	15,41
496,866	15,48
497,355	15,47
497,844	15,88
498,333	15,86
498,821	16,43
499,31	16,27
499,798	16,41
500,287	16,82
500,775	16,81
501,263	16,96
501,751	16,87
502,239	17,26
502,727	17,65
503,215	17,83
503,702	17,87
504,19	18,33
504,677	18,1
505,164	18,8
505,651	19,11
506,139	19,17
506,625	19,4
507,112	19,9
507,599	19,94
508,086	20,39
508,572	20,53
509,058	20,55
509,545	20,89
510,031	21,22
510,517	21,33
511,003	21,89
511,489	22,04
511,974	22,17
512,46	22,47
512,946	22,65
513,431	22,95
513,916	23,41
514,401	23,73
514,887	23,82
515,371	24,54
515,856	24,46
516,341	24,86
516,826	25,64
517,31	25,55
517,795	26,09
518,279	25,88
518,763	26,41
519,247	26,81
519,731	26,98
520,215	27,55
520,699	27,74
521,182	28,04
521,666	28,22
522,149	28,62
522,633	29,29
523,116	29,37
523,599	29,45
524,082	29,97
524,565	30,17
525,048	30,2
525,53	30,05
526,013	30,53
526,495	30,68
526,978	30,79
527,46	31,31
527,942	31,66
528,424	31,57
528,906	31,74
529,388	32,22
529,87	32,28
530,351	32,64
530,833	32,65
531,314	33
531,795	32,86
532,277	32,69
532,758	32,82
533,238	33,19
533,719	33,1
534,2	33,42
534,681	33,26
535,161	33,34
535,642	33,51
536,122	33,78
536,602	33,83
537,082	33,82
537,562	33,77
538,042	33,67
538,522	33,93
539,001	33,86
539,481	34,15
539,96	34
540,44	34,16
540,919	33,86
541,398	34,06
541,877	34,15
542,356	34
542,835	34,45
543,313	34,53
543,792	34,18
544,27	34,61
544,749	34,38
545,227	34,35
545,705	33,94
546,183	34,22
546,661	34,36
547,139	34,62
547,616	34,52
548,094	34,19
548,571	34,61
549,049	34,56
549,526	34,68
550,003	34,75
550,48	34,55
550,957	34,6
551,434	34,69
551,911	34,84
552,387	34,74
552,864	34,63
553,34	34,53
553,817	35,02
554,293	34,82
554,769	34,71
555,245	35,14
555,721	34,64
556,197	35,01
556,672	34,65
557,148	34,95
557,623	34,88
558,099	35,03
558,574	34,96
559,049	34,88
559,524	34,95
559,999	34,52
560,474	34,81
560,948	34,53
561,423	34,68
561,897	34,52
562,372	34,82
562,846	34,64
563,32	34,22
563,794	34,5
564,268	34,17
564,742	34,32
565,216	34,43
565,69	34,38
566,163	33,82
566,636	34,04
567,11	33,57
567,583	33,72
568,056	33,6
568,529	33,23
569,002	33,33
569,475	33,32
569,947	32,96
570,42	33,03
570,892	32,99
571,365	32,65
571,837	32,86
572,309	32,23
572,781	31,97
573,253	32,11
573,725	31,8
574,197	31,95
574,668	31,53
575,14	31,61
575,611	31,5
576,082	31,01
576,554	31,22
577,025	31,03
577,496	30,79
577,967	30,56
578,437	30,44
578,908	30,24
579,379	30,22
579,849	30,06
580,319	30,07
580,79	30,03
581,26	29,98
581,73	29,96
582,2	29,47
582,669	29,6
583,139	29,47
583,609	29,3
584,078	29,37
584,548	29,06
585,017	29,26
585,486	28,9
585,955	28,67
586,424	28,75
586,893	28,82
587,362	28,59
587,83	28,54
588,299	28,58
588,767	28,36
589,236	28,52
589,704	28,25
590,172	28,13
590,64	27,93
591,108	27,79
591,576	28,01
592,043	27,78
592,511	27,95
592,978	27,83
593,446	27,64
593,913	27,63
594,38	27,61
594,847	27,52
595,314	27,43
595,781	27,21
596,248	27,41
596,715	27,46
597,181	27,47
597,647	27,32
598,114	27,04
598,58	27,09
599,046	27,07
599,512	27,07
599,978	26,97
600,444	26,96
600,91	26,93
601,375	27,04
601,841	26,91
602,306	26,95
602,771	27,01
603,236	26,8
603,702	26,58
604,167	26,77
604,631	26,8
605,096	26,59
605,561	26,46
606,025	26,37
606,49	26,31
606,954	26,52
607,418	26,18
607,882	26,18
608,347	26,18
608,81	25,99
609,274	25,74
609,738	25,8
610,202	25,49
610,665	25,72
611,128	25,65
611,592	25,28
612,055	25,39
612,518	25,17
612,981	25,24
613,444	25,24
613,907	25
614,369	24,73
614,832	24,78
615,294	24,66
615,757	24,6
616,219	24,5
616,681	24,61
617,143	24,29
617,605	24,38
618,067	24,29
618,529	24,14
618,99	23,9
619,452	23,93
619,913	23,8
620,375	24
620,836	23,78
621,297	23,71
621,758	23,72
622,219	23,45
622,68	23,63
623,14	23,38
623,601	23,47
624,061	23,33
624,522	23,41
624,982	23,39
625,442	23,17
625,902	23,1
626,362	23,14
626,822	23,14
627,282	22,93
627,742	23,28
628,201	22,89
628,661	22,98
629,12	22,89
629,579	23,02
630,038	22,8
630,497	22,99
630,956	23,1
631,415	22,83
631,874	22,75
632,332	22,96
632,791	22,81
633,249	22,67
633,708	22,57
634,166	22,53
634,624	22,52
635,082	22,31
635,54	22,16
635,998	22,04
636,455	21,95
636,913	22
637,37	21,85
637,828	21,75
638,285	21,72
638,742	21,5
639,199	21,2
639,656	21,21
640,113	21,03
640,57	20,84
641,027	20,71
641,483	20,49
641,94	20,62
642,396	20,13
642,852	20,09
643,309	20,01
643,765	19,83
644,221	19,65
644,676	19,38
645,132	19,4
645,588	19,2
646,043	19,06
646,499	18,96
646,954	18,82
647,409	18,46
647,864	18,51
648,319	18,37
648,774	18,01
649,229	17,97
649,684	17,85
650,139	17,8
650,593	17,81
651,047	17,64
651,502	17,58
651,956	17,76
652,41	17,34
652,864	17,34
653,318	17,32
653,772	17,12
654,225	17,19
654,679	17,08
655,133	17,12
655,586	16,92
656,039	16,96
656,492	16,78
656,946	16,68
657,399	16,58
657,851	16,46
658,304	16,39
658,757	16,39
659,209	16,09
659,662	15,93
660,114	15,8
660,567	15,74
661,019	15,53
661,471	15,37
661,923	15,16
662,375	15,12
662,826	14,96
663,278	14,95
663,73	14,58
664,181	14,55
664,632	14,41
665,084	14,23
665,535	14,18
665,986	14,04
666,437	13,86
666,888	13,95
667,338	13,75
667,789	13,67
668,24	13,59
668,69	13,53
669,14	13,49
669,591	13,42
670,041	13,36
670,491	13,42
670,941	13,39
671,391	13,43
671,84	13,32
672,29	13,43
672,74	13,43
673,189	13,4
673,638	13,4
674,088	13,45
674,537	13,52
674,986	13,6
675,435	13,6
675,883	13,64
676,332	13,72
676,781	13,75
677,229	13,88
677,678	13,95
678,126	14,07
678,574	14,14
679,022	14,28
679,47	14,42
679,918	14,45
680,366	14,57
680,814	14,85
681,261	14,97
681,709	15,14
682,156	15,36
682,604	15,6
683,051	15,64
683,498	15,99
683,945	16,24
684,392	16,39
684,839	16,61
685,286	16,91
685,732	17,26
686,179	17,4
686,625	17,79
687,071	18,15
687,518	18,34
687,964	18,91
688,41	19,16
688,856	19,37
689,301	20,06
689,747	20,44
690,193	20,78
690,638	21,3
691,084	22,04
691,529	22,24
691,974	22,9
692,419	23,35
692,864	23,91
693,309	24,22
693,754	24,62
694,199	25,34
694,643	25,75
695,088	26,31
695,532	26,79
695,977	27,26
696,421	27,68
696,865	28,13
697,309	28,58
697,753	28,96
698,197	29,41
698,64	29,83
699,084	30,23
699,527	30,8
699,971	31,12
700,414	31,27
700,857	31,76
701,3	31,99
701,743	32,35
702,186	32,96
702,629	33,21
703,072	33,45
703,515	33,59
703,957	33,95
704,399	34,17
704,842	34,38
705,284	34,68
705,726	35,1
706,168	35,24
706,61	35,45
707,052	35,5
707,494	36
707,935	36,1
708,377	36,29
708,818	36,51
709,26	36,77
709,701	36,87
710,142	36,94
710,583	37,37
711,024	37,45
711,465	37,46
711,905	37,91
712,346	38,2
712,787	38,07
713,227	38,33
713,667	38,42
714,108	38,62
714,548	38,84
714,988	38,9
715,428	38,99
715,868	39,34
716,307	39,25
716,747	39,68
717,186	39,72
717,626	39,7
718,065	39,73
718,504	39,83
718,944	40,22
719,383	40,22
719,822	40,28
720,261	40,22
720,699	40,52
721,138	40,77
721,576	40,64
722,015	40,62
722,453	41,06
722,892	40,87
723,33	40,77
723,768	41,15
724,206	41,03
724,644	41,27
725,081	41,28
725,519	41,46
725,957	41,59
726,394	41,42
726,832	41,71
727,269	41,48
727,706	41,62
728,143	41,78
728,58	41,66
729,017	41,8
729,454	41,85
729,89	41,91
730,327	42,13
730,764	41,78
731,2	42,01
731,636	41,78
732,072	42,06
732,509	42,02
732,945	41,98
733,38	42,13
733,816	41,95
734,252	41,95
734,688	42,32
735,123	42,04
735,559	41,99
735,994	42,12
736,429	42,29
736,864	42,15
737,299	42,2
737,734	42,09
738,169	42,14
738,604	42,07
739,038	42,33
739,473	42,03
739,907	42,32
740,342	42,05
740,776	42,23
741,21	42,05
741,644	42
742,078	41,93
742,512	41,85
742,946	42,05
743,379	41,81
743,813	41,76
744,246	42,17
744,68	41,97
745,113	41,77
745,546	41,89
745,979	41,72
746,412	41,9
746,845	41,79
747,278	41,73
747,711	41,88
748,143	41,78
748,576	41,68
749,008	41,7
749,441	41,66
749,873	41,31
750,305	41,53
750,737	41,55
751,169	41,58
751,601	41,59
752,032	41,58
752,464	41,39
752,896	41,31
753,327	41,47
753,758	41,25
754,19	41,2
754,621	41,23
755,052	41,06
755,483	41,01
755,914	41,04
756,344	40,87
756,775	41,09
757,206	40,98
757,636	40,97
758,066	40,98
758,497	40,87
758,927	40,68
759,357	40,83
759,787	40,68
760,217	40,78
760,647	40,67
761,076	40,73
761,506	40,43
761,935	40,66
762,365	40,56
762,794	40,67
763,223	40,6
763,653	40,55
764,082	40,44
764,51	40,68
764,939	40,44
765,368	40,32
765,797	40,34
766,225	40,4
766,654	40,43
767,082	40,33
767,51	40,25
767,938	40,4
768,367	40,29
768,795	40,28
769,222	40,17
769,65	40,16
770,078	40,29
770,505	40,07
770,933	40,22
771,36	39,99
771,788	40,14
772,215	40,2
772,642	40,05
773,069	39,94
773,496	40,04
773,923	40,16
774,349	39,98
774,776	40,1
775,203	39,86
775,629	40,01
776,055	39,87
776,482	40,03
776,908	39,81
777,334	39,86
777,76	39,87
778,186	39,9
778,611	39,73
779,037	39,82
779,463	39,79
779,888	39,63
780,314	39,81
780,739	39,67
781,164	39,9
781,589	39,7
782,014	39,76
782,439	39,62
782,864	39,85
783,289	39,66
783,713	39,73
784,138	39,59
784,562	39,58
784,987	39,61
785,411	39,73
785,835	39,74
786,259	39,64
786,683	39,68
787,107	39,69
787,531	39,62
787,954	39,71
788,378	39,67
788,802	39,37
789,225	39,71
789,648	39,49
790,071	39,58
790,495	39,66
790,918	39,48
791,34	39,61
791,763	39,32
792,186	39,54
792,609	39,49
793,031	39,28
793,454	39,36
793,876	39,39
794,298	39,17
794,721	39,58
795,143	39,18
795,565	39,54
795,986	39,15
796,408	39,35
796,83	39,23
797,252	39,27
797,673	39,28
798,094	39,29
798,516	39,4
798,937	39,13
799,358	39,23
799,779	39,26
800,2	39,29
800,621	39,18
801,042	38,99
801,462	39,4
801,883	39,09
802,303	39,22
802,724	39,16
803,144	39,39
803,564	39,35
803,984	39,39
804,404	39,31
804,824	38,99
805,244	39,32
805,664	39,05
806,084	39,12
806,503	39,37
806,923	39,28
807,342	39,21
807,761	39,17
808,18	39,09
808,599	39,3
809,018	39,06
809,437	39,09
809,856	38,94
810,275	39,29
810,693	39,14
811,112	39,14
811,53	39,09
811,949	39,35
812,367	39,17
812,785	39,07
813,203	39,12
813,621	39,14
814,039	39,03
814,457	39,2
814,874	39,08
815,292	39,09
815,709	39,03
816,127	39,22
816,544	39,06
816,961	39,22
817,378	39
817,795	39,09
818,212	38,92
818,629	39,25
819,046	39,08
819,462	39,01
819,879	39,14
820,295	38,88
820,712	39,07
821,128	38,94
821,544	38,91
821,96	39,17
822,376	39,18
822,792	38,97
823,208	38,98
823,624	39,12
824,039	39,16
824,455	39,11
824,87	39,05
825,286	39,16
825,701	39,02
826,116	39,02
826,531	39,06
826,946	39,03
827,361	38,7
827,776	38,86
828,19	38,73
828,605	39,15
829,02	39,15
829,434	38,73
829,848	38,77
830,263	38,8
830,677	38,92
831,091	38,94
831,505	38,86
831,919	38,97
832,332	39,07
832,746	38,87
833,16	38,89
833,573	38,8
833,987	39
834,4	38,75
834,813	38,87
835,226	38,78
835,639	38,84
836,052	38,79
836,465	38,8
836,878	39
837,29	38,87
837,703	38,91
838,116	38,92
838,528	38,8
838,94	38,84
839,352	38,76
839,765	38,69
840,177	38,9
840,589	38,94
841	38,58
841,412	38,73
841,824	38,61
842,235	38,63
842,647	38,59
843,058	38,83
843,47	38,78
843,881	38,8
844,292	38,98
844,703	38,82
845,114	38,85
845,525	39
845,935	38,72
846,346	38,85
846,757	38,83
847,167	38,59
847,577	38,71
847,988	38,56
848,398	38,87
848,808	38,74
849,218	38,99
849,628	38,86
850,038	38,54
850,448	38,64
850,857	38,75
851,267	38,48
851,676	38,83
852,086	38,53
852,495	38,82
852,904	38,77
853,313	38,73
853,722	38,67
854,131	38,58
854,54	38,71
854,949	38,43
855,357	38,55
855,766	38,69
856,174	38,56
856,583	38,55
856,991	38,61
857,399	38,69
857,807	38,72
858,215	38,65
858,623	38,44
859,031	38,62
859,439	38,75
859,846	38,65
860,254	38,74
860,661	38,55
861,069	38,54
861,476	38,46
861,883	38,58
862,29	38,75
862,697	38,47
863,104	38,66
863,511	38,39
863,918	38,43
864,325	38,56
864,731	38,56
865,138	38,71
865,544	38,58
865,95	38,55
866,357	38,43
866,763	38,51
867,169	38,38
867,575	38,34
867,98	38,21
868,386	38,48
868,792	38,46
869,197	38,42
869,603	38,48
870,008	38,6
870,414	38,56
870,819	38,54
871,224	38,33
871,629	38,31
872,034	38,8
872,439	38,51
872,844	38,26
873,248	38,43
873,653	38,64
874,057	38,44
874,462	38,61
874,866	38,68
875,27	38,42
875,674	38,43
876,078	38,46
876,482	38,61
876,886	38,34
877,29	38,53
877,694	38,05
878,097	38,44
878,501	38,62
878,904	38,42
879,308	38,29
879,711	38,41
880,114	38,45
880,517	38,25
880,92	38,42
881,323	38,61
881,726	38,26
882,128	38,22
882,531	38,47
882,934	38,22
883,336	38,5
883,738	38,42
884,141	38,63
884,543	38,17
884,945	38,29
885,347	38,24
885,749	38,36
886,151	38,16
886,552	38,26
886,954	38,3
887,355	38,3
887,757	38,33
888,158	38,25
888,56	38,31
888,961	38,14
889,362	38,38
889,763	38,22
890,164	38,25
890,565	38,07
890,965	38,18
891,366	38
891,767	38,31
892,167	38,46
892,567	38,25
892,968	38,27
893,368	38,24
893,768	38,48
894,168	38,23
894,568	38,23
894,968	38,3
895,368	38,23
895,767	38,31
896,167	37,95
896,566	38,35
896,966	38,45
897,365	38,38
897,764	38,27
898,164	38,14
898,563	38,35
898,962	38,11
899,361	38,05
899,759	38,25
900,158	38,25
900,557	38
900,955	38,07
901,354	38,22
901,752	38,45
902,15	38,36
902,548	37,92
902,947	38,05
903,345	38,03
903,742	38,17
904,14	38,26
904,538	38,08
904,936	38,24
905,333	38,19
905,731	38,14
906,128	38,02
906,525	38,19
906,923	38,17
907,32	38,19
907,717	38,08
908,114	38,27
908,511	38,13
908,907	38,06
909,304	38,33
909,701	38,11
910,097	38,08
910,494	38,18
910,89	38,1
911,286	38
911,682	38,09
912,078	38,1
912,474	38,01
912,87	38,18
913,266	38,12
913,662	38,02
914,058	38,3
914,453	38,16
914,849	38,11
915,244	37,98
915,639	38,16
916,034	37,96
916,43	38,02
916,825	38,06
917,22	38,22
917,614	37,97
918,009	38,14
918,404	38,12
918,798	38,19
919,193	38,15
919,587	38
919,982	38,1
920,376	38,11
920,77	38,25
921,164	38,13
921,558	38,05
921,952	37,96
922,346	38,01
922,74	38,11
923,133	37,86
923,527	37,84
923,92	38,07
924,314	37,89
924,707	37,72
925,1	38,03
925,493	37,83
925,886	37,91
926,279	38,04
926,672	38,22
927,065	37,87
927,457	37,75
927,85	38,1
928,243	37,73
928,635	37,84
929,027	38,07
929,42	38
929,812	37,83
930,204	37,69
930,596	37,86
930,988	38,04
931,379	37,66
931,771	37,66
932,163	38,05
932,554	37,73
932,946	37,73
933,337	37,62
933,729	37,69
934,12	37,89
934,511	37,88
934,902	37,87
935,293	37,45
935,684	37,8
936,075	37,82
936,465	37,79
936,856	37,45
937,246	37,67
937,637	37,69
938,027	37,47
938,417	38,02
938,808	37,55
939,198	37,38
939,588	37,33
939,978	37,79
940,368	37,7
940,757	37,8
941,147	37,22
941,537	37,76
941,926	37,49
942,315	37,65
942,705	37,27
943,094	37,55
943,483	37,76
943,872	37,68
944,261	37,37
944,65	37,76
945,039	37,43
945,428	37,18
945,816	37,66
946,205	37,09
946,593	37,83
946,982	37,09
947,37	37,53
947,758	37,44
948,146	37,63
948,534	37,14
948,922	37,95
949,31	37,49
949,698	37,22
950,086	37,6
950,473	37,16
950,861	37,01
951,248	37,07
951,636	36,96
952,023	37,06
952,41	37,02
952,797	36,89
953,184	37,43
953,571	37,34
953,958	37,09
954,345	37,11
954,731	37,55
955,118	37,12
955,505	36,81
955,891	36,87
956,277	36,92
956,664	36,93
957,05	36,72
957,436	36,64
957,822	36,78
958,208	36,9
958,594	36,86
958,979	37,17
959,365	36,56
959,751	36,9
960,136	36,76
960,522	36,72
960,907	36,81
961,292	36,69
961,677	36,85
962,062	36,94
962,447	36,99
962,832	37,14
963,217	36,88
963,602	36,75
963,986	36,57
964,371	37,13
964,756	36,92
965,14	36,42
965,524	36,46
965,908	36,83
966,293	37,02
966,677	36,54
967,061	36,81
967,445	36,55
967,828	36,88
968,212	36,7
968,596	36,57
968,979	36,96
969,363	36,88
969,746	36,69
970,129	37,01
970,513	36,74
970,896	36,59
971,279	36,61
971,662	37,03
972,045	36,69
972,428	36,95
972,81	36,7
973,193	36,38
973,575	36,7
973,958	36,64
974,34	36,77
974,723	36,29
975,105	36,52
975,487	36,62
975,869	36,79
976,251	36,8
976,633	36,59
977,015	36,62
977,396	36,79
977,778	36,81
978,16	36,69
978,541	36,96
978,922	36,9
979,304	37,1
979,685	36,71
980,066	36,42
980,447	36,78
980,828	36,55
981,209	36,45
981,59	37,02
981,97	36,73
982,351	36,98
982,732	36,52
983,112	36,87
983,493	36,98
983,873	36,38
984,253	36,79
984,633	36,91
985,013	36,74
985,393	36,65
985,773	36,76
986,153	36,93
986,533	36,55
986,912	36,87
987,292	36,98
987,671	36,7
988,051	36,98
988,43	36,72
988,809	36,82
989,188	36,58
989,567	36,62
989,946	36,93
990,325	37,01
990,704	36,78
991,083	36,78
991,461	36,98
991,84	37,06
992,218	36,4
992,597	37,16
992,975	36,76
993,353	36,49
993,732	36,68
994,11	36,67
994,488	36,88
994,866	36,51
995,243	37,01
995,621	36,91
995,999	36,42
996,376	37,04
996,754	36,97
997,131	36,7
997,509	36,34
997,886	37,03
998,263	36,79
998,64	37,28
999,017	36,3
999,394	36,62
999,771	37
1000,148	36,81
1000,524	36,64
1000,901	36,76
1001,277	36,97
1001,654	36,56
1002,03	36,77
1002,406	36,83
1002,783	36,62
1003,159	37,1
1003,535	36,63
1003,911	36,87
1004,286	36,91
1004,662	36,74
1005,038	36,68
1005,414	36,84
1005,789	36,8
1006,164	36,9
1006,54	37,17
1006,915	37,01
1007,29	36,73
1007,665	36,76
1008,04	36,73
1008,415	37,15
1008,79	36,84
1009,165	36,74
1009,54	37,31
1009,914	36,85
1010,289	36,79
1010,663	36,78
1011,038	37,05
1011,412	37,11
1011,786	36,63
1012,16	36,86
1012,535	37,3
1012,909	36,98
1013,282	37,27
1013,656	36,76
1014,03	36,69
1014,404	36,49
1014,777	36,58
1015,151	36,76
1015,524	37,22
1015,897	36,87
1016,271	36,76
1016,644	36,49
1017,017	36,94
1017,39	36,83
1017,763	36,82
1018,136	37,02
1018,508	36,4
1018,881	37,04
1019,254	36,58
1019,626	36,83
1019,999	37,25
1020,371	37,08
1020,743	37,03
1021,116	37,16
1021,488	36,36
1021,86	36,58
1022,232	36,79
1022,604	37,09
1022,975	37,17
1023,347	37,19
1023,719	37,24
1024,09	37,16
1024,462	37,14
1024,833	36,69
1025,204	36,39
1025,576	36,62
1025,947	37,03
1026,318	36,88
1026,689	36,91
1027,06	37,1
1027,431	37,3
1027,801	36,74
1028,172	36,8
1028,543	36,75
1028,913	36,54
1029,284	36,99
1029,654	36,74
1030,024	36,26
1030,394	37,07
1030,764	36,74
1031,135	36,67
1031,504	37,51
1031,874	37,04
1032,244	37,37
1032,614	37,36
1032,983	37,64
1033,353	36,83
1033,722	36,97
1034,092	36,73
1034,461	37,37
1034,83	36,78
1035,2	37,32
1035,569	37,07
1035,938	36,41
1036,307	37,04
1036,675	37,32
1037,044	36,88
1037,413	37,99
1037,781	37,39
1038,15	37,29
1038,518	36,99
1038,887	36,83
1039,255	36,8
1039,623	37,27
1039,991	36,97
1040,359	37,3
1040,727	37,62
1041,095	36,89
1041,463	37,61
1041,831	36,68
1042,198	36,95
1042,566	37,98
1042,933	36,96
1043,301	36,58
1043,668	36,93
1044,035	36,88
1044,402	36,85
1044,77	37,01
1045,137	36,76
1045,503	36,68
1045,87	37,32
1046,237	37,02
1046,604	36,82
1046,97	37,47
1047,337	36,96
1047,703	36,97
1048,07	37,33
1048,436	37,23
1048,802	36,31
1049,168	37,39
1049,534	37
1049,9	37,64
1050,266	37,52
1050,632	36,93
1050,998	37,34
1051,364	37,1
1051,729	37,13
1052,095	37,76
1052,46	37,13
1052,825	36,74
1053,191	36,7
1053,556	37,21
1053,921	36,82
1054,286	37,01
1054,651	37,46
1055,016	37,19
1055,381	37,29
1055,745	36,9
1056,11	37,28
1056,475	37,11
1056,839	36,84
1057,203	36,74
1057,568	36,88
1057,932	37,04
1058,296	37,77
1058,66	37,04
1059,024	37,89
1059,388	36,87
1059,752	37,63
1060,116	36,78
1060,48	36,4
1060,843	36,86
1061,207	37,15
1061,57	37,29
1061,934	36,47
1062,297	37,68
1062,66	37,21
1063,023	36,68
1063,386	37,15
1063,749	37,31
1064,112	36,37
1064,475	36,76
1064,838	37,58
1065,201	36,79
1065,563	36,67
1065,926	36,8
1066,288	37,27
1066,651	36,85
1067,013	36,4
1067,375	37,07
1067,737	36,5
1068,099	37,84
1068,461	36,92
1068,823	36,68
1069,185	36,84
1069,547	37,17
1069,909	35,65
1070,27	36,83
1070,632	36,71
1070,993	37,28
1071,355	36,13
1071,716	36,62
1072,077	36,84
1072,438	36,69
1072,799	37,28
1073,16	36,78
1073,521	36,04
1073,882	36,71
1074,243	36,88
1074,603	37,02
1074,964	36,78
1075,325	36,8
1075,685	38,24
1076,045	36,47
1076,406	38,17
1076,766	36,05
1077,126	37,11
1077,486	36,64
1077,846	37,35
1078,206	36,87
1078,566	37,14
1078,925	37,21
1079,285	37,83
1079,645	38
1080,004	37,76
1080,364	36,33
1080,723	36,32
1081,082	36,33
1081,442	36,54
1081,801	36,67
1082,16	37,29
1082,519	36,88
1082,878	36,93
1083,237	37,36
1083,595	37,15
1083,954	36,67
1084,313	37,63
1084,671	36,79
1085,03	36,56
1085,388	37,21
1085,746	36,54
1086,104	36,73
1086,463	37,2
1086,821	37,58
1087,179	37,5
1087,537	37,55
1087,894	36,48
1088,252	37,77
1088,61	37,77
1088,967	36,95
1089,325	37,25
1089,682	37
1090,04	36,99
1090,397	36,25
1090,754	36,2
1091,111	36,78
1091,469	37,53
1091,826	37,01
1092,182	36,82
1092,539	37,53
1092,896	36,42
1093,253	36,98
1093,609	37,13
1093,966	37,65
1094,322	36,38
1094,679	37,67
1095,035	36,28
1095,391	36,5
1095,748	36,95
1096,104	36,91
1096,46	36,68
1096,816	38,57
1097,171	37,55
1097,527	36,57
1097,883	37,46
1098,239	36,52
1098,594	38,17
1098,95	35,32
1099,305	36,98
1099,66	37,57
1100,016	35,73
1100,371	36,12
1100,726	36,1
1101,081	37,25
1101,436	36,98
1101,791	37,31
1102,146	36,26
1102,5	37,52
1102,855	37,13
1103,21	37,31
1103,564	35,06
1103,918	36,4
1104,273	36,24
1104,627	36,5
1104,981	36,81
1105,335	36,96
1105,69	37,67
1106,043	37,44
1106,397	37,29
1106,751	37,25
1107,105	38,04
1107,459	34,93
1107,812	38,73
1108,166	35,88
1108,519	35,43
1108,873	37,27
1109,226	36,53
1109,579	35,15
1109,932	35,67
1110,285	35,24
1110,638	36,22
1110,991	37,8
1111,344	38,43
1111,697	36,55
1112,05	38,57
1112,402	35,69
1112,755	37,69
1113,107	37,54
1113,46	37,64
1113,812	35,09
1114,164	38,8
1114,517	37,9
1114,869	48,88
1115,221	31,77
1115,573	39,69
1115,924	38,97
