Data from D_1_0_Relative__8__00081.txt Node

Date: Mon Jan 29 12:56:52 CET 2024
User: diatiterra
Spectrometer: HDX00911
Trigger mode: 0
Integration Time (sec): 6,000000E-3
Scans to average: 4
Nonlinearity correction enabled: false
Boxcar width: 0
Storing dark spectrum: false
XAxis mode: Wavelengths
Number of Pixels in Spectrum: 2068
>>>>>Begin Spectral Data<<<<<
194,468	32,32
195,025	23,12
195,581	24,42
196,138	20,47
196,694	29,88
197,251	34,75
197,807	29,69
198,363	28,51
198,919	26,34
199,474	33,11
200,03	30,68
200,586	27,65
201,141	27,14
201,696	27,1
202,251	26,48
202,806	23,61
203,361	30,59
203,916	33,9
204,471	24,49
205,025	28,39
205,58	27,07
206,134	28,13
206,688	29,28
207,242	24,84
207,796	27,76
208,35	30,52
208,904	27,55
209,457	35,7
210,011	23,47
210,564	28,9
211,117	28,82
211,67	29,58
212,223	25,05
212,776	29,64
213,329	32,53
213,881	25,05
214,434	22,93
214,986	30,16
215,538	34,51
216,09	31,6
216,642	29,98
217,194	26,88
217,746	29,66
218,297	26,82
218,849	18,03
219,4	30,9
219,951	22,89
220,502	25,7
221,053	27,94
221,604	31,67
222,155	22,76
222,705	27,97
223,256	27,98
223,806	33,96
224,356	27,78
224,906	31,66
225,456	34,74
226,006	30,91
226,556	27,77
227,106	37,5
227,655	28,36
228,204	28,76
228,754	31,42
229,303	25,71
229,852	36,29
230,401	33,33
230,949	34,73
231,498	29,33
232,047	29,12
232,595	27,41
233,143	30,84
233,691	29,51
234,239	32,81
234,787	31,36
235,335	30,97
235,883	31,92
236,43	29,34
236,978	19,21
237,525	25
238,072	32,68
238,619	32,24
239,166	28,04
239,713	26,71
240,26	35,68
240,806	33,55
241,353	29,89
241,899	32,16
242,445	28,87
242,991	31,67
243,537	30,44
244,083	33,61
244,629	34,96
245,174	33,19
245,72	30,67
246,265	27,04
246,81	30,02
247,355	34,12
247,9	32,6
248,445	26,87
248,99	32,24
249,534	32,43
250,079	28,44
250,623	29,71
251,168	29,31
251,712	28,17
252,256	29,68
252,8	33,33
253,343	27,49
253,887	25,11
254,43	27,47
254,974	28
255,517	34,75
256,06	30,46
256,603	25,23
257,146	33,64
257,689	34,63
258,232	30,61
258,774	27,48
259,317	30,47
259,859	31,44
260,401	32,03
260,943	31,33
261,485	32,22
262,027	28,01
262,569	28,75
263,11	29,91
263,652	30,12
264,193	33,19
264,734	24,08
265,275	34,27
265,816	29,89
266,357	37,41
266,898	29,45
267,438	33,49
267,979	26,77
268,519	34,14
269,059	23,36
269,6	28,44
270,14	31,76
270,68	32,42
271,219	28,9
271,759	29,44
272,298	26,28
272,838	28,67
273,377	29,84
273,916	25,73
274,455	33,18
274,994	31,94
275,533	24,25
276,072	28,97
276,61	31,06
277,149	25,49
277,687	27,92
278,225	21,49
278,763	28,73
279,301	25,78
279,839	27,74
280,377	27,25
280,914	30,39
281,452	28,67
281,989	26,81
282,526	30,9
283,064	32,06
283,601	24,83
284,137	34,05
284,674	24,51
285,211	37,04
285,747	28,16
286,284	26,94
286,82	30,3
287,356	31,35
287,892	26,3
288,428	26,39
288,964	38,59
289,5	21,35
290,035	31,79
290,571	27,56
291,106	22,28
291,641	28,18
292,176	27,63
292,711	33,99
293,246	29,59
293,781	31,38
294,315	26,68
294,85	27,88
295,384	28,76
295,918	26,89
296,453	28,54
296,987	25,36
297,52	27,19
298,054	30,2
298,588	30,87
299,121	29,05
299,655	31,9
300,188	28,47
300,721	37,21
301,254	29,91
301,787	25,67
302,32	28,11
302,853	30,18
303,385	32,82
303,918	28,95
304,45	24,78
304,982	33,11
305,514	28,47
306,046	29,54
306,578	29,06
307,11	29,84
307,641	29,46
308,173	29,09
308,704	28,79
309,236	28,71
309,767	30,59
310,298	39,02
310,829	29,81
311,359	28,74
311,89	25,73
312,421	24,22
312,951	34,88
313,481	28,34
314,012	29,53
314,542	27,76
315,072	30,65
315,601	30,86
316,131	29,98
316,661	24,88
317,19	26,02
317,72	24,29
318,249	24,83
318,778	26,23
319,307	25,18
319,836	30,02
320,365	31,34
320,893	27,65
321,422	29,95
321,95	27,78
322,479	28,22
323,007	28,26
323,535	32,79
324,063	30,73
324,591	30,5
325,118	28,79
325,646	28,3
326,173	33,79
326,701	30,48
327,228	33,86
327,755	24,64
328,282	28,34
328,809	27,37
329,336	29,1
329,862	28,18
330,389	26,44
330,915	26,14
331,441	26,34
331,968	23,86
332,494	30,5
333,02	25,59
333,545	25,96
334,071	27,46
334,597	29,09
335,122	28,95
335,648	28,87
336,173	25,81
336,698	28,9
337,223	23,43
337,748	29,83
338,272	27,2
338,797	23,64
339,322	31,22
339,846	20,21
340,37	28,35
340,894	26,28
341,419	31,51
341,942	28,19
342,466	29,23
342,99	27,8
343,514	32,49
344,037	25,6
344,56	23,89
345,084	20,64
345,607	23,65
346,13	23,47
346,653	26,7
347,175	25,48
347,698	26,33
348,221	27,19
348,743	25,09
349,265	26,43
349,787	26,87
350,309	20
350,831	18,79
351,353	28,23
351,875	20,13
352,397	25
352,918	26,11
353,439	22,73
353,961	26,39
354,482	21,55
355,003	24,71
355,524	23,48
356,044	25,16
356,565	23,1
357,086	24,29
357,606	19,55
358,126	27
358,646	25,45
359,167	26,84
359,687	22,8
360,206	23,93
360,726	25,65
361,246	26,18
361,765	23,24
362,285	25,33
362,804	24,76
363,323	23,17
363,842	26,57
364,361	21,26
364,88	24,34
365,398	24,74
365,917	23,86
366,435	21,08
366,954	23,69
367,472	25,42
367,99	25,29
368,508	21,59
369,026	23,75
369,544	20,85
370,061	24,62
370,579	25,37
371,096	27,4
371,613	28,1
372,131	27,39
372,648	23,36
373,165	24
373,681	24,72
374,198	23,41
374,715	23,59
375,231	23,77
375,747	21
376,264	21,43
376,78	21,93
377,296	21,9
377,812	25,63
378,327	21,5
378,843	23,62
379,359	23,6
379,874	23,22
380,389	22,81
380,905	21,37
381,42	20,55
381,935	19,47
382,449	23,01
382,964	21,12
383,479	21,76
383,993	23,1
384,508	20,97
385,022	19,18
385,536	19,96
386,05	18,29
386,564	20,75
387,078	22,8
387,592	21,61
388,105	18,63
388,619	18,25
389,132	21,23
389,645	19,84
390,158	19,63
390,671	19,7
391,184	17,06
391,697	18,51
392,21	18,71
392,722	18,26
393,235	17,67
393,747	16,89
394,259	17,54
394,771	17,58
395,283	14,75
395,795	17,47
396,307	16,93
396,818	17,47
397,33	16,4
397,841	16,77
398,353	15,6
398,864	15,63
399,375	15,53
399,886	16,18
400,397	15,41
400,907	14,94
401,418	14,79
401,928	14,78
402,439	13,16
402,949	14,55
403,459	12,71
403,969	13,48
404,479	13,07
404,989	13,29
405,498	12,61
406,008	12,91
406,517	11,92
407,027	12,96
407,536	10,67
408,045	10,16
408,554	10,58
409,063	10,17
409,572	10,4
410,08	9,92
410,589	9,45
411,097	8,81
411,606	8,82
412,114	9,05
412,622	9,11
413,13	8,25
413,638	8,5
414,145	8,07
414,653	7,89
415,16	8,47
415,668	7,45
416,175	7,3
416,682	7,54
417,189	7,14
417,696	7,55
418,203	6,83
418,71	6,81
419,216	6,83
419,723	7,18
420,229	6,59
420,735	6,38
421,242	6,32
421,748	6,16
422,254	7,02
422,759	6,03
423,265	6,42
423,771	6,33
424,276	6,28
424,781	6,3
425,287	6,2
425,792	5,95
426,297	6,38
426,802	6,1
427,306	5,69
427,811	5,64
428,316	5,71
428,82	5,66
429,324	5,86
429,829	6,24
430,333	6,27
430,837	6,19
431,34	5,62
431,844	5,63
432,348	5,78
432,851	5,94
433,355	5,83
433,858	5,99
434,361	5,83
434,864	5,69
435,367	5,69
435,87	5,66
436,373	5,38
436,876	6,04
437,378	5,5
437,88	5,61
438,383	5,54
438,885	5,85
439,387	5,64
439,889	5,7
440,391	5,82
440,892	5,58
441,394	5,4
441,896	5,61
442,397	5,86
442,898	5,35
443,399	5,69
443,9	5,65
444,401	5,71
444,902	5,34
445,403	5,58
445,903	5,77
446,404	5,54
446,904	5,63
447,405	5,61
447,905	5,36
448,405	5,76
448,905	6,01
449,404	5,78
449,904	5,96
450,404	5,56
450,903	5,54
451,403	5,66
451,902	5,93
452,401	5,5
452,9	5,91
453,399	5,67
453,898	5,97
454,396	5,71
454,895	5,92
455,393	5,99
455,892	5,89
456,39	5,59
456,888	5,84
457,386	5,81
457,884	5,93
458,382	5,94
458,879	5,85
459,377	5,94
459,874	5,87
460,372	6,22
460,869	5,93
461,366	5,81
461,863	5,99
462,36	5,81
462,857	5,9
463,353	5,81
463,85	5,92
464,346	5,95
464,843	5,74
465,339	6,03
465,835	5,9
466,331	5,91
466,827	6,05
467,323	6,16
467,818	5,82
468,314	5,94
468,809	6,13
469,305	6
469,8	6,08
470,295	5,86
470,79	5,97
471,285	5,99
471,78	5,78
472,274	5,69
472,769	6
473,263	6,16
473,758	5,95
474,252	5,94
474,746	5,97
475,24	6,02
475,734	5,84
476,228	5,93
476,721	5,78
477,215	5,93
477,708	6,06
478,202	6,04
478,695	5,93
479,188	5,99
479,681	5,85
480,174	5,92
480,667	5,83
481,159	5,91
481,652	5,97
482,144	6
482,637	6,14
483,129	5,88
483,621	6,07
484,113	5,92
484,605	5,99
485,097	6
485,588	6,07
486,08	5,96
486,571	6,02
487,063	6,04
487,554	6,03
488,045	6,05
488,536	6,09
489,027	6,24
489,518	6,32
490,008	6,06
490,499	6,2
490,989	6,28
491,48	6,24
491,97	6,32
492,46	6,14
492,95	6,24
493,44	6,3
493,93	6,3
494,419	6,51
494,909	6,29
495,398	6,41
495,888	6,42
496,377	6,34
496,866	6,45
497,355	6,43
497,844	6,68
498,333	6,66
498,821	6,61
499,31	6,74
499,798	6,78
500,287	6,81
500,775	6,72
501,263	6,89
501,751	6,84
502,239	6,99
502,727	7,07
503,215	6,98
503,702	7,21
504,19	7,41
504,677	7,19
505,164	7,26
505,651	7,53
506,139	7,63
506,625	7,44
507,112	7,85
507,599	7,77
508,086	8,06
508,572	8
509,058	8,28
509,545	8,23
510,031	8,44
510,517	8,82
511,003	8,8
511,489	8,98
511,974	9
512,46	9,2
512,946	9,3
513,431	9,45
513,916	9,62
514,401	9,61
514,887	10,11
515,371	10,29
515,856	10,19
516,341	10,44
516,826	10,52
517,31	10,96
517,795	11,29
518,279	11,51
518,763	11,51
519,247	11,57
519,731	11,87
520,215	12,18
520,699	12,44
521,182	12,61
521,666	12,97
522,149	13,06
522,633	13,18
523,116	13,47
523,599	13,68
524,082	13,92
524,565	14,19
525,048	14,15
525,53	14,33
526,013	14,67
526,495	14,8
526,978	14,98
527,46	15,41
527,942	15,53
528,424	15,41
528,906	15,7
529,388	15,98
529,87	16,09
530,351	16,13
530,833	16,22
531,314	16,53
531,795	16,57
532,277	16,6
532,758	16,58
533,238	16,71
533,719	16,7
534,2	16,93
534,681	17,07
535,161	17,15
535,642	17,1
536,122	17,3
536,602	17,55
537,082	17,6
537,562	17,61
538,042	17,33
538,522	17,85
539,001	17,73
539,481	17,53
539,96	17,76
540,44	17,44
540,919	17,81
541,398	17,73
541,877	17,87
542,356	17,86
542,835	17,99
543,313	17,87
543,792	17,98
544,27	18,1
544,749	17,99
545,227	18,16
545,705	18,13
546,183	18,08
546,661	18,16
547,139	18,21
547,616	18,11
548,094	18,26
548,571	18,28
549,049	18,06
549,526	18,17
550,003	18,01
550,48	18,13
550,957	18,37
551,434	18,25
551,911	18,35
552,387	18,34
552,864	18,53
553,34	18,42
553,817	18,43
554,293	18,37
554,769	18,4
555,245	18,54
555,721	18,45
556,197	18,22
556,672	18,17
557,148	18,25
557,623	18,37
558,099	18,22
558,574	18,31
559,049	18,24
559,524	17,95
559,999	18,11
560,474	17,98
560,948	17,91
561,423	17,81
561,897	17,89
562,372	17,94
562,846	17,54
563,32	17,59
563,794	17,58
564,268	17,47
564,742	17,43
565,216	17,26
565,69	17,42
566,163	16,93
566,636	16,89
567,11	17,02
567,583	16,77
568,056	16,68
568,529	16,48
569,002	16,42
569,475	16,47
569,947	16,2
570,42	15,94
570,892	16,23
571,365	15,85
571,837	15,99
572,309	15,82
572,781	15,51
573,253	15,29
573,725	15,05
574,197	15,04
574,668	14,81
575,14	14,82
575,611	14,63
576,082	14,58
576,554	14,48
577,025	14,48
577,496	14,22
577,967	14,2
578,437	14,07
578,908	13,99
579,379	13,76
579,849	13,73
580,319	13,71
580,79	13,57
581,26	13,43
581,73	13,18
582,2	13,31
582,669	13,27
583,139	13,17
583,609	13,22
584,078	12,93
584,548	12,91
585,017	12,96
585,486	12,87
585,955	12,7
586,424	12,71
586,893	12,69
587,362	12,7
587,83	12,34
588,299	12,49
588,767	12,52
589,236	12,61
589,704	12,25
590,172	12,25
590,64	12,08
591,108	12,03
591,576	12,14
592,043	12,02
592,511	12,1
592,978	12,04
593,446	12,04
593,913	12,01
594,38	11,84
594,847	11,67
595,314	11,8
595,781	11,78
596,248	11,88
596,715	11,86
597,181	11,72
597,647	11,63
598,114	11,63
598,58	11,65
599,046	11,62
599,512	11,64
599,978	11,64
600,444	11,56
600,91	11,6
601,375	11,46
601,841	11,36
602,306	11,49
602,771	11,4
603,236	11,35
603,702	11,45
604,167	11,34
604,631	11,28
605,096	11,2
605,561	11,25
606,025	11,19
606,49	11,02
606,954	10,99
607,418	10,95
607,882	10,99
608,347	10,85
608,81	10,8
609,274	10,68
609,738	10,69
610,202	10,65
610,665	10,54
611,128	10,5
611,592	10,41
612,055	10,41
612,518	10,24
612,981	10,27
613,444	10,23
613,907	10,12
614,369	10,23
614,832	9,89
615,294	9,9
615,757	9,84
616,219	9,91
616,681	9,76
617,143	9,79
617,605	9,73
618,067	9,66
618,529	9,62
618,99	9,59
619,452	9,37
619,913	9,38
620,375	9,42
620,836	9,27
621,297	9,37
621,758	9,22
622,219	9,34
622,68	9,31
623,14	9,23
623,601	9,24
624,061	9,17
624,522	9,16
624,982	9,07
625,442	9,11
625,902	9,02
626,362	9,18
626,822	9,06
627,282	8,99
627,742	8,99
628,201	8,96
628,661	8,94
629,12	8,9
629,579	8,87
630,038	8,92
630,497	8,9
630,956	8,89
631,415	8,83
631,874	8,92
632,332	8,81
632,791	8,76
633,249	8,72
633,708	8,74
634,166	8,71
634,624	8,73
635,082	8,6
635,54	8,67
635,998	8,68
636,455	8,52
636,913	8,53
637,37	8,44
637,828	8,35
638,285	8,29
638,742	8,23
639,199	8,19
639,656	8,13
640,113	8,03
640,57	8,01
641,027	7,97
641,483	7,94
641,94	7,99
642,396	7,87
642,852	7,72
643,309	7,74
643,765	7,57
644,221	7,54
644,676	7,56
645,132	7,51
645,588	7,41
646,043	7,3
646,499	7,24
646,954	7,21
647,409	7,11
647,864	7,03
648,319	6,98
648,774	6,98
649,229	6,92
649,684	6,93
650,139	6,94
650,593	6,93
651,047	6,77
651,502	6,81
651,956	6,7
652,41	6,76
652,864	6,69
653,318	6,72
653,772	6,57
654,225	6,57
654,679	6,64
655,133	6,63
655,586	6,61
656,039	6,54
656,492	6,53
656,946	6,5
657,399	6,4
657,851	6,38
658,304	6,39
658,757	6,38
659,209	6,32
659,662	6,2
660,114	6,31
660,567	6,16
661,019	6,16
661,471	6,11
661,923	6,12
662,375	6,08
662,826	6,03
663,278	6,04
663,73	5,98
664,181	5,96
664,632	5,95
665,084	5,99
665,535	5,97
665,986	5,92
666,437	5,95
666,888	5,98
667,338	5,94
667,789	5,94
668,24	6,06
668,69	5,98
669,14	6,05
669,591	6,07
670,041	6,2
670,491	6,13
670,941	6,17
671,391	6,13
671,84	6,24
672,29	6,29
672,74	6,26
673,189	6,36
673,638	6,4
674,088	6,43
674,537	6,44
674,986	6,56
675,435	6,57
675,883	6,62
676,332	6,75
676,781	6,69
677,229	6,88
677,678	6,94
678,126	7,02
678,574	7,02
679,022	7,1
679,47	7,22
679,918	7,31
680,366	7,31
680,814	7,38
681,261	7,5
681,709	7,47
682,156	7,63
682,604	7,7
683,051	7,78
683,498	7,93
683,945	7,96
684,392	7,99
684,839	7,94
685,286	8,05
685,732	8,24
686,179	8,19
686,625	8,43
687,071	8,37
687,518	8,37
687,964	8,43
688,41	8,66
688,856	8,64
689,301	8,77
689,747	8,94
690,193	9,15
690,638	9,2
691,084	9,43
691,529	9,59
691,974	9,87
692,419	10,16
692,864	10,39
693,309	10,64
693,754	11,01
694,199	11,15
694,643	11,58
695,088	11,91
695,532	12,26
695,977	12,61
696,421	12,93
696,865	13,21
697,309	13,5
697,753	14,01
698,197	14,31
698,64	14,73
699,084	15,18
699,527	15,62
699,971	15,82
700,414	16,24
700,857	16,62
701,3	17,01
701,743	17,39
702,186	17,83
702,629	18,13
703,072	18,47
703,515	18,82
703,957	19,32
704,399	19,53
704,842	19,85
705,284	20,25
705,726	20,49
706,168	20,85
706,61	21,21
707,052	21,49
707,494	21,8
707,935	22,24
708,377	22,54
708,818	22,84
709,26	23,22
709,701	23,22
710,142	23,76
710,583	23,9
711,024	24,36
711,465	24,51
711,905	24,83
712,346	25,15
712,787	25,37
713,227	25,75
713,667	25,93
714,108	26,25
714,548	26,5
714,988	26,66
715,428	26,95
715,868	27,2
716,307	27,42
716,747	27,6
717,186	27,95
717,626	28,04
718,065	28,24
718,504	28,54
718,944	28,95
719,383	28,99
719,822	29,23
720,261	29,21
720,699	29,51
721,138	29,91
721,576	29,9
722,015	30,06
722,453	30,36
722,892	30,46
723,33	30,67
723,768	30,79
724,206	30,94
724,644	31,1
725,081	31,19
725,519	31,36
725,957	31,42
726,394	31,59
726,832	31,76
727,269	31,82
727,706	31,96
728,143	32,18
728,58	32,22
729,017	32,29
729,454	32,58
729,89	32,48
730,327	32,67
730,764	32,6
731,2	32,8
731,636	32,89
732,072	33,11
732,509	33,18
732,945	32,97
733,38	33,37
733,816	33,14
734,252	33,36
734,688	33,47
735,123	33,6
735,559	33,51
735,994	33,61
736,429	33,75
736,864	33,71
737,299	33,58
737,734	33,8
738,169	33,75
738,604	33,94
739,038	33,65
739,473	33,95
739,907	34,16
740,342	33,81
740,776	33,89
741,21	33,96
741,644	33,73
742,078	33,83
742,512	33,87
742,946	33,89
743,379	33,83
743,813	33,98
744,246	34
744,68	33,92
745,113	33,82
745,546	34,01
745,979	33,95
746,412	33,99
746,845	33,91
747,278	33,89
747,711	33,91
748,143	34,01
748,576	34,09
749,008	33,81
749,441	33,89
749,873	33,65
750,305	33,77
750,737	33,84
751,169	33,61
751,601	33,73
752,032	33,77
752,464	33,74
752,896	33,71
753,327	33,74
753,758	33,57
754,19	33,62
754,621	33,53
755,052	33,5
755,483	33,47
755,914	33,3
756,344	33,29
756,775	33,39
757,206	33,31
757,636	33,33
758,066	33,34
758,497	33,29
758,927	33,14
759,357	33,31
759,787	33,02
760,217	33,08
760,647	33,06
761,076	33,11
761,506	33,08
761,935	32,99
762,365	33,11
762,794	33,1
763,223	33,08
763,653	32,92
764,082	32,79
764,51	33,06
764,939	32,88
765,368	32,62
765,797	32,84
766,225	32,87
766,654	32,81
767,082	32,86
767,51	32,69
767,938	32,71
768,367	32,8
768,795	32,87
769,222	32,68
769,65	32,76
770,078	32,69
770,505	32,7
770,933	32,7
771,36	32,51
771,788	32,54
772,215	32,73
772,642	32,59
773,069	32,56
773,496	32,61
773,923	32,52
774,349	32,46
774,776	32,59
775,203	32,52
775,629	32,61
776,055	32,45
776,482	32,51
776,908	32,5
777,334	32,42
777,76	32,25
778,186	32,4
778,611	32,39
779,037	32,33
779,463	32,36
779,888	32,17
780,314	32,54
780,739	32,27
781,164	32,45
781,589	32,37
782,014	32,26
782,439	32,35
782,864	32,38
783,289	32,3
783,713	32,23
784,138	32,16
784,562	32,23
784,987	32,28
785,411	32,27
785,835	32,03
786,259	32,13
786,683	32,34
787,107	32,14
787,531	32,32
787,954	32,13
788,378	31,96
788,802	31,96
789,225	32,02
789,648	32,15
790,071	32,18
790,495	31,96
790,918	32,16
791,34	32,16
791,763	32,07
792,186	32,04
792,609	31,94
793,031	31,93
793,454	32,13
793,876	31,92
794,298	31,95
794,721	31,93
795,143	31,99
795,565	32,05
795,986	31,89
796,408	31,78
796,83	31,85
797,252	31,95
797,673	31,99
798,094	31,73
798,516	31,7
798,937	32,15
799,358	31,81
799,779	31,82
800,2	31,94
800,621	31,98
801,042	31,82
801,462	31,84
801,883	31,79
802,303	31,82
802,724	31,79
803,144	31,86
803,564	31,92
803,984	31,85
804,404	31,71
804,824	31,8
805,244	31,92
805,664	31,96
806,084	31,69
806,503	31,83
806,923	32
807,342	31,77
807,761	31,78
808,18	31,7
808,599	31,71
809,018	31,76
809,437	31,74
809,856	31,75
810,275	31,66
810,693	31,86
811,112	31,68
811,53	31,79
811,949	31,93
812,367	31,86
812,785	31,81
813,203	31,55
813,621	31,65
814,039	31,42
814,457	31,9
814,874	31,69
815,292	31,64
815,709	31,76
816,127	31,69
816,544	31,77
816,961	31,58
817,378	31,76
817,795	31,51
818,212	31,74
818,629	31,58
819,046	31,61
819,462	31,8
819,879	31,73
820,295	31,46
820,712	31,67
821,128	31,67
821,544	31,63
821,96	31,67
822,376	31,7
822,792	31,56
823,208	31,58
823,624	31,59
824,039	31,68
824,455	31,57
824,87	31,65
825,286	31,67
825,701	31,45
826,116	31,62
826,531	31,4
826,946	31,7
827,361	31,73
827,776	31,5
828,19	31,43
828,605	31,53
829,02	31,73
829,434	31,36
829,848	31,48
830,263	31,4
830,677	31,49
831,091	31,52
831,505	31,69
831,919	31,49
832,332	31,65
832,746	31,33
833,16	31,4
833,573	31,34
833,987	31,72
834,4	31,66
834,813	31,41
835,226	31,41
835,639	31,44
836,052	31,4
836,465	31,54
836,878	31,49
837,29	31,44
837,703	31,44
838,116	31,38
838,528	31,47
838,94	31,49
839,352	31,47
839,765	31,24
840,177	31,39
840,589	31,43
841	31,57
841,412	31,61
841,824	31,26
842,235	31,28
842,647	31,27
843,058	31,54
843,47	31,42
843,881	31,36
844,292	31,53
844,703	31,38
845,114	31,24
845,525	31,52
845,935	31,28
846,346	31,39
846,757	31,47
847,167	31,23
847,577	31,21
847,988	31,37
848,398	31,33
848,808	31,12
849,218	31,42
849,628	31,4
850,038	31,4
850,448	31,2
850,857	31,32
851,267	31,16
851,676	31,29
852,086	31,36
852,495	31,49
852,904	31,11
853,313	31,38
853,722	31,41
854,131	31,22
854,54	31,27
854,949	31,32
855,357	31,14
855,766	31,15
856,174	31,46
856,583	31,35
856,991	31,2
857,399	31,13
857,807	31,12
858,215	31,13
858,623	31,15
859,031	31,27
859,439	31,21
859,846	31,25
860,254	31,36
860,661	31,21
861,069	31,4
861,476	31,28
861,883	31,14
862,29	31,4
862,697	31,23
863,104	31,19
863,511	31,06
863,918	31,1
864,325	31,11
864,731	30,99
865,138	31,28
865,544	31,16
865,95	30,91
866,357	31,27
866,763	31,29
867,169	31,18
867,575	30,97
867,98	31,14
868,386	31,22
868,792	31,16
869,197	31,1
869,603	31,17
870,008	31,26
870,414	31,07
870,819	31,11
871,224	31,29
871,629	31,17
872,034	31,15
872,439	31,21
872,844	31,02
873,248	31,03
873,653	31,02
874,057	31,05
874,462	31,17
874,866	31,1
875,27	31,16
875,674	31,15
876,078	31,35
876,482	31,17
876,886	30,94
877,29	31,22
877,694	31,2
878,097	31,2
878,501	31,3
878,904	31,07
879,308	30,9
879,711	31,07
880,114	31,15
880,517	31,07
880,92	30,9
881,323	31,14
881,726	31,03
882,128	30,94
882,531	30,96
882,934	31,21
883,336	30,87
883,738	31,11
884,141	31,23
884,543	30,99
884,945	31,01
885,347	31,1
885,749	30,81
886,151	31,11
886,552	31,09
886,954	30,94
887,355	31,1
887,757	30,94
888,158	30,83
888,56	30,92
888,961	30,98
889,362	30,95
889,763	31
890,164	30,81
890,565	30,84
890,965	30,94
891,366	30,87
891,767	30,87
892,167	31,01
892,567	31,04
892,968	30,94
893,368	31
893,768	30,77
894,168	30,83
894,568	31,17
894,968	31,18
895,368	31,02
895,767	30,94
896,167	30,79
896,566	31,09
896,966	30,91
897,365	31,14
897,764	30,8
898,164	30,86
898,563	30,9
898,962	30,6
899,361	30,91
899,759	30,68
900,158	30,7
900,557	30,87
900,955	30,93
901,354	30,85
901,752	31,13
902,15	30,92
902,548	30,66
902,947	30,88
903,345	30,78
903,742	30,93
904,14	30,95
904,538	30,85
904,936	30,78
905,333	30,92
905,731	30,59
906,128	30,86
906,525	30,97
906,923	30,88
907,32	30,93
907,717	30,94
908,114	30,77
908,511	30,95
908,907	30,84
909,304	30,87
909,701	31,04
910,097	30,89
910,494	30,72
910,89	30,92
911,286	30,7
911,682	30,73
912,078	30,85
912,474	30,77
912,87	30,95
913,266	30,69
913,662	30,85
914,058	31,09
914,453	31,02
914,849	30,74
915,244	30,7
915,639	31,04
916,034	30,71
916,43	30,83
916,825	30,91
917,22	30,97
917,614	30,85
918,009	30,79
918,404	30,75
918,798	31,04
919,193	30,9
919,587	30,9
919,982	30,76
920,376	30,67
920,77	30,8
921,164	30,5
921,558	31,06
921,952	30,56
922,346	30,82
922,74	30,73
923,133	30,62
923,527	30,7
923,92	30,69
924,314	30,82
924,707	30,69
925,1	30,56
925,493	30,75
925,886	30,77
926,279	30,61
926,672	30,78
927,065	30,6
927,457	30,59
927,85	30,82
928,243	30,67
928,635	30,49
929,027	30,66
929,42	30,63
929,812	30,57
930,204	30,83
930,596	30,84
930,988	30,52
931,379	30,42
931,771	30,72
932,163	30,7
932,554	30,69
932,946	30,56
933,337	30,5
933,729	30,66
934,12	31
934,511	30,46
934,902	30,53
935,293	30,53
935,684	30,32
936,075	30,59
936,465	30,38
936,856	30,28
937,246	30,64
937,637	30,84
938,027	30,58
938,417	30,23
938,808	30,68
939,198	30,14
939,588	30,3
939,978	30,72
940,368	30,56
940,757	30,73
941,147	30,31
941,537	30,2
941,926	30,29
942,315	30,24
942,705	30,45
943,094	30,61
943,483	30,58
943,872	30,41
944,261	30,22
944,65	30,76
945,039	30,78
945,428	29,89
945,816	30,27
946,205	30,07
946,593	30,2
946,982	30,53
947,37	30,28
947,758	30,29
948,146	29,83
948,534	30,41
948,922	30,41
949,31	30,2
949,698	30,49
950,086	30,48
950,473	30,36
950,861	30,1
951,248	29,86
951,636	29,95
952,023	30,2
952,41	30,27
952,797	30,03
953,184	30,36
953,571	30,43
953,958	29,9
954,345	30,06
954,731	30,25
955,118	30,07
955,505	30,15
955,891	29,98
956,277	29,99
956,664	30,02
957,05	29,96
957,436	29,96
957,822	30,04
958,208	30,1
958,594	29,63
958,979	29,95
959,365	29,81
959,751	30,06
960,136	29,74
960,522	29,9
960,907	29,93
961,292	29,69
961,677	30,02
962,062	29,75
962,447	29,87
962,832	29,74
963,217	29,86
963,602	29,73
963,986	29,77
964,371	30,01
964,756	29,83
965,14	29,85
965,524	30,07
965,908	29,68
966,293	29,79
966,677	29,47
967,061	29,94
967,445	29,91
967,828	29,85
968,212	29,8
968,596	29,95
968,979	30,18
969,363	29,88
969,746	29,79
970,129	29,96
970,513	29,96
970,896	29,79
971,279	29,86
971,662	29,75
972,045	29,69
972,428	29,84
972,81	29,78
973,193	29,95
973,575	29,7
973,958	29,9
974,34	30
974,723	29,98
975,105	29,79
975,487	29,65
975,869	29,72
976,251	29,92
976,633	29,85
977,015	29,74
977,396	30,08
977,778	30,1
978,16	29,71
978,541	29,98
978,922	30,04
979,304	30,02
979,685	29,62
980,066	29,95
980,447	29,88
980,828	29,78
981,209	29,98
981,59	30,06
981,97	29,51
982,351	29,93
982,732	29,65
983,112	29,91
983,493	29,48
983,873	29,89
984,253	29,53
984,633	29,76
985,013	29,77
985,393	29,95
985,773	29,64
986,153	29,69
986,533	29,64
986,912	29,93
987,292	29,62
987,671	29,96
988,051	29,85
988,43	30,16
988,809	29,9
989,188	29,69
989,567	29,67
989,946	30,11
990,325	30,05
990,704	29,91
991,083	29,61
991,461	29,86
991,84	29,98
992,218	29,87
992,597	29,93
992,975	29,78
993,353	30,02
993,732	30,28
994,11	29,97
994,488	29,85
994,866	29,71
995,243	29,54
995,621	29,92
995,999	30,03
996,376	29,86
996,754	29,83
997,131	29,8
997,509	29,8
997,886	29,85
998,263	29,68
998,64	29,85
999,017	30,11
999,394	29,69
999,771	30,08
1000,148	29,96
1000,524	30
1000,901	29,93
1001,277	29,84
1001,654	30,18
1002,03	30,18
1002,406	30,24
1002,783	30,02
1003,159	30,04
1003,535	29,98
1003,911	29,68
1004,286	29,76
1004,662	30,11
1005,038	29,93
1005,414	30,26
1005,789	30,1
1006,164	29,75
1006,54	29,91
1006,915	30,37
1007,29	29,65
1007,665	30,11
1008,04	30,21
1008,415	30,33
1008,79	30,27
1009,165	30,03
1009,54	29,84
1009,914	29,76
1010,289	30,09
1010,663	30,05
1011,038	30,05
1011,412	30,54
1011,786	29,89
1012,16	29,93
1012,535	29,69
1012,909	30,52
1013,282	30,46
1013,656	30,26
1014,03	29,74
1014,404	30,28
1014,777	29,69
1015,151	30,13
1015,524	30,39
1015,897	30,36
1016,271	30,21
1016,644	30,12
1017,017	30,2
1017,39	30,23
1017,763	29,92
1018,136	29,9
1018,508	29,58
1018,881	30,28
1019,254	29,61
1019,626	29,96
1019,999	29,73
1020,371	29,92
1020,743	30,28
1021,116	29,86
1021,488	30,18
1021,86	29,85
1022,232	30,12
1022,604	29,7
1022,975	30,15
1023,347	30,34
1023,719	30,07
1024,09	30,66
1024,462	30,11
1024,833	29,91
1025,204	29,77
1025,576	30,3
1025,947	30,06
1026,318	29,94
1026,689	30,47
1027,06	30,14
1027,431	30,48
1027,801	30,25
1028,172	30,15
1028,543	30,26
1028,913	30,19
1029,284	30,09
1029,654	29,94
1030,024	29,87
1030,394	30,03
1030,764	30,06
1031,135	30,09
1031,504	29,89
1031,874	30,56
1032,244	29,82
1032,614	30,34
1032,983	29,93
1033,353	30,2
1033,722	29,63
1034,092	30,07
1034,461	30,25
1034,83	30,62
1035,2	30,35
1035,569	29,95
1035,938	30,03
1036,307	30,3
1036,675	30,17
1037,044	30,12
1037,413	30,3
1037,781	30,34
1038,15	30,18
1038,518	29,9
1038,887	30,26
1039,255	30,5
1039,623	29,89
1039,991	30,98
1040,359	30,26
1040,727	30,34
1041,095	29,92
1041,463	30,66
1041,831	30,34
1042,198	29,68
1042,566	30,2
1042,933	29,81
1043,301	29,99
1043,668	30,07
1044,035	30,14
1044,402	29,88
1044,77	29,75
1045,137	29,9
1045,503	30,24
1045,87	30,12
1046,237	29,77
1046,604	29,72
1046,97	30,01
1047,337	29,88
1047,703	30,75
1048,07	30,04
1048,436	30,46
1048,802	30,15
1049,168	30,22
1049,534	30,72
1049,9	30,52
1050,266	30,22
1050,632	30,07
1050,998	29,78
1051,364	30,32
1051,729	31,05
1052,095	30,4
1052,46	30,13
1052,825	30,01
1053,191	30,8
1053,556	29,9
1053,921	29,84
1054,286	29,82
1054,651	30,92
1055,016	30,35
1055,381	30,2
1055,745	30,44
1056,11	30,04
1056,475	30,5
1056,839	30,62
1057,203	30,03
1057,568	30,11
1057,932	29,89
1058,296	30,3
1058,66	30,14
1059,024	30,46
1059,388	30,15
1059,752	30,13
1060,116	30,15
1060,48	30,69
1060,843	30,11
1061,207	29,91
1061,57	29,71
1061,934	30,45
1062,297	30,31
1062,66	30,35
1063,023	30,04
1063,386	30,17
1063,749	30,15
1064,112	30,86
1064,475	30,51
1064,838	30,38
1065,201	29,3
1065,563	29,71
1065,926	30,04
1066,288	30,17
1066,651	30,05
1067,013	30,21
1067,375	30,68
1067,737	29,51
1068,099	30,65
1068,461	30,28
1068,823	30,89
1069,185	30,34
1069,547	30,03
1069,909	29,16
1070,27	30,01
1070,632	30,4
1070,993	29,46
1071,355	29,89
1071,716	29,65
1072,077	29,86
1072,438	30,84
1072,799	30,64
1073,16	30,7
1073,521	29,98
1073,882	30,06
1074,243	30,33
1074,603	29,85
1074,964	29,99
1075,325	29,77
1075,685	31,26
1076,045	30,09
1076,406	29,63
1076,766	30,24
1077,126	29,71
1077,486	30,24
1077,846	30,12
1078,206	30,68
1078,566	30,42
1078,925	30,21
1079,285	31
1079,645	30,74
1080,004	29,75
1080,364	30,38
1080,723	29,32
1081,082	29,84
1081,442	29,78
1081,801	29,8
1082,16	30,51
1082,519	30,47
1082,878	30,56
1083,237	29,87
1083,595	29,79
1083,954	30,67
1084,313	30,71
1084,671	30,43
1085,03	30,4
1085,388	29,37
1085,746	29,96
1086,104	29,25
1086,463	29,45
1086,821	29,82
1087,179	31,4
1087,537	29,45
1087,894	30,31
1088,252	29,85
1088,61	29,99
1088,967	29,74
1089,325	29,51
1089,682	30,33
1090,04	29,48
1090,397	29,54
1090,754	30,94
1091,111	28,26
1091,469	29,89
1091,826	30,73
1092,182	29,95
1092,539	30,32
1092,896	29,83
1093,253	30,18
1093,609	29,87
1093,966	29,24
1094,322	29,25
1094,679	30,94
1095,035	30,18
1095,391	29,57
1095,748	30,82
1096,104	30,29
1096,46	29,99
1096,816	31,19
1097,171	31,91
1097,527	30,09
1097,883	29,07
1098,239	28,18
1098,594	31,97
1098,95	29,95
1099,305	29,56
1099,66	30,55
1100,016	30
1100,371	30,64
1100,726	29,99
1101,081	30,21
1101,436	30,4
1101,791	29,48
1102,146	30,59
1102,5	30,83
1102,855	28,83
1103,21	31,69
1103,564	30,24
1103,918	29,82
1104,273	30,83
1104,627	31,54
1104,981	29,16
1105,335	30,82
1105,69	29,16
1106,043	30,94
1106,397	31,22
1106,751	30,61
1107,105	31,07
1107,459	30,89
1107,812	30,84
1108,166	29,56
1108,519	30,05
1108,873	29,4
1109,226	30,87
1109,579	30,91
1109,932	28,7
1110,285	28,87
1110,638	29,75
1110,991	31,78
1111,344	29,91
1111,697	29,62
1112,05	30,26
1112,402	30,86
1112,755	31,18
1113,107	29,52
1113,46	31,75
1113,812	29,98
1114,164	31,28
1114,517	30,44
1114,869	33,71
1115,221	31,25
1115,573	31,96
1115,924	30,05
