Data from D_5_0_Relative__6__00097.txt Node

Date: Mon Jan 29 12:58:23 CET 2024
User: diatiterra
Spectrometer: HDX00911
Trigger mode: 0
Integration Time (sec): 6,000000E-3
Scans to average: 2
Nonlinearity correction enabled: false
Boxcar width: 0
Storing dark spectrum: false
XAxis mode: Wavelengths
Number of Pixels in Spectrum: 2068
>>>>>Begin Spectral Data<<<<<
194,468	37,8
195,025	42,21
195,581	51,74
196,138	52,05
196,694	52,13
197,251	50,93
197,807	50,36
198,363	42,98
198,919	54,6
199,474	48,44
200,03	45,7
200,586	48,23
201,141	48,72
201,696	48,6
202,251	41,14
202,806	43,94
203,361	43,88
203,916	40,72
204,471	51,02
205,025	47,53
205,58	53,02
206,134	40,04
206,688	44,47
207,242	38
207,796	40
208,35	49,66
208,904	41,63
209,457	51,4
210,011	42,92
210,564	44,28
211,117	42,75
211,67	52,11
212,223	44,54
212,776	48,19
213,329	46,87
213,881	46,82
214,434	48,36
214,986	51,25
215,538	44,03
216,09	53,27
216,642	49,68
217,194	44,58
217,746	56,14
218,297	50,21
218,849	37,77
219,4	48,02
219,951	36
220,502	47,97
221,053	38,87
221,604	41,46
222,155	47,82
222,705	40,29
223,256	50,11
223,806	49,69
224,356	42,95
224,906	46,96
225,456	44,42
226,006	45,68
226,556	41,34
227,106	41,96
227,655	48,83
228,204	42,7
228,754	47,02
229,303	48,57
229,852	54
230,401	45,05
230,949	45,49
231,498	40,67
232,047	49,46
232,595	45,82
233,143	47,58
233,691	35,66
234,239	40,62
234,787	46,59
235,335	50,11
235,883	47,15
236,43	42,15
236,978	36,81
237,525	43,97
238,072	41,83
238,619	43,46
239,166	51,43
239,713	40,37
240,26	50,41
240,806	46,1
241,353	48,97
241,899	51,54
242,445	42,27
242,991	43,6
243,537	37,24
244,083	40,25
244,629	48,09
245,174	39,74
245,72	52,44
246,265	44,99
246,81	48,08
247,355	53,18
247,9	44,2
248,445	42,86
248,99	41,07
249,534	41,27
250,079	44,89
250,623	47,83
251,168	43,62
251,712	45,59
252,256	38,92
252,8	48,37
253,343	38,63
253,887	53,19
254,43	37,98
254,974	44,47
255,517	43,5
256,06	49,67
256,603	38,18
257,146	43,62
257,689	43,07
258,232	39
258,774	42,82
259,317	38,83
259,859	50,11
260,401	50,65
260,943	43,78
261,485	43,11
262,027	41,14
262,569	44
263,11	47,65
263,652	48,47
264,193	39,48
264,734	44,04
265,275	52,82
265,816	40,22
266,357	39,46
266,898	42,24
267,438	46,79
267,979	44,25
268,519	49,67
269,059	50
269,6	36,34
270,14	46,85
270,68	36,86
271,219	45,15
271,759	53,26
272,298	36,97
272,838	37,16
273,377	48,35
273,916	46,31
274,455	40,76
274,994	34,36
275,533	42,96
276,072	45,28
276,61	40,97
277,149	46,6
277,687	37,07
278,225	40,95
278,763	45,7
279,301	40,67
279,839	37,63
280,377	33,41
280,914	35,73
281,452	44,72
281,989	47,47
282,526	41,42
283,064	39,72
283,601	41,76
284,137	40
284,674	49,76
285,211	47,93
285,747	39,62
286,284	44,52
286,82	47,15
287,356	36,42
287,892	45,8
288,428	34,76
288,964	47,53
289,5	33,26
290,035	36,64
290,571	43,66
291,106	40,35
291,641	56,36
292,176	50,86
292,711	43,64
293,246	40,37
293,781	36,12
294,315	39,15
294,85	35,62
295,384	47,64
295,918	37,78
296,453	39,62
296,987	39,1
297,52	35,31
298,054	41,39
298,588	41,96
299,121	45,68
299,655	40,95
300,188	35,99
300,721	42,09
301,254	41,78
301,787	42,86
302,32	44,24
302,853	42,07
303,385	37
303,918	39,2
304,45	42,54
304,982	46,89
305,514	40,97
306,046	32,39
306,578	34,32
307,11	37,53
307,641	47,32
308,173	42,27
308,704	45,98
309,236	40,39
309,767	43,53
310,298	44,35
310,829	48,83
311,359	42,29
311,89	38,15
312,421	37,44
312,951	42,79
313,481	31,34
314,012	37,58
314,542	33,41
315,072	33,42
315,601	46,4
316,131	39,36
316,661	38,41
317,19	43,67
317,72	37,62
318,249	33,41
318,778	37,75
319,307	45,18
319,836	38,57
320,365	37,79
320,893	41,34
321,422	33,87
321,95	38,44
322,479	40,18
323,007	41,06
323,535	43,02
324,063	40,66
324,591	37,83
325,118	43,52
325,646	40,57
326,173	34,02
326,701	45
327,228	39,09
327,755	40,91
328,282	42,25
328,809	39,96
329,336	31,64
329,862	45,68
330,389	36,09
330,915	41,82
331,441	34,97
331,968	33,49
332,494	40,5
333,02	35,91
333,545	44,06
334,071	26,56
334,597	37,5
335,122	41,87
335,648	40,98
336,173	30,15
336,698	40,37
337,223	39,05
337,748	41,18
338,272	46,23
338,797	36,01
339,322	38,69
339,846	32,55
340,37	41,01
340,894	27,84
341,419	48,11
341,942	32,45
342,466	39,25
342,99	48,13
343,514	42,35
344,037	40,4
344,56	35,43
345,084	39,77
345,607	34,3
346,13	39,69
346,653	45,27
347,175	37,17
347,698	42,24
348,221	41,9
348,743	42,38
349,265	40,87
349,787	35,94
350,309	40,85
350,831	42,24
351,353	42,17
351,875	36,91
352,397	33,33
352,918	44,37
353,439	37,94
353,961	36,13
354,482	36,36
355,003	38,95
355,524	36,74
356,044	44,27
356,565	44,38
357,086	45,13
357,606	40,71
358,126	34,87
358,646	43,35
359,167	36,65
359,687	42,45
360,206	38,7
360,726	39,13
361,246	45,74
361,765	41,75
362,285	35,49
362,804	39,78
363,323	39,75
363,842	41,92
364,361	39,84
364,88	36,18
365,398	38,82
365,917	41,2
366,435	44,34
366,954	39,65
367,472	40,44
367,99	41,12
368,508	37,22
369,026	42,84
369,544	40
370,061	44,57
370,579	35,11
371,096	34,22
371,613	42,55
372,131	40,8
372,648	35,41
373,165	36,84
373,681	39,25
374,198	38,68
374,715	35,39
375,231	38,64
375,747	30,03
376,264	36,97
376,78	38,4
377,296	40,95
377,812	39,46
378,327	38,92
378,843	34,86
379,359	37,97
379,874	35,62
380,389	38,47
380,905	40,83
381,42	36,77
381,935	34,81
382,449	39,24
382,964	37,11
383,479	35,12
383,993	36,95
384,508	36,21
385,022	33,65
385,536	32,5
386,05	33,01
386,564	35,12
387,078	34,33
387,592	34,32
388,105	30,94
388,619	31,94
389,132	33,88
389,645	30,73
390,158	34,8
390,671	31,37
391,184	31,93
391,697	30,3
392,21	31,26
392,722	31,87
393,235	29,79
393,747	29,24
394,259	30,76
394,771	29,15
395,283	29,35
395,795	29,5
396,307	30,95
396,818	28,41
397,33	29,24
397,841	26,47
398,353	27,89
398,864	27,88
399,375	27,3
399,886	25,03
400,397	27,83
400,907	25,98
401,418	25,24
401,928	25,51
402,439	23,85
402,949	24,99
403,459	24,63
403,969	23,66
404,479	23,87
404,989	22,41
405,498	21,49
406,008	21,53
406,517	20,18
407,027	20,71
407,536	20,55
408,045	20,11
408,554	19,29
409,063	19,55
409,572	18,12
410,08	18,06
410,589	17,5
411,097	16,24
411,606	16,87
412,114	14,82
412,622	15,48
413,13	15,57
413,638	15,8
414,145	14,98
414,653	14,92
415,16	14,17
415,668	14,28
416,175	13,09
416,682	13,98
417,189	12,88
417,696	12,72
418,203	12,08
418,71	13,1
419,216	12,41
419,723	12,5
420,229	12,5
420,735	11,31
421,242	11,56
421,748	11,79
422,254	11,91
422,759	11,61
423,265	11,14
423,771	10,89
424,276	10,88
424,781	11,52
425,287	11,61
425,792	10,85
426,297	11,27
426,802	11,06
427,306	10,87
427,811	11,21
428,316	10,62
428,82	10,63
429,324	10,78
429,829	10,49
430,333	10,42
430,837	11,04
431,34	10,57
431,844	10,69
432,348	10,17
432,851	9,9
433,355	10,15
433,858	10,66
434,361	10,68
434,864	10,7
435,367	10,5
435,87	10,25
436,373	9,75
436,876	10,72
437,378	10,16
437,88	9,91
438,383	10,55
438,885	10,12
439,387	10,29
439,889	10,46
440,391	10,4
440,892	9,76
441,394	10,47
441,896	10,44
442,397	9,67
442,898	10,79
443,399	10,42
443,9	9,65
444,401	10,18
444,902	9,96
445,403	10,37
445,903	10,17
446,404	10,04
446,904	10,53
447,405	10,22
447,905	9,84
448,405	10,44
448,905	10,34
449,404	10,25
449,904	10,6
450,404	10,38
450,903	10,07
451,403	10,53
451,902	10,23
452,401	10,15
452,9	10,12
453,399	10,1
453,898	10,51
454,396	9,98
454,895	10,28
455,393	10,63
455,892	10,45
456,39	10,46
456,888	10,5
457,386	10,96
457,884	10,55
458,382	10,4
458,879	10,17
459,377	10,43
459,874	10,47
460,372	9,97
460,869	10,71
461,366	10,41
461,863	10,53
462,36	10,55
462,857	10,53
463,353	10,23
463,85	10,67
464,346	10,16
464,843	10,63
465,339	10,74
465,835	10,07
466,331	10,64
466,827	10,27
467,323	10,75
467,818	10,56
468,314	10,61
468,809	10,43
469,305	10,75
469,8	10,06
470,295	10,58
470,79	10,53
471,285	10,34
471,78	10,55
472,274	10,77
472,769	10,44
473,263	10,38
473,758	10,58
474,252	10,8
474,746	10,5
475,24	10,37
475,734	10,78
476,228	10,56
476,721	10,37
477,215	10,69
477,708	11
478,202	10,86
478,695	10,85
479,188	10,3
479,681	10,61
480,174	10,52
480,667	10,45
481,159	10,53
481,652	10,55
482,144	10,74
482,637	10,45
483,129	10,57
483,621	10,67
484,113	10,56
484,605	11
485,097	10,99
485,588	10,76
486,08	11,01
486,571	10,88
487,063	10,71
487,554	11,05
488,045	10,87
488,536	10,79
489,027	11,43
489,518	10,86
490,008	10,86
490,499	11,17
490,989	11,31
491,48	11,11
491,97	11,32
492,46	11,02
492,95	11,16
493,44	11,51
493,93	11,26
494,419	11,73
494,909	11,08
495,398	11,49
495,888	11,14
496,377	11,47
496,866	11,19
497,355	11,43
497,844	11,56
498,333	11,39
498,821	12,05
499,31	11,93
499,798	11,73
500,287	11,82
500,775	12,14
501,263	12,3
501,751	12,18
502,239	12,42
502,727	12,45
503,215	12,55
503,702	12,2
504,19	12,95
504,677	12,64
505,164	12,87
505,651	13,24
506,139	13,24
506,625	13,34
507,112	13,8
507,599	13,69
508,086	13,85
508,572	13,6
509,058	14
509,545	13,86
510,031	14,61
510,517	14,57
511,003	14,91
511,489	14,82
511,974	14,81
512,46	15,61
512,946	15,43
513,431	15,81
513,916	16,34
514,401	16,57
514,887	16,56
515,371	16,97
515,856	17,04
516,341	17,3
516,826	17,4
517,31	18,01
517,795	18,42
518,279	18,48
518,763	18,93
519,247	19,4
519,731	19,42
520,215	19,6
520,699	19,66
521,182	20,51
521,666	20,43
522,149	20,81
522,633	21,67
523,116	21,54
523,599	22,11
524,082	22,04
524,565	22,58
525,048	22,91
525,53	23,05
526,013	23,65
526,495	23,75
526,978	24,15
527,46	24,32
527,942	24,21
528,424	24,31
528,906	25,17
529,388	25,16
529,87	25,1
530,351	25,6
530,833	25,79
531,314	25,85
531,795	26,25
532,277	26,22
532,758	26,33
533,238	26,46
533,719	26,58
534,2	27,24
534,681	27,19
535,161	27,16
535,642	27,07
536,122	27,24
536,602	27,46
537,082	27,76
537,562	27,79
538,042	26,98
538,522	27,96
539,001	27,85
539,481	27,72
539,96	28,14
540,44	28,05
540,919	27,75
541,398	28,14
541,877	28,51
542,356	28,49
542,835	28,14
543,313	28,48
543,792	28,12
544,27	28,47
544,749	28,19
545,227	28,43
545,705	28,55
546,183	28,18
546,661	28,25
547,139	28,81
547,616	28,77
548,094	28,63
548,571	28,95
549,049	28,97
549,526	29,18
550,003	29,17
550,48	29,11
550,957	28,66
551,434	28,98
551,911	28,59
552,387	29,02
552,864	29,09
553,34	29,17
553,817	28,98
554,293	28,89
554,769	28,96
555,245	28,83
555,721	29,09
556,197	29,02
556,672	28,87
557,148	28,64
557,623	28,75
558,099	28,79
558,574	28,96
559,049	28,86
559,524	28,53
559,999	28,61
560,474	28,36
560,948	29,08
561,423	28,65
561,897	28,39
562,372	27,98
562,846	28,06
563,32	28,12
563,794	28,02
564,268	27,56
564,742	27,53
565,216	27,54
565,69	27,19
566,163	27,1
566,636	26,94
567,11	26,88
567,583	26,77
568,056	26,75
568,529	26,57
569,002	25,72
569,475	25,99
569,947	25,67
570,42	25,69
570,892	25,31
571,365	25,48
571,837	25,13
572,309	24,63
572,781	24,69
573,253	24,47
573,725	24,3
574,197	24,07
574,668	23,78
575,14	23,82
575,611	23,35
576,082	23,28
576,554	23,21
577,025	23,19
577,496	22,83
577,967	22,86
578,437	22,82
578,908	22,58
579,379	22,59
579,849	22,45
580,319	22,03
580,79	22,04
581,26	22,04
581,73	21,59
582,2	21,58
582,669	21,57
583,139	21,45
583,609	21,37
584,078	21,14
584,548	21,01
585,017	21,09
585,486	20,75
585,955	20,8
586,424	20,67
586,893	20,83
587,362	20,62
587,83	20,44
588,299	20,28
588,767	20,15
589,236	20,29
589,704	19,99
590,172	19,95
590,64	20,01
591,108	19,74
591,576	19,95
592,043	19,56
592,511	19,78
592,978	19,65
593,446	19,59
593,913	19,6
594,38	19,67
594,847	19,31
595,314	19,14
595,781	19,23
596,248	19,34
596,715	19,27
597,181	19,26
597,647	19,28
598,114	18,98
598,58	18,81
599,046	19,12
599,512	19,22
599,978	19,05
600,444	19,16
600,91	18,79
601,375	18,97
601,841	18,8
602,306	18,61
602,771	19,04
603,236	18,67
603,702	18,54
604,167	18,67
604,631	18,7
605,096	18,51
605,561	18,31
606,025	18,14
606,49	18,17
606,954	18,26
607,418	17,94
607,882	17,8
608,347	17,94
608,81	17,84
609,274	17,57
609,738	17,73
610,202	17,57
610,665	17,39
611,128	17,47
611,592	17,26
612,055	17,15
612,518	17,19
612,981	16,92
613,444	16,74
613,907	16,85
614,369	16,94
614,832	16,62
615,294	16,53
615,757	16,57
616,219	16,37
616,681	16,33
617,143	16,19
617,605	16,23
618,067	16,1
618,529	16,21
618,99	16,03
619,452	15,97
619,913	15,79
620,375	15,9
620,836	15,75
621,297	15,71
621,758	15,59
622,219	15,54
622,68	15,56
623,14	15,49
623,601	15,42
624,061	15,48
624,522	15,28
624,982	15,47
625,442	15,24
625,902	15,4
626,362	15,35
626,822	15,25
627,282	15,16
627,742	15,06
628,201	15,26
628,661	15,18
629,12	15,1
629,579	15,12
630,038	15,18
630,497	15,17
630,956	14,93
631,415	14,84
631,874	15,12
632,332	14,92
632,791	15,03
633,249	14,79
633,708	14,57
634,166	14,82
634,624	14,46
635,082	14,64
635,54	14,57
635,998	14,62
636,455	14,59
636,913	14,46
637,37	14,27
637,828	14,2
638,285	14,07
638,742	14,12
639,199	14,01
639,656	13,78
640,113	13,64
640,57	13,51
641,027	13,52
641,483	13,45
641,94	13,34
642,396	13,13
642,852	13,23
643,309	13,11
643,765	12,79
644,221	12,92
644,676	12,73
645,132	12,58
645,588	12,4
646,043	12,45
646,499	12,33
646,954	12,31
647,409	12,15
647,864	11,98
648,319	12,07
648,774	11,97
649,229	11,98
649,684	11,89
650,139	12,05
650,593	11,63
651,047	11,67
651,502	11,59
651,956	11,71
652,41	11,58
652,864	11,41
653,318	11,54
653,772	11,46
654,225	11,47
654,679	11,21
655,133	11,46
655,586	11,46
656,039	11,29
656,492	11,36
656,946	11,32
657,399	11,14
657,851	11,28
658,304	11,24
658,757	11,07
659,209	11,04
659,662	10,81
660,114	10,84
660,567	10,76
661,019	10,78
661,471	10,77
661,923	10,7
662,375	10,62
662,826	10,66
663,278	10,55
663,73	10,48
664,181	10,51
664,632	10,47
665,084	10,27
665,535	10,58
665,986	10,56
666,437	10,45
666,888	10,63
667,338	10,64
667,789	10,56
668,24	10,51
668,69	10,64
669,14	10,62
669,591	10,62
670,041	10,64
670,491	10,86
670,941	10,7
671,391	10,91
671,84	10,88
672,29	11,02
672,74	10,93
673,189	11,05
673,638	11,14
674,088	11,27
674,537	11,24
674,986	11,46
675,435	11,45
675,883	11,65
676,332	11,73
676,781	11,81
677,229	11,87
677,678	12
678,126	12,22
678,574	12,24
679,022	12,43
679,47	12,67
679,918	12,74
680,366	12,61
680,814	12,79
681,261	12,89
681,709	13,12
682,156	13,09
682,604	13,45
683,051	13,35
683,498	13,51
683,945	13,6
684,392	13,64
684,839	13,64
685,286	13,87
685,732	14,07
686,179	14,01
686,625	14,08
687,071	14,34
687,518	14,34
687,964	14,37
688,41	14,61
688,856	14,68
689,301	14,84
689,747	14,99
690,193	15,33
690,638	15,34
691,084	15,85
691,529	16,1
691,974	16,46
692,419	16,89
692,864	17,17
693,309	17,53
693,754	17,74
694,199	18,51
694,643	18,8
695,088	19,29
695,532	19,89
695,977	20,35
696,421	20,77
696,865	21,49
697,309	21,89
697,753	22,56
698,197	23,01
698,64	23,63
699,084	23,91
699,527	24,64
699,971	25,32
700,414	25,73
700,857	26,36
701,3	26,72
701,743	27,39
702,186	27,63
702,629	28,26
703,072	28,66
703,515	29,57
703,957	29,97
704,399	30,44
704,842	30,91
705,284	31,15
705,726	31,9
706,168	32,32
706,61	32,85
707,052	33,2
707,494	33,63
707,935	34,14
708,377	34,52
708,818	34,89
709,26	35,45
709,701	35,85
710,142	36,23
710,583	36,8
711,024	36,84
711,465	37,24
711,905	37,83
712,346	38,48
712,787	38,65
713,227	39,18
713,667	39,37
714,108	39,6
714,548	40,27
714,988	40,63
715,428	41,11
715,868	40,93
716,307	41,38
716,747	41,99
717,186	41,95
717,626	42,68
718,065	42,86
718,504	43,26
718,944	43,71
719,383	43,74
719,822	44,19
720,261	44,27
720,699	44,66
721,138	45,27
721,576	45,46
722,015	45,39
722,453	45,78
722,892	45,89
723,33	46,49
723,768	46,39
724,206	46,83
724,644	47,07
725,081	47,26
725,519	47,58
725,957	47,79
726,394	47,68
726,832	48,08
727,269	48,15
727,706	48,54
728,143	48,3
728,58	48,48
729,017	48,77
729,454	49,03
729,89	49,07
730,327	49,05
730,764	49,27
731,2	49,48
731,636	49,57
732,072	49,71
732,509	49,96
732,945	49,89
733,38	49,82
733,816	49,86
734,252	50,09
734,688	50,25
735,123	50,46
735,559	50,43
735,994	50,38
736,429	50,86
736,864	50,64
737,299	50,67
737,734	50,64
738,169	50,87
738,604	50,72
739,038	51,06
739,473	50,96
739,907	51,28
740,342	51,07
740,776	51
741,21	51,24
741,644	50,9
742,078	50,79
742,512	50,96
742,946	50,72
743,379	51,11
743,813	51
744,246	50,85
744,68	50,99
745,113	51,01
745,546	50,98
745,979	51,15
746,412	51,12
746,845	50,96
747,278	50,77
747,711	51,09
748,143	50,72
748,576	50,78
749,008	51,01
749,441	51,01
749,873	51,02
750,305	50,53
750,737	50,53
751,169	50,59
751,601	50,87
752,032	50,68
752,464	50,58
752,896	50,41
753,327	50,58
753,758	50,41
754,19	50,4
754,621	50,21
755,052	50,28
755,483	50,17
755,914	49,85
756,344	49,99
756,775	50,45
757,206	50,22
757,636	50,29
758,066	49,84
758,497	49,87
758,927	49,77
759,357	50,29
759,787	50,21
760,217	49,98
760,647	49,86
761,076	50,27
761,506	49,62
761,935	49,85
762,365	49,48
762,794	49,69
763,223	49,18
763,653	49,69
764,082	49,54
764,51	49,43
764,939	49,25
765,368	49,06
765,797	49,3
766,225	49,25
766,654	49,38
767,082	49,22
767,51	49,38
767,938	49,12
768,367	49,03
768,795	49,23
769,222	49,18
769,65	49,47
770,078	49,08
770,505	48,97
770,933	48,99
771,36	48,94
771,788	48,9
772,215	48,64
772,642	49,05
773,069	48,8
773,496	49,19
773,923	48,51
774,349	48,86
774,776	48,68
775,203	48,76
775,629	48,89
776,055	48,8
776,482	48,68
776,908	48,62
777,334	48,81
777,76	48,54
778,186	48,54
778,611	48,65
779,037	48,52
779,463	48,18
779,888	48,57
780,314	48,85
780,739	48,37
781,164	48,58
781,589	48,26
782,014	48,26
782,439	48,21
782,864	48,4
783,289	48,01
783,713	48,4
784,138	48,09
784,562	48,45
784,987	48,51
785,411	48,09
785,835	48,4
786,259	48,27
786,683	48,25
787,107	48,2
787,531	48,03
787,954	48,48
788,378	48,3
788,802	47,67
789,225	48,29
789,648	48,23
790,071	48,1
790,495	47,93
790,918	48,01
791,34	48,41
791,763	47,93
792,186	48,45
792,609	47,86
793,031	47,9
793,454	48,13
793,876	48,11
794,298	47,87
794,721	48,13
795,143	48,04
795,565	48,01
795,986	47,8
796,408	47,93
796,83	47,96
797,252	47,91
797,673	47,59
798,094	47,56
798,516	47,95
798,937	47,77
799,358	47,77
799,779	47,93
800,2	47,56
800,621	47,9
801,042	47,85
801,462	47,69
801,883	47,82
802,303	47,49
802,724	47,71
803,144	47,73
803,564	47,86
803,984	47,93
804,404	47,84
804,824	47,59
805,244	48,11
805,664	47,77
806,084	47,61
806,503	47,65
806,923	47,74
807,342	47,72
807,761	47,49
808,18	47,56
808,599	47,42
809,018	47,69
809,437	47,83
809,856	47,68
810,275	47,87
810,693	47,9
811,112	47,58
811,53	47,43
811,949	47,78
812,367	47,75
812,785	47,42
813,203	47,56
813,621	47,68
814,039	47,14
814,457	47,29
814,874	47,42
815,292	47,73
815,709	47,45
816,127	47,62
816,544	47,73
816,961	47,57
817,378	47,47
817,795	47,6
818,212	47,28
818,629	47,6
819,046	47,49
819,462	47,71
819,879	47,46
820,295	47,57
820,712	47,48
821,128	47,32
821,544	47,11
821,96	47,72
822,376	47,64
822,792	47,46
823,208	47,12
823,624	47,66
824,039	47,54
824,455	47,45
824,87	47,49
825,286	47,26
825,701	47,3
826,116	47,23
826,531	47,41
826,946	47,53
827,361	47,3
827,776	47,42
828,19	47,3
828,605	47,53
829,02	47,3
829,434	47
829,848	47,23
830,263	47,23
830,677	47,26
831,091	47,17
831,505	46,88
831,919	47,3
832,332	47,19
832,746	47,04
833,16	47,35
833,573	47,38
833,987	47,27
834,4	47,13
834,813	47,3
835,226	47,2
835,639	47,18
836,052	46,79
836,465	47,03
836,878	47,21
837,29	47,65
837,703	47,09
838,116	47,53
838,528	47,11
838,94	46,9
839,352	47,06
839,765	47,01
840,177	46,88
840,589	47,4
841	46,9
841,412	47,4
841,824	46,75
842,235	46,65
842,647	47,08
843,058	47,42
843,47	47,23
843,881	47,18
844,292	47,03
844,703	46,86
845,114	47,3
845,525	47,11
845,935	46,89
846,346	47,03
846,757	47,13
847,167	46,68
847,577	46,92
847,988	46,9
848,398	46,79
848,808	47,19
849,218	47,04
849,628	47,13
850,038	47,07
850,448	47,04
850,857	46,78
851,267	46,55
851,676	46,94
852,086	46,74
852,495	47,09
852,904	46,86
853,313	47,02
853,722	46,96
854,131	46,89
854,54	46,96
854,949	46,61
855,357	46,57
855,766	46,85
856,174	46,69
856,583	46,8
856,991	46,98
857,399	46,79
857,807	46,63
858,215	47,06
858,623	46,66
859,031	46,55
859,439	46,87
859,846	47,03
860,254	46,73
860,661	46,83
861,069	46,7
861,476	46,41
861,883	46,64
862,29	46,68
862,697	46,66
863,104	46,7
863,511	46,57
863,918	46,77
864,325	47,04
864,731	47
865,138	46,78
865,544	46,85
865,95	46,84
866,357	46,8
866,763	46,77
867,169	46,84
867,575	46,42
867,98	46,45
868,386	46,4
868,792	47,02
869,197	46,34
869,603	46,68
870,008	46,53
870,414	46,5
870,819	46,64
871,224	46,29
871,629	46,67
872,034	46,78
872,439	46,56
872,844	46,23
873,248	46,28
873,653	46,72
874,057	46,22
874,462	46,58
874,866	46,56
875,27	46,85
875,674	46,52
876,078	46,61
876,482	46,82
876,886	46,48
877,29	46,62
877,694	46,53
878,097	46,57
878,501	46,72
878,904	46,19
879,308	46,27
879,711	46,54
880,114	46,35
880,517	46,67
880,92	46,44
881,323	46,62
881,726	46,54
882,128	46,24
882,531	46,11
882,934	46,25
883,336	46,08
883,738	46,36
884,141	46,43
884,543	46,48
884,945	46,31
885,347	46,33
885,749	46,12
886,151	45,85
886,552	46,63
886,954	46,42
887,355	46,24
887,757	46,41
888,158	46,21
888,56	46,48
888,961	45,94
889,362	46,2
889,763	46,2
890,164	46,31
890,565	46,37
890,965	45,92
891,366	46,09
891,767	46,36
892,167	46,02
892,567	46,3
892,968	46,23
893,368	46,06
893,768	46,5
894,168	46,35
894,568	46,41
894,968	46,22
895,368	46,25
895,767	46,46
896,167	46,16
896,566	46,53
896,966	46,27
897,365	46,58
897,764	46,14
898,164	46,59
898,563	46,28
898,962	45,85
899,361	45,87
899,759	46,02
900,158	46,42
900,557	46,3
900,955	45,94
901,354	46,27
901,752	46,34
902,15	46,05
902,548	46
902,947	46,01
903,345	45,95
903,742	46,3
904,14	45,98
904,538	46,08
904,936	45,69
905,333	46,15
905,731	46,27
906,128	45,93
906,525	45,96
906,923	46,27
907,32	46,36
907,717	45,97
908,114	46,23
908,511	45,98
908,907	46,18
909,304	46,02
909,701	46,02
910,097	46,31
910,494	46,5
910,89	46,15
911,286	46,26
911,682	45,85
912,078	45,97
912,474	46,38
912,87	45,69
913,266	45,73
913,662	46,02
914,058	46,23
914,453	46,17
914,849	46,04
915,244	45,88
915,639	46,39
916,034	45,96
916,43	45,97
916,825	46,17
917,22	46,06
917,614	46,33
918,009	46,01
918,404	45,98
918,798	46,49
919,193	46,49
919,587	46,41
919,982	46,26
920,376	45,87
920,77	46,17
921,164	45,81
921,558	45,9
921,952	45,78
922,346	45,71
922,74	46,33
923,133	45,84
923,527	46,18
923,92	46,29
924,314	46,21
924,707	45,2
925,1	45,5
925,493	46,38
925,886	45,81
926,279	46,18
926,672	45,99
927,065	45,93
927,457	45,86
927,85	46,17
928,243	45,37
928,635	45,34
929,027	45,98
929,42	45,76
929,812	45,56
930,204	45,69
930,596	45,85
930,988	45,48
931,379	45,65
931,771	46,14
932,163	45,39
932,554	45,57
932,946	45,76
933,337	45,67
933,729	46,04
934,12	46,26
934,511	45,83
934,902	46,08
935,293	45,45
935,684	45,3
936,075	45,94
936,465	45,51
936,856	45,4
937,246	45,37
937,637	45,94
938,027	45,6
938,417	45,7
938,808	45,34
939,198	45,35
939,588	45,61
939,978	45,62
940,368	45,95
940,757	45,98
941,147	45,04
941,537	45,4
941,926	45,31
942,315	45,37
942,705	45,79
943,094	45,81
943,483	45,6
943,872	45,2
944,261	45,17
944,65	45,42
945,039	45,52
945,428	45,09
945,816	45,74
946,205	44,64
946,593	45,63
946,982	45,49
947,37	45,39
947,758	45,39
948,146	45,03
948,534	45,21
948,922	44,84
949,31	45,2
949,698	45,2
950,086	45
950,473	45,2
950,861	45,43
951,248	45,61
951,636	44,71
952,023	44,84
952,41	45,42
952,797	44,78
953,184	45,53
953,571	45,8
953,958	44,94
954,345	44,16
954,731	45,13
955,118	44,9
955,505	44,98
955,891	44,75
956,277	44,57
956,664	45,15
957,05	45,53
957,436	44,14
957,822	44,6
958,208	45,02
958,594	44,07
958,979	44,61
959,365	44,42
959,751	45
960,136	44,23
960,522	44,77
960,907	44,95
961,292	44,48
961,677	44,33
962,062	44,28
962,447	44,37
962,832	44,77
963,217	45,02
963,602	44,78
963,986	44,42
964,371	44,58
964,756	44,99
965,14	44,68
965,524	44,29
965,908	44,79
966,293	44,14
966,677	44,57
967,061	44,84
967,445	44,62
967,828	44,72
968,212	44,71
968,596	44,79
968,979	44,74
969,363	44,96
969,746	44,5
970,129	44,72
970,513	44,57
970,896	44,62
971,279	44,69
971,662	44,86
972,045	44,7
972,428	44,15
972,81	44,71
973,193	44,39
973,575	44,72
973,958	44,84
974,34	44,56
974,723	44,82
975,105	44,4
975,487	44,89
975,869	44,73
976,251	44,76
976,633	44,64
977,015	44,7
977,396	45,22
977,778	44,46
978,16	44,39
978,541	44,54
978,922	45,2
979,304	45,4
979,685	44,65
980,066	44,57
980,447	44,71
980,828	44,69
981,209	44,7
981,59	44,75
981,97	44,72
982,351	44,65
982,732	44,33
983,112	44,72
983,493	44,73
983,873	44,05
984,253	44,65
984,633	44,09
985,013	44,35
985,393	44,58
985,773	44,3
986,153	44,46
986,533	44,62
986,912	44,2
987,292	45,08
987,671	44,87
988,051	45,09
988,43	45,02
988,809	44,95
989,188	44,86
989,567	44,91
989,946	44,35
990,325	44,89
990,704	44,6
991,083	44,5
991,461	44,89
991,84	44,48
992,218	44,28
992,597	45,56
992,975	44,61
993,353	44,61
993,732	44,92
994,11	44,69
994,488	44,93
994,866	44,62
995,243	44,7
995,621	44,48
995,999	44,31
996,376	43,99
996,754	44,65
997,131	44,29
997,509	44,75
997,886	45,02
998,263	44,19
998,64	44,54
999,017	44,29
999,394	45,18
999,771	45,33
1000,148	44,85
1000,524	44,6
1000,901	44,58
1001,277	44,43
1001,654	44,69
1002,03	45,11
1002,406	44,47
1002,783	44,81
1003,159	44,33
1003,535	44,83
1003,911	44,38
1004,286	44,27
1004,662	45,03
1005,038	44,34
1005,414	44,64
1005,789	44,97
1006,164	44,01
1006,54	44,42
1006,915	45,04
1007,29	44,5
1007,665	45,46
1008,04	44,89
1008,415	44,66
1008,79	44,41
1009,165	44,28
1009,54	44,86
1009,914	45,27
1010,289	44,58
1010,663	44,48
1011,038	45,11
1011,412	45,27
1011,786	44,65
1012,16	45,08
1012,535	44,03
1012,909	44,82
1013,282	44,34
1013,656	44,33
1014,03	44,84
1014,404	45,48
1014,777	44,91
1015,151	45,11
1015,524	44,74
1015,897	45,48
1016,271	45,04
1016,644	44,85
1017,017	44,97
1017,39	44,37
1017,763	45,14
1018,136	44,78
1018,508	44,7
1018,881	44,92
1019,254	44,24
1019,626	44,76
1019,999	44,41
1020,371	45,03
1020,743	45,03
1021,116	44,73
1021,488	44,62
1021,86	44,88
1022,232	45,76
1022,604	44,97
1022,975	45,53
1023,347	45,28
1023,719	44,5
1024,09	44,67
1024,462	44,4
1024,833	44,82
1025,204	44,7
1025,576	44,46
1025,947	44,49
1026,318	44,8
1026,689	44,87
1027,06	45,17
1027,431	45,41
1027,801	44,9
1028,172	45,18
1028,543	44,72
1028,913	45,17
1029,284	44,72
1029,654	45,1
1030,024	44,99
1030,394	44,96
1030,764	44,01
1031,135	45,26
1031,504	45,7
1031,874	44,86
1032,244	44,84
1032,614	45,29
1032,983	44,6
1033,353	44,8
1033,722	45,2
1034,092	45,32
1034,461	45,16
1034,83	45,58
1035,2	44,85
1035,569	44,81
1035,938	45,01
1036,307	45,56
1036,675	44,93
1037,044	44,83
1037,413	45,88
1037,781	45,53
1038,15	45,47
1038,518	44,96
1038,887	45,32
1039,255	44,47
1039,623	45,3
1039,991	46,11
1040,359	45,73
1040,727	45
1041,095	45,24
1041,463	44,82
1041,831	44,64
1042,198	45,7
1042,566	46,09
1042,933	44,39
1043,301	45,55
1043,668	45,24
1044,035	45,06
1044,402	44,47
1044,77	45,88
1045,137	44,89
1045,503	44,23
1045,87	44,16
1046,237	44,33
1046,604	44,58
1046,97	45,74
1047,337	45,91
1047,703	45,57
1048,07	45,33
1048,436	44,71
1048,802	44,62
1049,168	44,26
1049,534	44,91
1049,9	44,81
1050,266	45,14
1050,632	44,62
1050,998	44,26
1051,364	45,08
1051,729	45,49
1052,095	45,92
1052,46	44,26
1052,825	43,9
1053,191	45,37
1053,556	45,03
1053,921	44,58
1054,286	44,57
1054,651	45,19
1055,016	44,88
1055,381	45,36
1055,745	44,42
1056,11	45,46
1056,475	46,16
1056,839	44,59
1057,203	44,74
1057,568	45,8
1057,932	44,36
1058,296	45,37
1058,66	44,92
1059,024	44,99
1059,388	44,43
1059,752	46,06
1060,116	45,43
1060,48	45,04
1060,843	44,51
1061,207	44,48
1061,57	45,3
1061,934	44,65
1062,297	45,94
1062,66	44,55
1063,023	45,5
1063,386	44,68
1063,749	45,46
1064,112	44,47
1064,475	44,71
1064,838	44,52
1065,201	44,51
1065,563	44,83
1065,926	44,69
1066,288	44,35
1066,651	44,73
1067,013	44,47
1067,375	45,72
1067,737	44,96
1068,099	46,2
1068,461	45,19
1068,823	45,34
1069,185	45,5
1069,547	44,35
1069,909	44,68
1070,27	43,61
1070,632	44,92
1070,993	44,55
1071,355	44,36
1071,716	45,32
1072,077	44,7
1072,438	45,09
1072,799	44,9
1073,16	46,46
1073,521	44,18
1073,882	45,19
1074,243	44,69
1074,603	45,62
1074,964	44,64
1075,325	44,35
1075,685	45,49
1076,045	45,76
1076,406	45,06
1076,766	43,84
1077,126	45,75
1077,486	45,28
1077,846	45,83
1078,206	43,78
1078,566	46,05
1078,925	45,15
1079,285	44,97
1079,645	45,48
1080,004	44,27
1080,364	45,74
1080,723	45,12
1081,082	43,94
1081,442	45,2
1081,801	44,17
1082,16	45,59
1082,519	46,42
1082,878	46,08
1083,237	45,09
1083,595	44,1
1083,954	46,25
1084,313	45,44
1084,671	46,66
1085,03	44,98
1085,388	43,73
1085,746	43,58
1086,104	44,84
1086,463	45,55
1086,821	45,53
1087,179	45,31
1087,537	45,9
1087,894	45,56
1088,252	45,65
1088,61	44,11
1088,967	44,36
1089,325	45,41
1089,682	45,11
1090,04	44,73
1090,397	44,1
1090,754	45,07
1091,111	45,01
1091,469	46,07
1091,826	45,67
1092,182	45,77
1092,539	44,87
1092,896	45,6
1093,253	44,09
1093,609	44,6
1093,966	43,22
1094,322	45,16
1094,679	44,72
1095,035	43,07
1095,391	44,85
1095,748	45,6
1096,104	45,63
1096,46	45,8
1096,816	43,88
1097,171	47,76
1097,527	44,77
1097,883	44,95
1098,239	43,6
1098,594	45,73
1098,95	45,93
1099,305	43,85
1099,66	45,38
1100,016	43,68
1100,371	43,07
1100,726	44,38
1101,081	43,29
1101,436	42,67
1101,791	45,15
1102,146	45,43
1102,5	42,34
1102,855	45,52
1103,21	45,04
1103,564	41,93
1103,918	44,11
1104,273	45,94
1104,627	41,49
1104,981	44,29
1105,335	45,5
1105,69	42,68
1106,043	44,94
1106,397	45,41
1106,751	45,07
1107,105	45,45
1107,459	43,18
1107,812	45,45
1108,166	45,24
1108,519	43,72
1108,873	44,11
1109,226	46,25
1109,579	44,02
1109,932	46,29
1110,285	46,04
1110,638	44,07
1110,991	46,89
1111,344	44,37
1111,697	43,12
1112,05	46,33
1112,402	43,79
1112,755	43,74
1113,107	45,89
1113,46	47,53
1113,812	42,97
1114,164	48,3
1114,517	44,3
1114,869	39,33
1115,221	46,35
1115,573	54,12
1115,924	46,01
