Data from E_4_0_Relative__0__00111.txt Node

Date: Mon Jan 29 13:01:10 CET 2024
User: diatiterra
Spectrometer: HDX00911
Trigger mode: 0
Integration Time (sec): 6,000000E-3
Scans to average: 2
Nonlinearity correction enabled: false
Boxcar width: 0
Storing dark spectrum: false
XAxis mode: Wavelengths
Number of Pixels in Spectrum: 2068
>>>>>Begin Spectral Data<<<<<
194,468	29,27
195,025	22,11
195,581	13,37
196,138	47,37
196,694	34,45
197,251	31,3
197,807	26,6
198,363	30,89
198,919	31,91
199,474	31,11
200,03	24,94
200,586	25,36
201,141	26,92
201,696	31,83
202,251	30,96
202,806	29,98
203,361	30,38
203,916	30,06
204,471	17,01
205,025	32,04
205,58	31,1
206,134	26,49
206,688	25,38
207,242	32,06
207,796	22,45
208,35	25,51
208,904	33,06
209,457	32,47
210,011	32,77
210,564	28,9
211,117	32,3
211,67	31,59
212,223	31,26
212,776	32,86
213,329	33,13
213,881	28,75
214,434	29,09
214,986	38,55
215,538	36,95
216,09	32,05
216,642	29,12
217,194	33,75
217,746	30,3
218,297	27,9
218,849	27,47
219,4	35,91
219,951	25,78
220,502	39,83
221,053	24,58
221,604	30,21
222,155	31,72
222,705	38,2
223,256	27,55
223,806	35,85
224,356	29,7
224,906	27,67
225,456	29,26
226,006	35,68
226,556	30,06
227,106	39,73
227,655	36,03
228,204	21,46
228,754	28,54
229,303	36,7
229,852	26,78
230,401	31,53
230,949	30,55
231,498	31,78
232,047	41,76
232,595	34,1
233,143	30,4
233,691	32,38
234,239	29,02
234,787	29,32
235,335	38,49
235,883	38,69
236,43	28,51
236,978	28,94
237,525	30,58
238,072	28,32
238,619	40,19
239,166	30,24
239,713	27,12
240,26	27,59
240,806	33,98
241,353	24,6
241,899	38,77
242,445	32,37
242,991	27,11
243,537	31,62
244,083	35,27
244,629	37,92
245,174	26,64
245,72	35,56
246,265	33,33
246,81	31,38
247,355	33,41
247,9	36,32
248,445	25,8
248,99	23,82
249,534	30,39
250,079	21,78
250,623	36,23
251,168	29,75
251,712	35,7
252,256	26,45
252,8	33,12
253,343	29,62
253,887	28,51
254,43	30,26
254,974	36,47
255,517	32,84
256,06	29,8
256,603	34,55
257,146	32,02
257,689	32,68
258,232	30,84
258,774	13,12
259,317	24,38
259,859	32,8
260,401	32,9
260,943	28,22
261,485	37,33
262,027	27,57
262,569	26,5
263,11	31,84
263,652	31,06
264,193	27,33
264,734	19,27
265,275	38,73
265,816	29,67
266,357	29,02
266,898	28,54
267,438	33,03
267,979	32,74
268,519	33,04
269,059	29,91
269,6	27,77
270,14	38,29
270,68	31,36
271,219	33,33
271,759	36,18
272,298	20,49
272,838	30,73
273,377	29,01
273,916	26,17
274,455	30,51
274,994	32,16
275,533	33,72
276,072	34,98
276,61	28,63
277,149	28,64
277,687	28,83
278,225	22,4
278,763	31,22
279,301	30,89
279,839	32,04
280,377	22,51
280,914	26,91
281,452	32,8
281,989	22,42
282,526	26,82
283,064	30,04
283,601	23,67
284,137	31,9
284,674	31,8
285,211	24,4
285,747	28,16
286,284	25,8
286,82	35,31
287,356	32,89
287,892	29,93
288,428	21,89
288,964	38,59
289,5	26,07
290,035	38,41
290,571	30,49
291,106	29,46
291,641	24,09
292,176	28,85
292,711	27,41
293,246	35,78
293,781	20,32
294,315	31,17
294,85	31,64
295,384	32,36
295,918	32
296,453	36,32
296,987	25,83
297,52	28,73
298,054	31,1
298,588	25,87
299,121	26,16
299,655	25,57
300,188	21,41
300,721	36,51
301,254	23,06
301,787	36,08
302,32	29,03
302,853	30,18
303,385	26,87
303,918	25,84
304,45	27,63
304,982	25,56
305,514	36,81
306,046	26,26
306,578	20,59
307,11	32,4
307,641	29,02
308,173	24,55
308,704	33,48
309,236	33,58
309,767	22,82
310,298	31,49
310,829	30,05
311,359	22,2
311,89	23,7
312,421	24,44
312,951	31,16
313,481	35,94
314,012	22,82
314,542	32
315,072	26,38
315,601	31,53
316,131	29,75
316,661	22,95
317,19	20,14
317,72	20,48
318,249	27,99
318,778	31,37
319,307	30,59
319,836	31,64
320,365	29,95
320,893	33,07
321,422	26,5
321,95	28,22
322,479	32,05
323,007	28,5
323,535	35,58
324,063	34,52
324,591	27,42
325,118	30,33
325,646	22,64
326,173	23,97
326,701	26,43
327,228	35,45
327,755	24,16
328,282	28,88
328,809	35,54
329,336	27,48
329,862	31,14
330,389	20,92
330,915	25,91
331,441	22,84
331,968	28,19
332,494	33,5
333,02	29,03
333,545	32,39
334,071	34,6
334,597	30,77
335,122	38,75
335,648	36,34
336,173	34,06
336,698	24,31
337,223	30,37
337,748	31,93
338,272	28,24
338,797	22,99
339,322	25,57
339,846	26,6
340,37	37,97
340,894	27,84
341,419	29,2
341,942	23,94
342,466	27,97
342,99	33,61
343,514	31,45
344,037	22,8
344,56	22,06
345,084	26,89
345,607	31,05
346,13	22,9
346,653	27,46
347,175	31,59
347,698	30,84
348,221	30,35
348,743	28,25
349,265	26,26
349,787	29,54
350,309	32,99
350,831	28,1
351,353	24,61
351,875	24,83
352,397	24
352,918	28,33
353,439	25,7
353,961	26,05
354,482	24,58
355,003	21,6
355,524	23,02
356,044	26,75
356,565	25,84
357,086	26,84
357,606	23,59
358,126	27,15
358,646	27,59
359,167	30,59
359,687	29,87
360,206	23,93
360,726	22,03
361,246	31,32
361,765	24,53
362,285	26,95
362,804	27,88
363,323	28,23
363,842	28,57
364,361	22,46
364,88	24,08
365,398	26,97
365,917	19,04
366,435	24,29
366,954	24,69
367,472	25,29
367,99	23,99
368,508	27,42
369,026	25,7
369,544	22,68
370,061	26,84
370,579	22,2
371,096	18,96
371,613	22,07
372,131	20,8
372,648	24,22
373,165	25,11
373,681	21,51
374,198	23,3
374,715	24,12
375,231	24,61
375,747	21,59
376,264	21,14
376,78	21,05
377,296	21,99
377,812	21,66
378,327	22,06
378,843	22,39
379,359	23,15
379,874	20,19
380,389	21,43
380,905	22,84
381,42	19,8
381,935	22,7
382,449	22,68
382,964	21,27
383,479	24,24
383,993	19,64
384,508	20,25
385,022	19,84
385,536	20,67
386,05	18,77
386,564	17,36
387,078	19,62
387,592	21,87
388,105	17,2
388,619	15,91
389,132	19,28
389,645	20,51
390,158	21,31
390,671	18,27
391,184	16,11
391,697	17,53
392,21	16,37
392,722	15,6
393,235	17,09
393,747	16,01
394,259	17,59
394,771	18,05
395,283	17,65
395,795	17,08
396,307	17,88
396,818	17,52
397,33	18,37
397,841	17,33
398,353	15,37
398,864	17,04
399,375	13,1
399,886	16,14
400,397	14,47
400,907	14,61
401,418	14,71
401,928	14,38
402,439	14,21
402,949	15,96
403,459	12,92
403,969	12,59
404,479	14,24
404,989	11,42
405,498	11,79
406,008	11,62
406,517	12,62
407,027	11,83
407,536	11,38
408,045	10,5
408,554	10,65
409,063	9,85
409,572	10,04
410,08	10,2
410,589	9,06
411,097	9,13
411,606	9,47
412,114	8,44
412,622	8,08
413,13	8,94
413,638	8,07
414,145	8,52
414,653	7,5
415,16	8,07
415,668	6,87
416,175	6,98
416,682	7,1
417,189	6,71
417,696	6,64
418,203	6,98
418,71	6,92
419,216	6,4
419,723	6,76
420,229	6,37
420,735	5,87
421,242	6,16
421,748	6,44
422,254	6,31
422,759	5,42
423,265	5,9
423,771	5,54
424,276	5,9
424,781	5,57
425,287	5,73
425,792	5,4
426,297	5,75
426,802	5,17
427,306	5,33
427,811	5,77
428,316	6,15
428,82	5,2
429,324	5,66
429,829	5,62
430,333	5,34
430,837	5,15
431,34	5,51
431,844	5,09
432,348	5,4
432,851	5,28
433,355	4,87
433,858	5,02
434,361	5,43
434,864	4,94
435,367	5,14
435,87	4,88
436,373	5,21
436,876	5,43
437,378	5,04
437,88	5,39
438,383	5,5
438,885	5,66
439,387	5,24
439,889	5,19
440,391	5,43
440,892	5,41
441,394	5,04
441,896	5,26
442,397	4,94
442,898	5,46
443,399	5,2
443,9	5,06
444,401	5,49
444,902	5,31
445,403	5,7
445,903	5,26
446,404	5,23
446,904	5,34
447,405	5,22
447,905	5,52
448,405	5,56
448,905	5,51
449,404	5,87
449,904	5,77
450,404	5,36
450,903	5,29
451,403	5,61
451,902	5,55
452,401	5,27
452,9	5,38
453,399	5,66
453,898	5,91
454,396	5,79
454,895	5,85
455,393	5,65
455,892	5,44
456,39	5,57
456,888	5,83
457,386	5,63
457,884	5,63
458,382	5,63
458,879	5,73
459,377	5,39
459,874	5,82
460,372	5,69
460,869	5,48
461,366	6,07
461,863	5,78
462,36	5,65
462,857	5,78
463,353	5,88
463,85	5,75
464,346	5,88
464,843	5,84
465,339	5,52
465,835	5,94
466,331	5,84
466,827	5,75
467,323	6,06
467,818	5,59
468,314	5,64
468,809	5,67
469,305	5,62
469,8	5,74
470,295	5,89
470,79	5,75
471,285	5,71
471,78	5,72
472,274	5,72
472,769	5,44
473,263	5,65
473,758	5,78
474,252	5,64
474,746	5,75
475,24	5,78
475,734	6
476,228	6,02
476,721	5,8
477,215	5,76
477,708	5,91
478,202	6,15
478,695	5,92
479,188	6,01
479,681	5,73
480,174	6,16
480,667	6,2
481,159	5,76
481,652	5,91
482,144	5,83
482,637	6,16
483,129	6,1
483,621	6,4
484,113	6,11
484,605	6,3
485,097	5,89
485,588	5,88
486,08	6,12
486,571	6,17
487,063	6,41
487,554	6,06
488,045	6,06
488,536	6,22
489,027	6,39
489,518	6,29
490,008	6,29
490,499	6,34
490,989	6,41
491,48	6,35
491,97	6,66
492,46	6,63
492,95	6,72
493,44	6,63
493,93	6,46
494,419	6,84
494,909	6,48
495,398	6,72
495,888	6,93
496,377	6,99
496,866	7,21
497,355	7,04
497,844	7,09
498,333	7,28
498,821	7,5
499,31	7,48
499,798	7,52
500,287	7,7
500,775	7,7
501,263	7,98
501,751	8,07
502,239	7,98
502,727	8,29
503,215	8,21
503,702	8,32
504,19	8,42
504,677	8,35
505,164	8,62
505,651	8,71
506,139	9
506,625	8,99
507,112	9,36
507,599	9,5
508,086	9,5
508,572	9,98
509,058	9,92
509,545	10,35
510,031	10,42
510,517	10,64
511,003	10,82
511,489	10,84
511,974	11,23
512,46	11,47
512,946	11,89
513,431	11,91
513,916	11,74
514,401	12,36
514,887	12,05
515,371	12,98
515,856	12,71
516,341	12,98
516,826	13,39
517,31	13,75
517,795	14,04
518,279	14,46
518,763	14,28
519,247	14,44
519,731	14,71
520,215	14,96
520,699	15,19
521,182	15,31
521,666	16,01
522,149	16,07
522,633	16,45
523,116	16,49
523,599	16,85
524,082	16,51
524,565	17,17
525,048	17,38
525,53	17,64
526,013	17,9
526,495	17,89
526,978	18,34
527,46	18,37
527,942	18,58
528,424	18,58
528,906	18,91
529,388	19,13
529,87	19,17
530,351	19,57
530,833	19,64
531,314	19,55
531,795	19,62
532,277	19,82
532,758	20,07
533,238	20,13
533,719	20,11
534,2	20,28
534,681	20,7
535,161	19,99
535,642	20,52
536,122	20,32
536,602	20,35
537,082	20,85
537,562	20,78
538,042	20,42
538,522	20,73
539,001	20,56
539,481	21,05
539,96	21,13
540,44	21,13
540,919	20,86
541,398	21,12
541,877	20,91
542,356	21,23
542,835	21,17
543,313	20,99
543,792	21,03
544,27	21,42
544,749	21,11
545,227	21,44
545,705	21,2
546,183	21,4
546,661	21,43
547,139	21,51
547,616	21,34
548,094	21,82
548,571	21,74
549,049	21,68
549,526	21,76
550,003	21,75
550,48	21,7
550,957	21,61
551,434	21,8
551,911	21,38
552,387	21,95
552,864	21,92
553,34	21,7
553,817	21,85
554,293	21,51
554,769	21,42
555,245	21,78
555,721	21,51
556,197	21,59
556,672	21,22
557,148	21,65
557,623	21,56
558,099	21,52
558,574	21,47
559,049	21,44
559,524	21,43
559,999	21,65
560,474	21,57
560,948	21,49
561,423	21,4
561,897	21,43
562,372	21,11
562,846	21,04
563,32	21,08
563,794	20,97
564,268	21,15
564,742	20,65
565,216	20,7
565,69	20,86
566,163	20,43
566,636	20,42
567,11	20,27
567,583	20,45
568,056	20,27
568,529	20,14
569,002	19,89
569,475	20,01
569,947	19,72
570,42	19,42
570,892	19,57
571,365	19,14
571,837	19,23
572,309	19,13
572,781	18,98
573,253	18,59
573,725	18,71
574,197	18,6
574,668	18,43
575,14	18,42
575,611	18,5
576,082	18,09
576,554	18,13
577,025	17,91
577,496	17,43
577,967	17,65
578,437	17,7
578,908	17,58
579,379	17,31
579,849	17,43
580,319	16,95
580,79	17,05
581,26	16,87
581,73	16,85
582,2	16,6
582,669	16,43
583,139	16,72
583,609	16,48
584,078	16,45
584,548	16,38
585,017	16,37
585,486	16,17
585,955	16,09
586,424	16,06
586,893	15,94
587,362	15,9
587,83	15,89
588,299	15,82
588,767	15,5
589,236	15,74
589,704	15,62
590,172	15,56
590,64	15,34
591,108	15,47
591,576	15,49
592,043	15,32
592,511	15,22
592,978	15,31
593,446	15,1
593,913	15,27
594,38	15,14
594,847	15,06
595,314	15,15
595,781	15,03
596,248	15,08
596,715	15,11
597,181	15,09
597,647	15,03
598,114	14,75
598,58	14,76
599,046	14,81
599,512	14,7
599,978	14,8
600,444	14,6
600,91	14,5
601,375	14,62
601,841	14,76
602,306	14,67
602,771	14,59
603,236	14,52
603,702	14,26
604,167	14,19
604,631	14,38
605,096	14,38
605,561	14,18
606,025	14,43
606,49	14,31
606,954	14,52
607,418	14,11
607,882	13,95
608,347	14,09
608,81	13,91
609,274	13,61
609,738	13,82
610,202	13,76
610,665	13,53
611,128	13,49
611,592	13,29
612,055	13,35
612,518	13,2
612,981	13,27
613,444	13,2
613,907	13,11
614,369	12,97
614,832	12,91
615,294	13,01
615,757	12,81
616,219	12,88
616,681	12,71
617,143	12,75
617,605	12,65
618,067	12,57
618,529	12,36
618,99	12,44
619,452	12,46
619,913	12,44
620,375	12,19
620,836	12,17
621,297	12,13
621,758	11,81
622,219	12,07
622,68	12,21
623,14	11,9
623,601	11,84
624,061	11,94
624,522	11,84
624,982	11,95
625,442	11,93
625,902	11,66
626,362	11,75
626,822	11,81
627,282	11,6
627,742	11,75
628,201	11,72
628,661	11,64
629,12	11,61
629,579	11,6
630,038	11,49
630,497	11,65
630,956	11,69
631,415	11,62
631,874	11,66
632,332	11,52
632,791	11,44
633,249	11,37
633,708	11,41
634,166	11,42
634,624	11,37
635,082	11,35
635,54	11,08
635,998	11,31
636,455	11,07
636,913	11,07
637,37	11
637,828	10,79
638,285	10,77
638,742	10,54
639,199	10,56
639,656	10,52
640,113	10,35
640,57	10,18
641,027	10,19
641,483	10,09
641,94	10,03
642,396	9,91
642,852	9,85
643,309	9,91
643,765	9,63
644,221	9,39
644,676	9,46
645,132	9,33
645,588	9,27
646,043	9,13
646,499	9,08
646,954	8,94
647,409	8,94
647,864	8,66
648,319	8,79
648,774	8,56
649,229	8,61
649,684	8,39
650,139	8,43
650,593	8,25
651,047	8,28
651,502	8,12
651,956	8,2
652,41	8,2
652,864	7,92
653,318	8,19
653,772	7,91
654,225	8,05
654,679	7,95
655,133	7,83
655,586	8,04
656,039	7,82
656,492	7,83
656,946	7,57
657,399	7,67
657,851	7,79
658,304	7,53
658,757	7,47
659,209	7,38
659,662	7,26
660,114	7,2
660,567	7,3
661,019	7,26
661,471	7
661,923	7,04
662,375	6,87
662,826	6,88
663,278	6,87
663,73	6,81
664,181	6,67
664,632	6,71
665,084	6,55
665,535	6,6
665,986	6,5
666,437	6,41
666,888	6,55
667,338	6,45
667,789	6,42
668,24	6,38
668,69	6,49
669,14	6,38
669,591	6,38
670,041	6,54
670,491	6,47
670,941	6,48
671,391	6,54
671,84	6,44
672,29	6,52
672,74	6,52
673,189	6,63
673,638	6,54
674,088	6,69
674,537	6,74
674,986	6,84
675,435	6,92
675,883	6,97
676,332	7,12
676,781	7,15
677,229	7,17
677,678	7,15
678,126	7,29
678,574	7,34
679,022	7,45
679,47	7,62
679,918	7,67
680,366	7,83
680,814	7,98
681,261	8
681,709	7,98
682,156	8,14
682,604	8,4
683,051	8,41
683,498	8,52
683,945	8,77
684,392	8,8
684,839	8,73
685,286	9,1
685,732	9,2
686,179	9,3
686,625	9,5
687,071	9,63
687,518	9,78
687,964	10,03
688,41	10,24
688,856	10,35
689,301	10,68
689,747	10,97
690,193	11,23
690,638	11,6
691,084	11,79
691,529	12,25
691,974	12,41
692,419	12,88
692,864	13,3
693,309	13,65
693,754	13,77
694,199	14,35
694,643	14,65
695,088	15,08
695,532	15,4
695,977	16,02
696,421	16,38
696,865	16,74
697,309	17,14
697,753	17,54
698,197	17,74
698,64	18,18
699,084	18,64
699,527	19,15
699,971	19,37
700,414	19,7
700,857	20,1
701,3	20,36
701,743	20,72
702,186	21,14
702,629	21,67
703,072	21,7
703,515	21,99
703,957	22,46
704,399	22,55
704,842	23,06
705,284	23,19
705,726	23,6
706,168	23,72
706,61	24,11
707,052	24,44
707,494	24,68
707,935	24,81
708,377	25,2
708,818	25,37
709,26	25,74
709,701	25,73
710,142	26
710,583	26,26
711,024	26,34
711,465	26,77
711,905	27,07
712,346	27,23
712,787	27,43
713,227	27,57
713,667	27,79
714,108	27,99
714,548	28,09
714,988	28,42
715,428	28,71
715,868	28,76
716,307	28,78
716,747	29,48
717,186	29,31
717,626	29,34
718,065	29,65
718,504	29,93
718,944	30,04
719,383	30,04
719,822	30,12
720,261	30,51
720,699	30,7
721,138	30,78
721,576	30,88
722,015	31,03
722,453	31,18
722,892	31,17
723,33	31,15
723,768	31,54
724,206	31,67
724,644	31,55
725,081	31,69
725,519	31,93
725,957	31,89
726,394	32,18
726,832	32,1
727,269	32,2
727,706	32,37
728,143	32,37
728,58	32,54
729,017	32,35
729,454	32,8
729,89	32,73
730,327	32,85
730,764	32,69
731,2	32,9
731,636	33,02
732,072	32,82
732,509	33,01
732,945	32,92
733,38	33,26
733,816	32,95
734,252	32,95
734,688	33,23
735,123	33,26
735,559	33,51
735,994	33,31
736,429	33,49
736,864	33,36
737,299	33,37
737,734	33,59
738,169	33,42
738,604	33,45
739,038	33,56
739,473	33,54
739,907	33,77
740,342	33,34
740,776	33,51
741,21	33,4
741,644	33,36
742,078	33,34
742,512	33,6
742,946	33,44
743,379	33,32
743,813	33,35
744,246	33,24
744,68	33,5
745,113	33,28
745,546	33,42
745,979	33,49
746,412	33,53
746,845	33,32
747,278	33,42
747,711	33,27
748,143	33,46
748,576	33,24
749,008	33,23
749,441	33,51
749,873	32,95
750,305	33,14
750,737	33,23
751,169	32,84
751,601	33,02
752,032	33,09
752,464	33,19
752,896	32,96
753,327	32,98
753,758	32,67
754,19	33,04
754,621	32,97
755,052	32,73
755,483	32,94
755,914	32,86
756,344	32,84
756,775	32,96
757,206	32,89
757,636	32,73
758,066	32,65
758,497	32,56
758,927	32,82
759,357	32,77
759,787	32,61
760,217	32,5
760,647	32,54
761,076	32,45
761,506	32,51
761,935	32,5
762,365	32,36
762,794	32,37
763,223	32,32
763,653	32,3
764,082	32,19
764,51	32,33
764,939	32,15
765,368	32,22
765,797	32,05
766,225	32,25
766,654	32,06
767,082	32,23
767,51	32,18
767,938	32,04
768,367	32,07
768,795	32,09
769,222	31,86
769,65	32,32
770,078	32,08
770,505	32,05
770,933	32,11
771,36	31,91
771,788	32,11
772,215	31,84
772,642	31,91
773,069	31,79
773,496	31,91
773,923	31,9
774,349	31,7
774,776	31,86
775,203	31,89
775,629	31,8
776,055	31,87
776,482	31,71
776,908	31,83
777,334	31,72
777,76	31,89
778,186	31,58
778,611	31,72
779,037	31,79
779,463	31,84
779,888	31,54
780,314	31,94
780,739	31,72
781,164	31,48
781,589	31,85
782,014	31,58
782,439	31,43
782,864	31,84
783,289	31,58
783,713	31,58
784,138	31,59
784,562	31,47
784,987	31,65
785,411	31,71
785,835	31,55
786,259	31,5
786,683	31,61
787,107	31,76
787,531	31,74
787,954	31,31
788,378	31,59
788,802	31,24
789,225	31,51
789,648	31,52
790,071	31,34
790,495	31,4
790,918	31,24
791,34	31,47
791,763	31,49
792,186	31,48
792,609	31,35
793,031	31,37
793,454	31,6
793,876	31,54
794,298	31,37
794,721	31,41
795,143	31,08
795,565	31,29
795,986	31,19
796,408	31,29
796,83	31,28
797,252	31,36
797,673	31,12
798,094	31,22
798,516	31,17
798,937	31,29
799,358	31,22
799,779	31,2
800,2	31,28
800,621	31,31
801,042	31,22
801,462	31,32
801,883	31,35
802,303	31,26
802,724	31,28
803,144	31,3
803,564	31,3
803,984	31,46
804,404	31,07
804,824	31,09
805,244	30,95
805,664	31,32
806,084	31,07
806,503	31,16
806,923	31,37
807,342	31,22
807,761	31,13
808,18	31,06
808,599	31,22
809,018	31,1
809,437	31,11
809,856	31,3
810,275	31,14
810,693	31,33
811,112	31,23
811,53	31
811,949	31,14
812,367	31,07
812,785	30,96
813,203	31,02
813,621	31,17
814,039	30,71
814,457	31,2
814,874	31,14
815,292	31,06
815,709	31,14
816,127	31,16
816,544	31,27
816,961	31,04
817,378	31,22
817,795	31,13
818,212	31,38
818,629	30,96
819,046	30,89
819,462	31,15
819,879	30,88
820,295	30,78
820,712	31,01
821,128	31,01
821,544	30,88
821,96	31,07
822,376	31,04
822,792	30,97
823,208	31,02
823,624	30,99
824,039	31
824,455	30,93
824,87	31
825,286	30,91
825,701	30,96
826,116	30,91
826,531	30,95
826,946	30,95
827,361	30,88
827,776	31,22
828,19	30,61
828,605	30,87
829,02	31,02
829,434	30,81
829,848	30,88
830,263	30,98
830,677	31,01
831,091	30,94
831,505	30,86
831,919	30,95
832,332	31,12
832,746	30,83
833,16	30,79
833,573	30,96
833,987	31,09
834,4	30,61
834,813	30,54
835,226	30,48
835,639	30,71
836,052	30,8
836,465	31,09
836,878	31,28
837,29	30,96
837,703	30,66
838,116	31,06
838,528	31,07
838,94	30,8
839,352	30,61
839,765	30,8
840,177	30,62
840,589	30,68
841	30,73
841,412	30,97
841,824	30,85
842,235	30,93
842,647	30,82
843,058	31,01
843,47	31,04
843,881	30,74
844,292	30,78
844,703	30,52
845,114	30,9
845,525	31,04
845,935	30,79
846,346	30,72
846,757	30,75
847,167	30,7
847,577	30,58
847,988	30,76
848,398	30,71
848,808	30,71
849,218	30,9
849,628	31,03
850,038	30,79
850,448	30,62
850,857	30,84
851,267	30,67
851,676	30,57
852,086	30,78
852,495	30,71
852,904	30,76
853,313	31
853,722	30,74
854,131	30,4
854,54	30,97
854,949	31,08
855,357	30,87
855,766	30,39
856,174	30,8
856,583	30,8
856,991	30,85
857,399	30,48
857,807	30,7
858,215	30,78
858,623	30,94
859,031	30,61
859,439	30,68
859,846	30,58
860,254	30,74
860,661	30,82
861,069	30,55
861,476	30,54
861,883	30,63
862,29	30,84
862,697	30,68
863,104	30,94
863,511	30,6
863,918	30,68
864,325	30,64
864,731	30,71
865,138	30,91
865,544	30,46
865,95	30,68
866,357	30,81
866,763	30,5
867,169	30,44
867,575	30,49
867,98	30,44
868,386	31,02
868,792	30,79
869,197	30,49
869,603	30,71
870,008	30,66
870,414	30,65
870,819	30,36
871,224	30,37
871,629	30,55
872,034	30,46
872,439	30,52
872,844	30,44
873,248	30,57
873,653	30,46
874,057	30,68
874,462	30,74
874,866	30,56
875,27	30,71
875,674	30,69
876,078	30,71
876,482	30,55
876,886	30,41
877,29	30,63
877,694	30,57
878,097	30,63
878,501	30,65
878,904	30,51
879,308	30,47
879,711	30,64
880,114	30,85
880,517	30,41
880,92	30,86
881,323	30,74
881,726	30,52
882,128	30,62
882,531	30,32
882,934	30,6
883,336	30,5
883,738	30,59
884,141	30,62
884,543	30,55
884,945	30,45
885,347	30,44
885,749	30,27
886,151	30,59
886,552	30,66
886,954	30,33
887,355	30,5
887,757	30,63
888,158	30,47
888,56	30,37
888,961	30,47
889,362	30,68
889,763	30,5
890,164	30,33
890,565	30,25
890,965	30,49
891,366	30,42
891,767	30,48
892,167	30,41
892,567	30,53
892,968	30,41
893,368	30,38
893,768	30,49
894,168	30,24
894,568	30,46
894,968	30,5
895,368	30,05
895,767	30,42
896,167	30,42
896,566	30,61
896,966	30,51
897,365	30,62
897,764	30,46
898,164	30,28
898,563	30,4
898,962	30,17
899,361	30,4
899,759	30,47
900,158	30,61
900,557	30,52
900,955	30,23
901,354	30,4
901,752	30,49
902,15	30,56
902,548	30,16
902,947	30,17
903,345	30,45
903,742	30,27
904,14	30,43
904,538	30,29
904,936	30,3
905,333	30,64
905,731	30,2
906,128	30,48
906,525	30,41
906,923	30,38
907,32	30,26
907,717	30,3
908,114	30,32
908,511	30,79
908,907	30,81
909,304	30,48
909,701	30,41
910,097	30,15
910,494	30,29
910,89	30,2
911,286	30,29
911,682	30,07
912,078	30,42
912,474	30,21
912,87	30,49
913,266	30,01
913,662	30,09
914,058	30,4
914,453	30,65
914,849	30,3
915,244	30,51
915,639	30,45
916,034	30,23
916,43	30,71
916,825	30,17
917,22	30,5
917,614	30,29
918,009	30,24
918,404	30,24
918,798	30,56
919,193	30,3
919,587	30,31
919,982	30,34
920,376	30,24
920,77	30,28
921,164	30,56
921,558	30,21
921,952	30,5
922,346	30,15
922,74	30,22
923,133	30,08
923,527	30,15
923,92	30,35
924,314	30,34
924,707	30,34
925,1	30,17
925,493	30,52
925,886	30,37
926,279	30,25
926,672	30,46
927,065	30,26
927,457	30,01
927,85	30,01
928,243	30,02
928,635	29,8
929,027	30,46
929,42	30,17
929,812	30,1
930,204	29,98
930,596	30,09
930,988	30,25
931,379	30,03
931,771	30,22
932,163	29,89
932,554	30,14
932,946	30,11
933,337	30,3
933,729	30,22
934,12	30,43
934,511	29,95
934,902	29,92
935,293	29,97
935,684	29,59
936,075	30,22
936,465	29,9
936,856	30,03
937,246	29,96
937,637	30,02
938,027	29,6
938,417	30,24
938,808	29,99
939,198	29,98
939,588	29,68
939,978	29,87
940,368	30,59
940,757	30,39
941,147	29,71
941,537	29,95
941,926	30,01
942,315	30,12
942,705	30,13
943,094	29,83
943,483	30,14
943,872	30,24
944,261	29,79
944,65	30,12
945,039	29,94
945,428	29,56
945,816	29,25
946,205	29,71
946,593	29,38
946,982	29,79
947,37	29,52
947,758	29,61
948,146	29,79
948,534	29,36
948,922	29,65
949,31	29,44
949,698	29,53
950,086	30,02
950,473	29,31
950,861	29,96
951,248	29,68
951,636	29,64
952,023	29,4
952,41	29,7
952,797	28,97
953,184	29,5
953,571	29,2
953,958	29,69
954,345	29,65
954,731	29,56
955,118	29,22
955,505	29,39
955,891	29,65
956,277	29,5
956,664	29,04
957,05	29,16
957,436	29,03
957,822	29,11
958,208	29,23
958,594	29,48
958,979	29,46
959,365	29,15
959,751	29,37
960,136	29,05
960,522	29,04
960,907	29,81
961,292	29,26
961,677	29,58
962,062	29,4
962,447	29,4
962,832	29,18
963,217	29,51
963,602	29,66
963,986	29
964,371	29,01
964,756	29,42
965,14	29,08
965,524	29,58
965,908	29,24
966,293	29,58
966,677	29,17
967,061	29,3
967,445	29,43
967,828	29,12
968,212	29,35
968,596	29,3
968,979	29,6
969,363	29,63
969,746	29,7
970,129	29,44
970,513	29,59
970,896	29,47
971,279	29,28
971,662	29,23
972,045	28,74
972,428	29,09
972,81	29,05
973,193	29,02
973,575	29,45
973,958	29,62
974,34	28,94
974,723	29,44
975,105	29,85
975,487	29,26
975,869	29,34
976,251	29,23
976,633	29,21
977,015	29,4
977,396	29,07
977,778	29,46
978,16	29,13
978,541	29,77
978,922	29,51
979,304	29,34
979,685	29,36
980,066	29,27
980,447	29,17
980,828	29,26
981,209	29,11
981,59	29,35
981,97	29,31
982,351	29,52
982,732	28,99
983,112	29,36
983,493	29,25
983,873	29,08
984,253	29,06
984,633	29,02
985,013	29,11
985,393	29,43
985,773	29,5
986,153	29,05
986,533	29,56
986,912	29,62
987,292	29,43
987,671	28,99
988,051	29,5
988,43	29,19
988,809	29,19
989,188	29,28
989,567	29,01
989,946	29,32
990,325	29,04
990,704	29,22
991,083	29,77
991,461	29,09
991,84	29,39
992,218	29,19
992,597	29,51
992,975	29,61
993,353	29,39
993,732	29,47
994,11	29,28
994,488	29,33
994,866	29,23
995,243	29,41
995,621	29,24
995,999	29,52
996,376	28,99
996,754	28,79
997,131	29,17
997,509	29,22
997,886	29,34
998,263	29,57
998,64	29,3
999,017	29,67
999,394	29,25
999,771	29,54
1000,148	29,45
1000,524	29,4
1000,901	29,38
1001,277	28,93
1001,654	29,28
1002,03	29,43
1002,406	29,43
1002,783	29,69
1003,159	30,04
1003,535	29,19
1003,911	29,2
1004,286	29,17
1004,662	29,61
1005,038	29,65
1005,414	29,84
1005,789	29,7
1006,164	29,67
1006,54	29,28
1006,915	29,65
1007,29	29,26
1007,665	29,85
1008,04	29,21
1008,415	29,49
1008,79	29,27
1009,165	29,74
1009,54	29,27
1009,914	29,46
1010,289	28,98
1010,663	29,66
1011,038	29,24
1011,412	29,77
1011,786	29,56
1012,16	29,58
1012,535	29,97
1012,909	29,61
1013,282	29,9
1013,656	29,51
1014,03	28,98
1014,404	29,76
1014,777	29
1015,151	29,57
1015,524	29,87
1015,897	29,47
1016,271	29,6
1016,644	29,68
1017,017	29,75
1017,39	30,01
1017,763	29,47
1018,136	29,9
1018,508	29,18
1018,881	29,48
1019,254	29,21
1019,626	29,46
1019,999	29,68
1020,371	29,96
1020,743	29,83
1021,116	29,65
1021,488	29,94
1021,86	29,11
1022,232	29,43
1022,604	29,92
1022,975	30,42
1023,347	29,58
1023,719	29,1
1024,09	28,95
1024,462	30
1024,833	29,44
1025,204	28,99
1025,576	29,65
1025,947	29,77
1026,318	29,34
1026,689	29,27
1027,06	30,01
1027,431	29,64
1027,801	28,75
1028,172	30,15
1028,543	29
1028,913	29,38
1029,284	29,97
1029,654	29,59
1030,024	29,58
1030,394	29,39
1030,764	29,83
1031,135	29,61
1031,504	29,47
1031,874	29,26
1032,244	29,35
1032,614	30,33
1032,983	29,82
1033,353	29,08
1033,722	29,3
1034,092	30,06
1034,461	29,48
1034,83	29,71
1035,2	30,16
1035,569	29,71
1035,938	29,65
1036,307	29,8
1036,675	30,09
1037,044	29,83
1037,413	30,1
1037,781	29,88
1038,15	30,26
1038,518	28,92
1038,887	29,61
1039,255	29,62
1039,623	29,63
1039,991	29,86
1040,359	30,12
1040,727	29,6
1041,095	30,05
1041,463	29,62
1041,831	29,69
1042,198	28,94
1042,566	29,44
1042,933	29,02
1043,301	30,32
1043,668	29,26
1044,035	30,69
1044,402	30
1044,77	29,28
1045,137	29,34
1045,503	29,68
1045,87	29,83
1046,237	30,29
1046,604	29,34
1046,97	29,9
1047,337	29,56
1047,703	30
1048,07	30,5
1048,436	29,86
1048,802	29,38
1049,168	29,63
1049,534	29,66
1049,9	30,65
1050,266	29,79
1050,632	30,29
1050,998	29,97
1051,364	30,54
1051,729	30,19
1052,095	29,73
1052,46	29,92
1052,825	29,95
1053,191	29,91
1053,556	29,69
1053,921	29,35
1054,286	29,29
1054,651	30,75
1055,016	30,62
1055,381	30,34
1055,745	29,92
1056,11	30,35
1056,475	30,68
1056,839	29,32
1057,203	29,41
1057,568	29,82
1057,932	29,6
1058,296	29,65
1058,66	30,14
1059,024	29,95
1059,388	28,89
1059,752	29,85
1060,116	30
1060,48	29,87
1060,843	29,96
1061,207	30,01
1061,57	29,27
1061,934	29,61
1062,297	30,13
1062,66	30,21
1063,023	30,59
1063,386	29,72
1063,749	30,74
1064,112	30,43
1064,475	30,34
1064,838	29,69
1065,201	30,05
1065,563	29,98
1065,926	30,46
1066,288	29,51
1066,651	30,12
1067,013	30,11
1067,375	30,44
1067,737	29,16
1068,099	29,95
1068,461	30,45
1068,823	30,09
1069,185	30,1
1069,547	29,58
1069,909	29,06
1070,27	28,82
1070,632	29,27
1070,993	29,09
1071,355	30,4
1071,716	29,6
1072,077	30,08
1072,438	30,21
1072,799	30,42
1073,16	30,04
1073,521	29,03
1073,882	29,15
1074,243	30,07
1074,603	29,72
1074,964	30,56
1075,325	28,86
1075,685	30,61
1076,045	29,62
1076,406	30,2
1076,766	29,09
1077,126	29,91
1077,486	28,74
1077,846	30,27
1078,206	29,78
1078,566	29,97
1078,925	29,24
1079,285	30,18
1079,645	30,43
1080,004	30,14
1080,364	30,28
1080,723	29,3
1081,082	30,58
1081,442	29,06
1081,801	30,11
1082,16	29,21
1082,519	30,04
1082,878	29,06
1083,237	28,94
1083,595	28,5
1083,954	30,2
1084,313	30,76
1084,671	27,98
1085,03	29,21
1085,388	30,32
1085,746	30,28
1086,104	28,89
1086,463	30,29
1086,821	29,47
1087,179	30,55
1087,537	28,74
1087,894	29,58
1088,252	29,5
1088,61	29,14
1088,967	30,95
1089,325	30,09
1089,682	28,97
1090,04	30,55
1090,397	30,77
1090,754	30,19
1091,111	28,6
1091,469	30,09
1091,826	30,97
1092,182	30,44
1092,539	29,92
1092,896	27,96
1093,253	30,75
1093,609	30,49
1093,966	29,52
1094,322	31,1
1094,679	30,34
1095,035	29,35
1095,391	30,94
1095,748	30,44
1096,104	30,71
1096,46	28,9
1096,816	30,55
1097,171	31,86
1097,527	29,55
1097,883	30,17
1098,239	30,6
1098,594	28,85
1098,95	31,09
1099,305	29,56
1099,66	29,58
1100,016	30,22
1100,371	28,23
1100,726	28,32
1101,081	29,05
1101,436	29,86
1101,791	29,72
1102,146	29,33
1102,5	30,05
1102,855	29,1
1103,21	30,4
1103,564	29,72
1103,918	28,75
1104,273	31,21
1104,627	30,28
1104,981	29,73
1105,335	30,09
1105,69	29,49
1106,043	30,43
1106,397	30,9
1106,751	31,59
1107,105	30,2
1107,459	29,58
1107,812	30,13
1108,166	30,26
1108,519	30,51
1108,873	28,91
1109,226	30,17
1109,579	27,71
1109,932	26,63
1110,285	29,23
1110,638	32,37
1110,991	30,16
1111,344	29,14
1111,697	28,05
1112,05	29,71
1112,402	29,44
1112,755	29,19
1113,107	30,72
1113,46	31,49
1113,812	30,26
1114,164	29,86
1114,517	29,27
1114,869	31,46
1115,221	30,73
1115,573	31,44
1115,924	29,11
