Data from E_6_0_Relative__4__00124.txt Node

Date: Mon Jan 29 13:02:41 CET 2024
User: diatiterra
Spectrometer: HDX00911
Trigger mode: 0
Integration Time (sec): 6,000000E-3
Scans to average: 2
Nonlinearity correction enabled: false
Boxcar width: 0
Storing dark spectrum: false
XAxis mode: Wavelengths
Number of Pixels in Spectrum: 2068
>>>>>Begin Spectral Data<<<<<
194,468	3,66
195,025	12,06
195,581	4,07
196,138	11,11
196,694	14,94
197,251	13,79
197,807	20,9
198,363	15,77
198,919	19,91
199,474	13,78
200,03	14,35
200,586	15,38
201,141	14,96
201,696	16,77
202,251	13,85
202,806	10,27
203,361	19,41
203,916	21,54
204,471	17,01
205,025	17,42
205,58	22,15
206,134	19,1
206,688	16,27
207,242	21,02
207,796	17,55
208,35	20,5
208,904	14,29
209,457	21,72
210,011	16,7
210,564	18,92
211,117	17,99
211,67	25,96
212,223	17,99
212,776	21,17
213,329	19,8
213,881	22,59
214,434	17,15
214,986	23,13
215,538	20,58
216,09	19,86
216,642	21,41
217,194	18,33
217,746	20,13
218,297	15,02
218,849	18,03
219,4	21,29
219,951	16
220,502	19,27
221,053	21,64
221,604	20,62
222,155	13,33
222,705	21,09
223,256	21,48
223,806	24,11
224,356	17,31
224,906	16,77
225,456	19,58
226,006	20,23
226,556	20,04
227,106	21,88
227,655	12,15
228,204	13,05
228,754	17,45
229,303	16,48
229,852	23,76
230,401	14,41
230,949	17,36
231,498	22,44
232,047	27,19
232,595	16,95
233,143	16,74
233,691	21,31
234,239	14,73
234,787	10,68
235,335	19,14
235,883	19,66
236,43	15,29
236,978	14,12
237,525	15,4
238,072	14,38
238,619	25,23
239,166	27,59
239,713	23,4
240,26	20,54
240,806	21,43
241,353	16,32
241,899	20,26
242,445	19,59
242,991	18
243,537	15,69
244,083	26,14
244,629	22,25
245,174	21,83
245,72	20,44
246,265	16,55
246,81	22,35
247,355	21,18
247,9	16,19
248,445	16,42
248,99	17,66
249,534	21,32
250,079	18,67
250,623	23,67
251,168	20,81
251,712	29,68
252,256	16,99
252,8	19,61
253,343	16,35
253,887	21,7
254,43	18,24
254,974	15,76
255,517	17,91
256,06	22,3
256,603	10,45
257,146	15,31
257,689	21
258,232	19,5
258,774	13,61
259,317	17,61
259,859	17,77
260,401	16,45
260,943	16,22
261,485	21,33
262,027	13,57
262,569	14
263,11	23,72
263,652	18,35
264,193	22,56
264,734	14,22
265,275	13,85
265,816	21,76
266,357	26,76
266,898	22,15
267,438	17,89
267,979	22,12
268,519	20,35
269,059	15,89
269,6	23,25
270,14	16,22
270,68	24,15
271,219	22,78
271,759	27,19
272,298	13,36
272,838	10,55
273,377	20,37
273,916	9,17
274,455	12,25
274,994	18,94
275,533	23,56
276,072	15,67
276,61	21,15
277,149	12,62
277,687	18,76
278,225	18,33
278,763	22,62
279,301	12,67
279,839	18,28
280,377	14,93
280,914	17,63
281,452	17,66
281,989	16,7
282,526	22,53
283,064	19,56
283,601	13,46
284,137	21,9
284,674	14,81
285,211	14,38
285,747	15,27
286,284	17,58
286,82	23,46
287,356	17
287,892	17,23
288,428	13,73
288,964	16,94
289,5	14,38
290,035	15,45
290,571	19,27
291,106	11,14
291,641	20,91
292,176	24,45
292,711	19,08
293,246	18,81
293,781	14,45
294,315	9,23
294,85	22,79
295,384	19,33
295,918	20,44
296,453	12,26
296,987	12,09
297,52	14,69
298,054	23,94
298,588	10,22
299,121	17,74
299,655	19,23
300,188	12,76
300,721	24,88
301,254	17,58
301,787	22,03
302,32	12,44
302,853	16,96
303,385	23,35
303,918	14,25
304,45	10,09
304,982	14,44
305,514	18,75
306,046	18,82
306,578	16,93
307,11	13,29
307,641	17,41
308,173	17,27
308,704	14,73
309,236	11,19
309,767	20,94
310,298	18,63
310,829	22,07
311,359	13,32
311,89	17,38
312,421	13,23
312,951	26,05
313,481	18,43
314,012	18,34
314,542	13,65
315,072	12,81
315,601	16,67
316,131	13,27
316,661	15,7
317,19	7,92
317,72	15,24
318,249	11,29
318,778	11,76
319,307	11,29
319,836	19,17
320,365	19,35
320,893	14,99
321,422	14,52
321,95	13,56
322,479	19,41
323,007	13,53
323,535	13,72
324,063	17,49
324,591	17,02
325,118	15,82
325,646	20,28
326,173	15,75
326,701	21,19
327,228	19,55
327,755	7,89
328,282	9,09
328,809	23,62
329,336	16,86
329,862	22,95
330,389	15,4
330,915	15
331,441	14,45
331,968	23,86
332,494	16
333,02	10,11
333,545	20,32
334,071	14,51
334,597	22,6
335,122	12,03
335,648	13,66
336,173	17,57
336,698	20,18
337,223	14,32
337,748	17,65
338,272	14,02
338,797	13,88
339,322	14,25
339,846	11,28
340,37	15,7
340,894	12,69
341,419	15,34
341,942	9,33
342,466	20,46
342,99	14,52
343,514	16,77
344,037	15,6
344,56	7,49
345,084	14,39
345,607	16,97
346,13	15,65
346,653	17,23
347,175	10,65
347,698	14,73
348,221	22,53
348,743	15,61
349,265	16,17
349,787	9,61
350,309	14,19
350,831	9,83
351,353	16,01
351,875	15,44
352,397	13,67
352,918	10,92
353,439	15,91
353,961	11,93
354,482	9,76
355,003	11,13
355,524	13,26
356,044	16,24
356,565	12,46
357,086	9,75
357,606	13,25
358,126	15,28
358,646	13,46
359,167	17,32
359,687	14,47
360,206	7,09
360,726	9,57
361,246	13,09
361,765	6,46
362,285	10,46
362,804	8,39
363,323	14,75
363,842	12,28
364,361	9,63
364,88	12,5
365,398	12,24
365,917	10,17
366,435	9,9
366,954	9,48
367,472	11,94
367,99	12,84
368,508	8,08
369,026	9,06
369,544	6,83
370,061	7,7
370,579	7,25
371,096	12,95
371,613	12,97
372,131	9,89
372,648	8,93
373,165	6,08
373,681	5,99
374,198	7,25
374,715	6,91
375,231	8,69
375,747	9,22
376,264	5,31
376,78	6,63
377,296	8,91
377,812	8,7
378,327	7,23
378,843	8,52
379,359	6,51
379,874	4,25
380,389	5,77
380,905	8,48
381,42	5,32
381,935	6,22
382,449	6,62
382,964	3,11
383,479	6,37
383,993	5,64
384,508	7,91
385,022	7,2
385,536	4,7
386,05	6,16
386,564	4,2
387,078	7,02
387,592	5,89
388,105	7,18
388,619	4,81
389,132	6,75
389,645	7,64
390,158	4,82
390,671	6,16
391,184	4,99
391,697	5,95
392,21	5,21
392,722	3,12
393,235	4,82
393,747	4,13
394,259	4,12
394,771	6,02
395,283	4,65
395,795	5,25
396,307	2,72
396,818	5,94
397,33	5,9
397,841	4,9
398,353	5,25
398,864	4,02
399,375	4,63
399,886	5,06
400,397	4,17
400,907	4,06
401,418	5,9
401,928	4,48
402,439	4,13
402,949	3,9
403,459	3,57
403,969	2,95
404,479	3,01
404,989	2,88
405,498	3,53
406,008	3,27
406,517	3,2
407,027	3,13
407,536	2,7
408,045	2,81
408,554	2,78
409,063	1,85
409,572	2,5
410,08	2,47
410,589	2,39
411,097	1,63
411,606	2,06
412,114	2,07
412,622	2,17
413,13	1,64
413,638	1,1
414,145	2,86
414,653	2,12
415,16	1,32
415,668	1,81
416,175	1,54
416,682	1,44
417,189	1,19
417,696	1,72
418,203	1,59
418,71	1,6
419,216	1,5
419,723	1,88
420,229	1,53
420,735	0,99
421,242	1,45
421,748	0,94
422,254	1,27
422,759	1,47
423,265	1,49
423,771	1,23
424,276	1,3
424,781	1,07
425,287	0,98
425,792	1,22
426,297	1,11
426,802	1,22
427,306	1,13
427,811	1,26
428,316	0,95
428,82	1,09
429,324	1,1
429,829	0,78
430,333	1,37
430,837	1,32
431,34	1,48
431,844	0,72
432,348	1,26
432,851	1,34
433,355	0,91
433,858	1,18
434,361	1,28
434,864	1,19
435,367	1,12
435,87	1,06
436,373	1,19
436,876	1,05
437,378	1,05
437,88	0,78
438,383	1,06
438,885	1,3
439,387	1,12
439,889	0,92
440,391	1,34
440,892	1,19
441,394	1,09
441,896	1,27
442,397	1,04
442,898	1,12
443,399	1,04
443,9	1,15
444,401	1,1
444,902	1,13
445,403	1,09
445,903	1,05
446,404	1,09
446,904	1,14
447,405	0,98
447,905	1,16
448,405	1,27
448,905	0,9
449,404	1,07
449,904	0,93
450,404	1,05
450,903	1,23
451,403	1,19
451,902	1,37
452,401	1,22
452,9	1,2
453,399	1,21
453,898	1,15
454,396	1,32
454,895	1,27
455,393	1,45
455,892	1,18
456,39	1,35
456,888	1,32
457,386	1,22
457,884	1,23
458,382	1,3
458,879	1,35
459,377	1,44
459,874	1,19
460,372	1,3
460,869	1,15
461,366	1,33
461,863	1,26
462,36	0,99
462,857	1,37
463,353	1,46
463,85	1,25
464,346	1,29
464,843	1,33
465,339	1,37
465,835	1,44
466,331	1,19
466,827	1,33
467,323	1,31
467,818	1,31
468,314	1,06
468,809	1,29
469,305	1,01
469,8	1,25
470,295	1,21
470,79	1,37
471,285	1,21
471,78	1,26
472,274	1,25
472,769	1,26
473,263	1,42
473,758	1,41
474,252	1,28
474,746	1,21
475,24	1,39
475,734	1,21
476,228	1,34
476,721	1,25
477,215	1,35
477,708	1,37
478,202	1,42
478,695	1,48
479,188	1,29
479,681	1,38
480,174	1,2
480,667	1,21
481,159	1,31
481,652	1,3
482,144	1,37
482,637	1,32
483,129	1,25
483,621	1,39
484,113	1,49
484,605	1,4
485,097	1,31
485,588	1,2
486,08	1,15
486,571	1,29
487,063	1,4
487,554	1,39
488,045	1,28
488,536	1,48
489,027	1,39
489,518	1,49
490,008	1,38
490,499	1,49
490,989	1,47
491,48	1,44
491,97	1,47
492,46	1,53
492,95	1,53
493,44	1,53
493,93	1,55
494,419	1,56
494,909	1,69
495,398	1,74
495,888	1,67
496,377	1,79
496,866	1,88
497,355	1,76
497,844	1,88
498,333	1,79
498,821	1,94
499,31	1,81
499,798	1,9
500,287	2,01
500,775	1,99
501,263	2,17
501,751	2,2
502,239	2,24
502,727	2,14
503,215	2,33
503,702	2,41
504,19	2,55
504,677	2,52
505,164	2,76
505,651	2,66
506,139	2,64
506,625	2,78
507,112	2,93
507,599	2,95
508,086	3,09
508,572	2,92
509,058	3,09
509,545	3,36
510,031	3,47
510,517	3,55
511,003	3,66
511,489	3,79
511,974	3,85
512,46	3,97
512,946	4,1
513,431	4,15
513,916	4,14
514,401	4,31
514,887	4,71
515,371	4,88
515,856	4,96
516,341	5,06
516,826	5,13
517,31	5,36
517,795	5,44
518,279	5,57
518,763	5,55
519,247	5,64
519,731	6,04
520,215	6,21
520,699	6,4
521,182	6,38
521,666	6,54
522,149	6,88
522,633	7,09
523,116	7,12
523,599	7,12
524,082	7,36
524,565	7,42
525,048	7,65
525,53	7,9
526,013	7,9
526,495	7,88
526,978	8,14
527,46	8,27
527,942	8,32
528,424	8,61
528,906	8,76
529,388	8,63
529,87	8,5
530,351	8,92
530,833	9,08
531,314	9,02
531,795	8,99
532,277	9,31
532,758	9,51
533,238	9,49
533,719	9,39
534,2	9,48
534,681	9,5
535,161	9,81
535,642	9,7
536,122	9,75
536,602	9,67
537,082	9,87
537,562	9,67
538,042	9,62
538,522	9,95
539,001	9,78
539,481	10,08
539,96	10,01
540,44	10,36
540,919	10,1
541,398	10,13
541,877	10,08
542,356	10,39
542,835	10,23
543,313	10,2
543,792	10,38
544,27	10,09
544,749	10,36
545,227	10,04
545,705	10,16
546,183	10,15
546,661	10,37
547,139	10,5
547,616	10,46
548,094	10,27
548,571	10,42
549,049	10,36
549,526	10,61
550,003	10,61
550,48	10,62
550,957	10,54
551,434	10,66
551,911	10,58
552,387	10,58
552,864	10,4
553,34	10,58
553,817	10,53
554,293	10,61
554,769	10,6
555,245	10,24
555,721	10,6
556,197	10,73
556,672	10,33
557,148	10,45
557,623	10,49
558,099	10,48
558,574	10,37
559,049	10,49
559,524	10,28
559,999	10,14
560,474	10,18
560,948	10,37
561,423	10,21
561,897	10,14
562,372	10,18
562,846	9,89
563,32	9,83
563,794	10,14
564,268	9,89
564,742	9,91
565,216	9,9
565,69	9,79
566,163	9,66
566,636	9,52
567,11	9,69
567,583	9,45
568,056	9,17
568,529	9,43
569,002	9,23
569,475	9,25
569,947	9,26
570,42	8,78
570,892	8,8
571,365	8,73
571,837	8,67
572,309	8,8
572,781	8,51
573,253	8,53
573,725	8,25
574,197	8,36
574,668	8,32
575,14	8,15
575,611	8,15
576,082	7,91
576,554	7,89
577,025	7,83
577,496	7,62
577,967	7,63
578,437	7,52
578,908	7,42
579,379	7,62
579,849	7,32
580,319	7,48
580,79	7,3
581,26	7,33
581,73	7,24
582,2	7,13
582,669	7,07
583,139	7,05
583,609	7,02
584,078	7,14
584,548	6,89
585,017	7,11
585,486	6,75
585,955	6,82
586,424	6,78
586,893	6,74
587,362	6,65
587,83	6,61
588,299	6,67
588,767	6,57
589,236	6,61
589,704	6,53
590,172	6,4
590,64	6,33
591,108	6,41
591,576	6,37
592,043	6,18
592,511	6,28
592,978	6,38
593,446	6,26
593,913	6,31
594,38	6,22
594,847	6,31
595,314	6,19
595,781	6,11
596,248	6,05
596,715	6,08
597,181	5,95
597,647	6
598,114	6,03
598,58	6,09
599,046	6,04
599,512	6,09
599,978	5,98
600,444	5,9
600,91	5,97
601,375	5,86
601,841	5,64
602,306	5,92
602,771	5,94
603,236	5,93
603,702	5,7
604,167	5,77
604,631	5,8
605,096	5,78
605,561	5,66
606,025	5,63
606,49	5,51
606,954	5,59
607,418	5,64
607,882	5,46
608,347	5,47
608,81	5,5
609,274	5,34
609,738	5,42
610,202	5,28
610,665	5,3
611,128	5,28
611,592	5,16
612,055	5,14
612,518	5,01
612,981	5,04
613,444	4,96
613,907	5,04
614,369	4,96
614,832	4,85
615,294	4,89
615,757	4,82
616,219	4,74
616,681	4,79
617,143	4,64
617,605	4,63
618,067	4,7
618,529	4,46
618,99	4,56
619,452	4,4
619,913	4,46
620,375	4,38
620,836	4,37
621,297	4,43
621,758	4,4
622,219	4,39
622,68	4,33
623,14	4,34
623,601	4,16
624,061	4,17
624,522	4,24
624,982	4,21
625,442	4,21
625,902	4,15
626,362	4,2
626,822	4,16
627,282	4,16
627,742	4,2
628,201	4,12
628,661	4,1
629,12	4,14
629,579	4,04
630,038	4,02
630,497	4,12
630,956	4,2
631,415	4,05
631,874	4,07
632,332	4,06
632,791	4,07
633,249	4,11
633,708	4,06
634,166	3,97
634,624	4,01
635,082	3,95
635,54	3,84
635,998	3,83
636,455	3,79
636,913	3,85
637,37	3,79
637,828	3,71
638,285	3,76
638,742	3,62
639,199	3,64
639,656	3,57
640,113	3,49
640,57	3,47
641,027	3,29
641,483	3,37
641,94	3,31
642,396	3,22
642,852	3,15
643,309	3,13
643,765	3,05
644,221	3,04
644,676	3,03
645,132	2,94
645,588	2,9
646,043	2,83
646,499	2,83
646,954	2,75
647,409	2,68
647,864	2,65
648,319	2,66
648,774	2,49
649,229	2,53
649,684	2,59
650,139	2,57
650,593	2,51
651,047	2,45
651,502	2,39
651,956	2,43
652,41	2,42
652,864	2,42
653,318	2,38
653,772	2,37
654,225	2,33
654,679	2,28
655,133	2,26
655,586	2,27
656,039	2,23
656,492	2,23
656,946	2,25
657,399	2,21
657,851	2,19
658,304	2,1
658,757	2,09
659,209	2,08
659,662	2,05
660,114	2,06
660,567	2
661,019	1,99
661,471	2
661,923	1,96
662,375	1,86
662,826	1,89
663,278	1,93
663,73	1,85
664,181	1,79
664,632	1,78
665,084	1,75
665,535	1,8
665,986	1,79
666,437	1,77
666,888	1,8
667,338	1,75
667,789	1,79
668,24	1,81
668,69	1,87
669,14	1,79
669,591	1,84
670,041	1,78
670,491	1,89
670,941	1,88
671,391	1,94
671,84	1,99
672,29	1,94
672,74	2,07
673,189	2,13
673,638	2,15
674,088	2,15
674,537	2,17
674,986	2,25
675,435	2,33
675,883	2,4
676,332	2,45
676,781	2,55
677,229	2,56
677,678	2,64
678,126	2,71
678,574	2,76
679,022	2,81
679,47	2,94
679,918	2,98
680,366	3
680,814	3,13
681,261	3,24
681,709	3,3
682,156	3,29
682,604	3,43
683,051	3,5
683,498	3,48
683,945	3,55
684,392	3,57
684,839	3,61
685,286	3,72
685,732	3,84
686,179	3,81
686,625	3,86
687,071	4,02
687,518	4,07
687,964	4,13
688,41	4,15
688,856	4,23
689,301	4,41
689,747	4,54
690,193	4,58
690,638	4,73
691,084	4,93
691,529	5,13
691,974	5,22
692,419	5,47
692,864	5,56
693,309	5,83
693,754	6,01
694,199	6,32
694,643	6,51
695,088	6,76
695,532	6,98
695,977	7,3
696,421	7,51
696,865	7,58
697,309	7,94
697,753	8,21
698,197	8,42
698,64	8,71
699,084	9,01
699,527	9,36
699,971	9,36
700,414	9,81
700,857	10,06
701,3	10,13
701,743	10,51
702,186	10,88
702,629	10,87
703,072	11,14
703,515	11,44
703,957	11,72
704,399	11,96
704,842	11,94
705,284	12,47
705,726	12,62
706,168	12,73
706,61	12,92
707,052	13,01
707,494	13,38
707,935	13,48
708,377	13,69
708,818	13,82
709,26	14,13
709,701	14,25
710,142	14,22
710,583	14,62
711,024	14,79
711,465	14,89
711,905	15,1
712,346	15,32
712,787	15,67
713,227	15,71
713,667	15,68
714,108	16,02
714,548	16,1
714,988	16,3
715,428	16,49
715,868	16,68
716,307	16,67
716,747	16,89
717,186	16,96
717,626	17,1
718,065	17,22
718,504	17,41
718,944	17,67
719,383	17,75
719,822	17,81
720,261	17,84
720,699	18,09
721,138	18,16
721,576	18,35
722,015	18,58
722,453	18,63
722,892	18,49
723,33	18,66
723,768	18,83
724,206	18,95
724,644	18,73
725,081	18,91
725,519	19,39
725,957	19,26
726,394	19,3
726,832	19,51
727,269	19,35
727,706	19,68
728,143	19,66
728,58	19,54
729,017	19,82
729,454	19,96
729,89	20,03
730,327	19,66
730,764	19,93
731,2	20,25
731,636	20,14
732,072	20,27
732,509	20,21
732,945	20,31
733,38	20,25
733,816	20,37
734,252	20,45
734,688	20,41
735,123	20,55
735,559	20,29
735,994	20,5
736,429	20,75
736,864	20,54
737,299	20,52
737,734	20,67
738,169	20,5
738,604	20,62
739,038	20,67
739,473	20,72
739,907	20,69
740,342	20,64
740,776	20,84
741,21	20,73
741,644	20,68
742,078	20,7
742,512	20,6
742,946	20,51
743,379	20,6
743,813	20,65
744,246	20,88
744,68	20,86
745,113	20,84
745,546	20,7
745,979	20,93
746,412	20,7
746,845	20,64
747,278	20,57
747,711	20,59
748,143	20,55
748,576	20,83
749,008	20,64
749,441	20,68
749,873	20,76
750,305	20,61
750,737	20,65
751,169	20,63
751,601	20,57
752,032	20,68
752,464	20,43
752,896	20,47
753,327	20,42
753,758	20,53
754,19	20,39
754,621	20,48
755,052	20,23
755,483	20,58
755,914	20,15
756,344	20,39
756,775	20,13
757,206	20,4
757,636	20,27
758,066	20,36
758,497	20,18
758,927	20,16
759,357	20,28
759,787	19,97
760,217	20,13
760,647	20,19
761,076	20,45
761,506	20,14
761,935	19,96
762,365	20,22
762,794	20,31
763,223	19,84
763,653	19,97
764,082	19,94
764,51	19,88
764,939	19,91
765,368	19,85
765,797	20,09
766,225	19,86
766,654	19,92
767,082	19,86
767,51	19,87
767,938	19,96
768,367	19,9
768,795	19,83
769,222	19,94
769,65	19,87
770,078	19,97
770,505	19,69
770,933	19,75
771,36	19,52
771,788	19,72
772,215	19,91
772,642	19,8
773,069	19,87
773,496	19,69
773,923	19,75
774,349	19,73
774,776	19,81
775,203	19,75
775,629	19,43
776,055	19,51
776,482	19,59
776,908	19,81
777,334	19,79
777,76	19,57
778,186	19,61
778,611	19,64
779,037	19,54
779,463	19,3
779,888	19,44
780,314	19,68
780,739	19,46
781,164	19,69
781,589	19,48
782,014	19,44
782,439	19,49
782,864	19,56
783,289	19,68
783,713	19,39
784,138	19,52
784,562	19,47
784,987	19,47
785,411	19,37
785,835	19,36
786,259	19,32
786,683	19,67
787,107	19,55
787,531	19,52
787,954	19,54
788,378	19,31
788,802	19,38
789,225	19,48
789,648	19,33
790,071	19,59
790,495	19,6
790,918	19,43
791,34	19,69
791,763	19,63
792,186	19,42
792,609	19,36
793,031	19,41
793,454	19,57
793,876	19,4
794,298	19,25
794,721	19,29
795,143	19,24
795,565	19,22
795,986	19,18
796,408	19,49
796,83	19,16
797,252	19,29
797,673	19,3
798,094	19,32
798,516	19,34
798,937	19,35
799,358	19,47
799,779	19,31
800,2	19,26
800,621	19,39
801,042	19,32
801,462	19,22
801,883	19,28
802,303	19,35
802,724	19,15
803,144	19,35
803,564	19,41
803,984	19,31
804,404	19,32
804,824	18,98
805,244	19,4
805,664	19,21
806,084	19,51
806,503	19,32
806,923	19,29
807,342	19,26
807,761	19,3
808,18	19,32
808,599	19,27
809,018	19,11
809,437	19,31
809,856	19,27
810,275	19,25
810,693	19,43
811,112	19,34
811,53	19,2
811,949	19,28
812,367	19,3
812,785	19,26
813,203	19,2
813,621	19,16
814,039	19,28
814,457	19,23
814,874	19,1
815,292	19,31
815,709	19,36
816,127	19,09
816,544	19,22
816,961	19,33
817,378	19,07
817,795	19,33
818,212	19,15
818,629	19,05
819,046	19,18
819,462	19,11
819,879	19,11
820,295	19,21
820,712	19,28
821,128	19,19
821,544	19,05
821,96	19,29
822,376	19,07
822,792	19,21
823,208	19,14
823,624	19,3
824,039	19,13
824,455	19,21
824,87	19,32
825,286	19,22
825,701	19,17
826,116	19,22
826,531	19,16
826,946	19,13
827,361	19,07
827,776	19,07
828,19	18,99
828,605	19,2
829,02	19,11
829,434	19,25
829,848	19,09
830,263	19,02
830,677	19,21
831,091	18,89
831,505	19,04
831,919	19,17
832,332	18,94
832,746	19,09
833,16	18,94
833,573	19,04
833,987	19,18
834,4	19,12
834,813	19,12
835,226	18,91
835,639	19,04
836,052	19,03
836,465	19,03
836,878	19,21
837,29	19,26
837,703	19,05
838,116	19,19
838,528	18,87
838,94	19,05
839,352	18,82
839,765	19,06
840,177	19,06
840,589	19,18
841	18,88
841,412	19,19
841,824	19,05
842,235	19,16
842,647	18,98
843,058	19,19
843,47	19,03
843,881	18,95
844,292	19,1
844,703	19,05
845,114	19,19
845,525	19,22
845,935	18,94
846,346	18,98
846,757	19,05
847,167	18,83
847,577	19,04
847,988	19,12
848,398	19,07
848,808	19,04
849,218	19,12
849,628	19,21
850,038	19,14
850,448	19,13
850,857	19,01
851,267	19,02
851,676	18,87
852,086	18,96
852,495	19,09
852,904	18,83
853,313	18,92
853,722	19,1
854,131	18,96
854,54	18,75
854,949	18,96
855,357	18,94
855,766	18,84
856,174	18,86
856,583	18,98
856,991	18,92
857,399	18,97
857,807	18,84
858,215	18,66
858,623	19,07
859,031	18,92
859,439	18,8
859,846	18,93
860,254	19,13
860,661	18,83
861,069	19,04
861,476	18,86
861,883	18,78
862,29	19,11
862,697	18,88
863,104	18,92
863,511	18,85
863,918	18,9
864,325	19,01
864,731	18,82
865,138	18,99
865,544	18,85
865,95	18,79
866,357	18,98
866,763	18,82
867,169	18,94
867,575	18,85
867,98	18,81
868,386	18,98
868,792	18,92
869,197	18,93
869,603	18,7
870,008	18,94
870,414	18,8
870,819	18,74
871,224	18,85
871,629	18,92
872,034	18,78
872,439	18,95
872,844	18,8
873,248	18,9
873,653	18,62
874,057	18,85
874,462	18,86
874,866	18,93
875,27	18,87
875,674	18,87
876,078	18,86
876,482	19,04
876,886	18,9
877,29	18,75
877,694	18,8
878,097	18,83
878,501	18,79
878,904	18,56
879,308	18,81
879,711	18,94
880,114	18,88
880,517	18,65
880,92	18,83
881,323	18,81
881,726	18,91
882,128	18,81
882,531	18,84
882,934	18,87
883,336	18,7
883,738	18,71
884,141	18,81
884,543	18,68
884,945	18,83
885,347	18,96
885,749	18,78
886,151	18,59
886,552	18,87
886,954	18,7
887,355	18,9
887,757	18,97
888,158	18,79
888,56	18,57
888,961	18,9
889,362	18,86
889,763	18,77
890,164	18,78
890,565	18,57
890,965	18,87
891,366	18,76
891,767	18,87
892,167	18,68
892,567	18,74
892,968	18,65
893,368	18,67
893,768	18,83
894,168	18,73
894,568	18,88
894,968	18,77
895,368	18,91
895,767	18,71
896,167	18,61
896,566	18,86
896,966	18,85
897,365	18,62
897,764	18,62
898,164	18,64
898,563	18,55
898,962	18,67
899,361	18,6
899,759	18,64
900,158	18,62
900,557	18,48
900,955	18,81
901,354	18,58
901,752	18,81
902,15	18,9
902,548	18,7
902,947	18,75
903,345	18,84
903,742	18,52
904,14	18,75
904,538	18,67
904,936	18,47
905,333	18,78
905,731	18,48
906,128	18,72
906,525	18,56
906,923	18,7
907,32	18,66
907,717	18,62
908,114	18,64
908,511	18,73
908,907	18,62
909,304	18,71
909,701	18,67
910,097	18,58
910,494	18,83
910,89	18,74
911,286	18,55
911,682	18,72
912,078	18,89
912,474	18,73
912,87	18,68
913,266	18,5
913,662	18,69
914,058	18,75
914,453	18,76
914,849	18,52
915,244	18,63
915,639	18,68
916,034	18,7
916,43	18,62
916,825	18,73
917,22	19,03
917,614	18,69
918,009	18,53
918,404	18,61
918,798	18,79
919,193	18,65
919,587	18,46
919,982	18,92
920,376	18,9
920,77	18,71
921,164	18,61
921,558	18,79
921,952	18,65
922,346	18,44
922,74	18,57
923,133	18,5
923,527	18,65
923,92	18,77
924,314	18,71
924,707	18,49
925,1	18,51
925,493	18,61
925,886	18,53
926,279	18,42
926,672	18,42
927,065	18,65
927,457	18,75
927,85	18,57
928,243	18,47
928,635	18,65
929,027	18,5
929,42	18,52
929,812	18,55
930,204	18,37
930,596	18,54
930,988	18,63
931,379	18,46
931,771	18,67
932,163	18,67
932,554	18,11
932,946	18,84
933,337	18,79
933,729	18,55
934,12	18,51
934,511	18,48
934,902	18,49
935,293	18,33
935,684	18,39
936,075	18,39
936,465	18,67
936,856	18,46
937,246	18,56
937,637	18,32
938,027	17,85
938,417	18,26
938,808	18,12
939,198	18,52
939,588	18,49
939,978	18,45
940,368	18,56
940,757	18,64
941,147	18,44
941,537	18,46
941,926	18,95
942,315	18,69
942,705	18,64
943,094	18,62
943,483	18,72
943,872	18,76
944,261	18,39
944,65	18,82
945,039	18,43
945,428	18,22
945,816	18,34
946,205	17,98
946,593	18,62
946,982	18,23
947,37	18,14
947,758	18,54
948,146	18,48
948,534	18,47
948,922	18,48
949,31	17,96
949,698	18,39
950,086	18,71
950,473	18,47
950,861	18,06
951,248	18,07
951,636	17,98
952,023	17,94
952,41	18,03
952,797	18
953,184	18,05
953,571	18,19
953,958	17,87
954,345	18,31
954,731	18,4
955,118	18,54
955,505	17,82
955,891	18,32
956,277	17,72
956,664	17,85
957,05	18,04
957,436	18,49
957,822	18,17
958,208	18,02
958,594	18,12
958,979	18,23
959,365	18,11
959,751	17,93
960,136	17,81
960,522	17,74
960,907	18,25
961,292	17,65
961,677	18
962,062	18,08
962,447	18,03
962,832	17,92
963,217	18,11
963,602	18,25
963,986	17,89
964,371	17,93
964,756	17,96
965,14	17,9
965,524	18,01
965,908	17,87
966,293	17,91
966,677	18
967,061	18,14
967,445	17,65
967,828	17,89
968,212	17,99
968,596	18,01
968,979	18,29
969,363	17,74
969,746	17,79
970,129	18,13
970,513	17,89
970,896	17,8
971,279	17,85
971,662	17,97
972,045	17,97
972,428	18,14
972,81	17,76
973,193	17,63
973,575	17,97
973,958	17,96
974,34	17,87
974,723	18,12
975,105	17,88
975,487	17,85
975,869	17,84
976,251	18
976,633	17,89
977,015	17,84
977,396	17,97
977,778	18,13
978,16	17,99
978,541	17,93
978,922	18,07
979,304	18,13
979,685	17,82
980,066	17,77
980,447	18,25
980,828	17,89
981,209	18
981,59	18,17
981,97	18,13
982,351	17,97
982,732	17,8
983,112	18,58
983,493	18,2
983,873	17,97
984,253	18,17
984,633	17,95
985,013	17,97
985,393	17,82
985,773	17,91
986,153	17,71
986,533	17,92
986,912	17,97
987,292	17,69
987,671	17,67
988,051	17,91
988,43	17,92
988,809	18,33
989,188	18,21
989,567	17,8
989,946	17,8
990,325	18,15
990,704	17,96
991,083	18,19
991,461	17,9
991,84	18,21
992,218	18,05
992,597	17,98
992,975	17,94
993,353	17,89
993,732	17,97
994,11	18,28
994,488	18,16
994,866	17,98
995,243	18,21
995,621	17,68
995,999	18,11
996,376	18,13
996,754	17,87
997,131	17,92
997,509	17,81
997,886	17,95
998,263	18,1
998,64	17,69
999,017	17,77
999,394	18,37
999,771	18,14
1000,148	17,87
1000,524	18,22
1000,901	18,03
1001,277	18,32
1001,654	18,36
1002,03	17,97
1002,406	18,06
1002,783	18,09
1003,159	18,06
1003,535	18,21
1003,911	18,23
1004,286	17,5
1004,662	18,07
1005,038	18,21
1005,414	17,86
1005,789	17,83
1006,164	17,99
1006,54	18,02
1006,915	18,18
1007,29	17,51
1007,665	18,05
1008,04	18,01
1008,415	18,02
1008,79	18,24
1009,165	18,19
1009,54	18,07
1009,914	18,12
1010,289	18,22
1010,663	18,5
1011,038	17,82
1011,412	18,29
1011,786	18,08
1012,16	18,15
1012,535	18,1
1012,909	18,26
1013,282	18,1
1013,656	17,91
1014,03	17,73
1014,404	18,1
1014,777	17,91
1015,151	17,96
1015,524	18,2
1015,897	18,68
1016,271	18,38
1016,644	18,36
1017,017	18,43
1017,39	18
1017,763	18,1
1018,136	18,2
1018,508	17,94
1018,881	18,08
1019,254	18,47
1019,626	18,27
1019,999	18,07
1020,371	18,13
1020,743	18,2
1021,116	18,39
1021,488	17,9
1021,86	17,85
1022,232	18,28
1022,604	17,87
1022,975	18,43
1023,347	17,9
1023,719	18,17
1024,09	18,19
1024,462	17,91
1024,833	17,75
1025,204	17,52
1025,576	18,12
1025,947	18,14
1026,318	18,26
1026,689	17,86
1027,06	18,4
1027,431	18,16
1027,801	18,27
1028,172	18,29
1028,543	18,09
1028,913	18,23
1029,284	17,93
1029,654	17,79
1030,024	18,6
1030,394	18,51
1030,764	18,48
1031,135	18,79
1031,504	17,98
1031,874	18,02
1032,244	18,09
1032,614	18,8
1032,983	18,54
1033,353	17,92
1033,722	17,81
1034,092	18,37
1034,461	18,08
1034,83	18,23
1035,2	18,83
1035,569	18,01
1035,938	17,99
1036,307	17,81
1036,675	18,48
1037,044	18,24
1037,413	18,23
1037,781	18,4
1038,15	18,03
1038,518	18,05
1038,887	18,43
1039,255	18,82
1039,623	18,1
1039,991	18,46
1040,359	18,05
1040,727	18,64
1041,095	17,97
1041,463	18,18
1041,831	18,23
1042,198	18,34
1042,566	18,31
1042,933	18,35
1043,301	18,61
1043,668	18,37
1044,035	18,25
1044,402	17,64
1044,77	18,08
1045,137	18,16
1045,503	18,13
1045,87	18,34
1046,237	18,17
1046,604	18,09
1046,97	18,56
1047,337	18,19
1047,703	18,45
1048,07	18,38
1048,436	18,83
1048,802	18,23
1049,168	18,78
1049,534	18,69
1049,9	18,87
1050,266	19,02
1050,632	18,21
1050,998	18
1051,364	18,82
1051,729	19,06
1052,095	18,7
1052,46	18,98
1052,825	18,14
1053,191	18,63
1053,556	18,51
1053,921	18,24
1054,286	18,17
1054,651	18,52
1055,016	18,42
1055,381	18,79
1055,745	17,97
1056,11	18,86
1056,475	18,55
1056,839	18,19
1057,203	18,3
1057,568	18,05
1057,932	18,19
1058,296	17,61
1058,66	18,83
1059,024	18,09
1059,388	17,97
1059,752	18,15
1060,116	18,35
1060,48	18,03
1060,843	18,4
1061,207	18,32
1061,57	18,6
1061,934	18,24
1062,297	18,23
1062,66	18,46
1063,023	17,61
1063,386	18,09
1063,749	18,57
1064,112	18,76
1064,475	17,77
1064,838	17,55
1065,201	17,96
1065,563	17,45
1065,926	18,5
1066,288	18,71
1066,651	18,11
1067,013	17,89
1067,375	18,92
1067,737	17,93
1068,099	18,57
1068,461	18,24
1068,823	19,05
1069,185	18,74
1069,547	18,48
1069,909	18,1
1070,27	18,25
1070,632	18,27
1070,993	18,44
1071,355	18,4
1071,716	18,33
1072,077	18,26
1072,438	18,07
1072,799	18,53
1073,16	18,83
1073,521	17,78
1073,882	18,75
1074,243	18,85
1074,603	18,86
1074,964	17,96
1075,325	18,32
1075,685	18,31
1076,045	18,42
1076,406	18,87
1076,766	17,73
1077,126	18,94
1077,486	17,6
1077,846	18,67
1078,206	16,8
1078,566	18,49
1078,925	18,6
1079,285	18,29
1079,645	18,51
1080,004	19,4
1080,364	18,59
1080,723	18,21
1081,082	18,03
1081,442	18,29
1081,801	18,06
1082,16	18,18
1082,519	18,23
1082,878	18,51
1083,237	17,88
1083,595	18,22
1083,954	18,11
1084,313	17,8
1084,671	18,72
1085,03	17,67
1085,388	17,69
1085,746	18,32
1086,104	17,24
1086,463	18,83
1086,821	18,88
1087,179	18
1087,537	17,96
1087,894	18,16
1088,252	17,94
1088,61	19
1088,967	18,47
1089,325	18,45
1089,682	19
1090,04	18,51
1090,397	17,57
1090,754	18,25
1091,111	17,93
1091,469	19,45
1091,826	19,31
1092,182	19,76
1092,539	19,34
1092,896	16,9
1093,253	18,65
1093,609	17,67
1093,966	17,54
1094,322	19,04
1094,679	18,44
1095,035	18,68
1095,391	17,72
1095,748	19,41
1096,104	19,54
1096,46	19,33
1096,816	18,29
1097,171	19,36
1097,527	19,13
1097,883	18,77
1098,239	18,65
1098,594	19,66
1098,95	18,64
1099,305	20,36
1099,66	18,94
1100,016	18,42
1100,371	18,43
1100,726	18,62
1101,081	18,55
1101,436	18,19
1101,791	18,74
1102,146	17,93
1102,5	17,77
1102,855	18,34
1103,21	18,97
1103,564	18,61
1103,918	17,66
1104,273	19,86
1104,627	19,19
1104,981	18,21
1105,335	18,53
1105,69	19,02
1106,043	19,25
1106,397	18,49
1106,751	18,59
1107,105	19,85
1107,459	18,74
1107,812	19,38
1108,166	15,72
1108,519	18,21
1108,873	17,47
1109,226	19,63
1109,579	18,19
1109,932	19,42
1110,285	19,89
1110,638	18,26
1110,991	17,53
1111,344	17,76
1111,697	17,53
1112,05	20,52
1112,402	19,96
1112,755	18,52
1113,107	17,78
1113,46	19,94
1113,812	17,44
1114,164	19,57
1114,517	16,92
1114,869	28,09
1115,221	9,9
1115,573	18,04
1115,924	15,96
