Data from E_6_0_Relative__5__00125.txt Node

Date: Mon Jan 29 13:02:44 CET 2024
User: diatiterra
Spectrometer: HDX00911
Trigger mode: 0
Integration Time (sec): 6,000000E-3
Scans to average: 2
Nonlinearity correction enabled: false
Boxcar width: 0
Storing dark spectrum: false
XAxis mode: Wavelengths
Number of Pixels in Spectrum: 2068
>>>>>Begin Spectral Data<<<<<
194,468	37,8
195,025	35,18
195,581	34,3
196,138	26,32
196,694	36,28
197,251	31,83
197,807	22,8
198,363	30,45
198,919	37,04
199,474	34,22
200,03	28,92
200,586	35,76
201,141	30,34
201,696	25,38
202,251	22,81
202,806	32,44
203,361	26,58
203,916	35,18
204,471	35,15
205,025	29,89
205,58	33,78
206,134	31,42
206,688	24,51
207,242	33,33
207,796	36,73
208,35	41,46
208,904	43,67
209,457	38,49
210,011	35,73
210,564	36,8
211,117	33,08
211,67	34,41
212,223	32,55
212,776	30,04
213,329	36,77
213,881	34,5
214,434	31,02
214,986	32,2
215,538	34,29
216,09	37,02
216,642	33,83
217,194	30,83
217,746	35,81
218,297	32,19
218,849	37,77
219,4	32,57
219,951	36,44
220,502	32,12
221,053	32,98
221,604	28,12
222,155	29,43
222,705	38,2
223,256	33,62
223,806	36,69
224,356	32,26
224,906	37,32
225,456	28,42
226,006	35,68
226,556	38,41
227,106	42,41
227,655	30,92
228,204	31,19
228,754	36,76
229,303	34,07
229,852	38,01
230,401	37,84
230,949	37,58
231,498	34
232,047	38,33
232,595	37,03
233,143	36,12
233,691	36,07
234,239	28,57
234,787	42,05
235,335	34,62
235,883	41,23
236,43	32,23
236,978	31,25
237,525	27,01
238,072	38,34
238,619	37,38
239,166	36,42
239,713	32,92
240,26	31,33
240,806	47,84
241,353	38,85
241,899	42,29
242,445	35,67
242,991	40,13
243,537	26,46
244,083	31,54
244,629	34,11
245,174	34,06
245,72	32,44
246,265	32,4
246,81	36,79
247,355	32,94
247,9	30,63
248,445	27,51
248,99	34,09
249,534	29,93
250,079	33,33
250,623	40,1
251,168	31,54
251,712	33,55
252,256	33,33
252,8	30,07
253,343	28,2
253,887	29,79
254,43	27,68
254,974	39,29
255,517	27,72
256,06	32,89
256,603	27,27
257,146	27,38
257,689	19,7
258,232	28,12
258,774	29,95
259,317	34,31
259,859	32,8
260,401	30,3
260,943	29,11
261,485	35,11
262,027	28,88
262,569	27
263,11	30,13
263,652	27,76
264,193	29,5
264,734	19,72
265,275	30,28
265,816	23,96
266,357	24,04
266,898	30,37
267,438	32,57
267,979	31,86
268,519	33,48
269,059	27,1
269,6	31,83
270,14	30,63
270,68	31,78
271,219	36,29
271,759	28,54
272,298	25,84
272,838	30,28
273,377	30,25
273,916	27,96
274,455	28,73
274,994	25,11
275,533	28,64
276,072	29,83
276,61	25,55
277,149	36,89
277,687	25,63
278,225	26,47
278,763	25,79
279,301	34,89
279,839	32,9
280,377	28,67
280,914	37,12
281,452	35,55
281,989	31,65
282,526	31,55
283,064	28,02
283,601	29,23
284,137	30
284,674	24,51
285,211	28,32
285,747	37,23
286,284	27,63
286,82	29,84
287,356	31,57
287,892	29,02
288,428	30,04
288,964	29,18
289,5	24,72
290,035	25,61
290,571	31,46
291,106	28,47
291,641	32,73
292,176	34,23
292,711	35,75
293,246	32,11
293,781	27,09
294,315	33,17
294,85	32,08
295,384	32,36
295,918	31,11
296,453	32,55
296,987	23,46
297,52	24,34
298,054	31,54
298,588	33,26
299,121	33,26
299,655	28,73
300,188	29,16
300,721	37,44
301,254	31,74
301,787	32,2
302,32	28,11
302,853	31,5
303,385	37
303,918	20,49
304,45	28,51
304,982	31,78
305,514	25,23
306,046	26,7
306,578	27,92
307,11	29,6
307,641	25,89
308,173	33,18
308,704	28,12
309,236	29,2
309,767	32,71
310,298	28,38
310,829	28,17
311,359	31,54
311,89	28,22
312,421	21,3
312,951	21,4
313,481	25,35
314,012	26,85
314,542	24
315,072	23,87
315,601	22,52
316,131	35,7
316,661	26,81
317,19	27,83
317,72	25,71
318,249	25,28
318,778	23,53
319,307	27,29
319,836	33,95
320,365	26,73
320,893	29,97
321,422	29,26
321,95	30,89
322,479	33,41
323,007	27,54
323,535	30
324,063	29,31
324,591	21,75
325,118	34,29
325,646	22,64
326,173	29,91
326,701	29,76
327,228	31,82
327,755	26,08
328,282	28,34
328,809	35,1
329,336	30,72
329,862	32,95
330,389	30,57
330,915	29,09
331,441	27,51
331,968	30,6
332,494	28,5
333,02	32,04
333,545	28,77
334,071	26,56
334,597	23,08
335,122	37,42
335,648	26,55
336,173	32,75
336,698	26,15
337,223	28,2
337,748	27,73
338,272	27,82
338,797	21,26
339,322	32,81
339,846	26,6
340,37	28,35
340,894	29,62
341,419	26,68
341,942	28,4
342,466	32,99
342,99	31,12
343,514	33,12
344,037	23,2
344,56	24,9
345,084	33,71
345,607	23,47
346,13	21,76
346,653	25,95
347,175	20,77
347,698	27,7
348,221	32,96
348,743	19,7
349,265	23,83
349,787	27,76
350,309	25,47
350,831	23,97
351,353	29,43
351,875	27,52
352,397	26,67
352,918	31,06
353,439	27,8
353,961	31,43
354,482	20,2
355,003	22,59
355,524	26,98
356,044	30,89
356,565	33,13
357,086	23,24
357,606	21,65
358,126	29,82
358,646	23,65
359,167	28,28
359,687	24,21
360,206	29,54
360,726	23,48
361,246	28,09
361,765	27,69
362,285	30,78
362,804	25,17
363,323	26,54
363,842	26,97
364,361	29,14
364,88	26,18
365,398	31,71
365,917	25,03
366,435	23,26
366,954	25,19
367,472	29,91
367,99	28,66
368,508	26,09
369,026	33,54
369,544	32,2
370,061	28,7
370,579	28,99
371,096	27,28
371,613	37,77
372,131	27,39
372,648	29,39
373,165	30,2
373,681	26,39
374,198	26,15
374,715	31,35
375,231	30,26
375,747	24,73
376,264	29,05
376,78	27,68
377,296	29,38
377,812	26,5
378,327	30,4
378,843	29,24
379,359	26,58
379,874	26,6
380,389	24,87
380,905	26,99
381,42	29,62
381,935	25,93
382,449	27,98
382,964	24,38
383,479	23,62
383,993	26,56
384,508	25,04
385,022	26,01
385,536	24,95
386,05	25,07
386,564	24,27
387,078	23,59
387,592	24,75
388,105	23,14
388,619	23,67
389,132	25,61
389,645	23,15
390,158	23,6
390,671	24,22
391,184	26,43
391,697	23,48
392,21	24,67
392,722	20,82
393,235	22,97
393,747	21,9
394,259	22,22
394,771	22,06
395,283	20,75
395,795	20,16
396,307	20,46
396,818	19,58
397,33	18,37
397,841	20,54
398,353	19,42
398,864	19,93
399,375	20,07
399,886	20,06
400,397	18,47
400,907	19,19
401,418	18,67
401,928	17,93
402,439	16,46
402,949	19,65
403,459	14,93
403,969	16,8
404,479	15,98
404,989	15,17
405,498	15,92
406,008	16,01
406,517	14,25
407,027	13,86
407,536	13,89
408,045	13,09
408,554	13,68
409,063	13,2
409,572	13,36
410,08	12,44
410,589	12,24
411,097	11,22
411,606	11,95
412,114	12,37
412,622	10,76
413,13	10,65
413,638	10,55
414,145	9,68
414,653	9,41
415,16	9,33
415,668	9,18
416,175	9,29
416,682	8,56
417,189	8,84
417,696	8,15
418,203	8,85
418,71	7,94
419,216	8,02
419,723	8,22
420,229	8,94
420,735	7,46
421,242	8,77
421,748	7,87
422,254	8,01
422,759	7,86
423,265	7,6
423,771	7,49
424,276	7,52
424,781	7,61
425,287	7,31
425,792	7,17
426,297	8
426,802	7
427,306	7,59
427,811	7,39
428,316	6,82
428,82	7,27
429,324	7,27
429,829	7,02
430,333	7,2
430,837	7,28
431,34	6,91
431,844	6,94
432,348	7,03
432,851	6,63
433,355	6,86
433,858	6,73
434,361	6,93
434,864	6,95
435,367	6,51
435,87	7,3
436,373	6,75
436,876	6,91
437,378	6,38
437,88	6,77
438,383	6,91
438,885	7,13
439,387	6,68
439,889	6,72
440,391	7,3
440,892	6,47
441,394	6,8
441,896	6,62
442,397	7,26
442,898	6,8
443,399	6,6
443,9	6,53
444,401	6,75
444,902	7,12
445,403	6,9
445,903	6,73
446,404	6,92
446,904	6,87
447,405	6,9
447,905	7,03
448,405	7,49
448,905	7,07
449,404	7,42
449,904	7,25
450,404	6,95
450,903	7,02
451,403	7,36
451,902	7,86
452,401	7,54
452,9	7,14
453,399	7,81
453,898	7,51
454,396	7,67
454,895	7,94
455,393	7,76
455,892	7,63
456,39	7,64
456,888	7,94
457,386	7,54
457,884	7,98
458,382	7,58
458,879	7,97
459,377	7,93
459,874	7,45
460,372	7,82
460,869	7,97
461,366	7,57
461,863	7,94
462,36	7,88
462,857	7,74
463,353	7,51
463,85	8,12
464,346	7,71
464,843	7,56
465,339	7,87
465,835	7,47
466,331	7,79
466,827	7,84
467,323	7,95
467,818	7,92
468,314	7,93
468,809	8,02
469,305	7,66
469,8	7,86
470,295	7,99
470,79	8,3
471,285	7,8
471,78	7,76
472,274	7,55
472,769	8,14
473,263	7,96
473,758	7,69
474,252	8,45
474,746	8,13
475,24	8,23
475,734	8,12
476,228	7,99
476,721	7,78
477,215	8,18
477,708	7,99
478,202	8,25
478,695	7,97
479,188	8,02
479,681	8,08
480,174	8,06
480,667	7,88
481,159	8,18
481,652	8,1
482,144	8,08
482,637	8,05
483,129	8,26
483,621	8,18
484,113	8,32
484,605	8,19
485,097	8,29
485,588	8,32
486,08	8,33
486,571	8,41
487,063	8,72
487,554	8,79
488,045	8,64
488,536	8,69
489,027	8,51
489,518	8,56
490,008	8,52
490,499	8,77
490,989	8,97
491,48	8,6
491,97	9,08
492,46	9,14
492,95	9,07
493,44	9,06
493,93	8,96
494,419	9,36
494,909	9,35
495,398	9
495,888	9,57
496,377	9,7
496,866	9,75
497,355	9,86
497,844	10,21
498,333	10,13
498,821	10,4
499,31	10,76
499,798	9,86
500,287	10,76
500,775	10,49
501,263	10,63
501,751	11,09
502,239	11,07
502,727	11,13
503,215	11,35
503,702	11,32
504,19	11,45
504,677	11,56
505,164	12,04
505,651	11,89
506,139	12,27
506,625	12,44
507,112	12,67
507,599	12,98
508,086	12,98
508,572	13,29
509,058	13,78
509,545	13,79
510,031	13,93
510,517	14,38
511,003	14,32
511,489	15
511,974	14,56
512,46	15,35
512,946	15,51
513,431	15,35
513,916	15,77
514,401	16,16
514,887	16,37
515,371	16,72
515,856	16,9
516,341	17,22
516,826	17,47
517,31	17,81
517,795	18,21
518,279	18,14
518,763	18,22
519,247	18,77
519,731	19,16
520,215	19,16
520,699	19,83
521,182	19,83
521,666	20,27
522,149	20,21
522,633	20,45
523,116	20,58
523,599	21,37
524,082	21,21
524,565	21,67
525,048	21,68
525,53	22,2
526,013	21,82
526,495	22,15
526,978	22,78
527,46	22,89
527,942	23,2
528,424	23,01
528,906	23,48
529,388	23,46
529,87	23,11
530,351	23,77
530,833	23,93
531,314	24,24
531,795	24,31
532,277	23,95
532,758	24,05
533,238	24,44
533,719	24,1
534,2	25,1
534,681	24,62
535,161	24,8
535,642	24,8
536,122	24,8
536,602	24,98
537,082	24,96
537,562	24,97
538,042	25,23
538,522	25,44
539,001	25,12
539,481	25,35
539,96	25,3
540,44	25,6
540,919	25,16
541,398	25,44
541,877	25,44
542,356	25,48
542,835	25,54
543,313	25,67
543,792	25,3
544,27	25,34
544,749	25,53
545,227	25,75
545,705	25,8
546,183	25,82
546,661	25,74
547,139	25,61
547,616	25,98
548,094	25,63
548,571	25,67
549,049	25,75
549,526	25,92
550,003	26,34
550,48	25,9
550,957	25,57
551,434	26,19
551,911	25,74
552,387	26,1
552,864	25,98
553,34	26,04
553,817	26,35
554,293	26,1
554,769	26,31
555,245	26,03
555,721	25,79
556,197	26,39
556,672	26,4
557,148	26,03
557,623	26
558,099	25,8
558,574	25,93
559,049	26,07
559,524	25,55
559,999	25,86
560,474	25,97
560,948	25,95
561,423	25,58
561,897	25,83
562,372	25,58
562,846	25,54
563,32	25,68
563,794	25,48
564,268	25,45
564,742	25,22
565,216	25,38
565,69	25,17
566,163	24,96
566,636	25,07
567,11	24,91
567,583	24,78
568,056	24,68
568,529	24,8
569,002	24,55
569,475	24,55
569,947	24,33
570,42	23,72
570,892	23,94
571,365	23,91
571,837	23,41
572,309	23,55
572,781	23,14
573,253	23,08
573,725	22,91
574,197	22,8
574,668	22,52
575,14	22,52
575,611	22,31
576,082	22,5
576,554	22,48
577,025	22,35
577,496	22,06
577,967	21,96
578,437	22,02
578,908	22
579,379	21,55
579,849	21,88
580,319	21,44
580,79	21,26
581,26	21,08
581,73	21,07
582,2	21,19
582,669	20,93
583,139	21,09
583,609	20,58
584,078	20,75
584,548	20,42
585,017	20,78
585,486	20,31
585,955	20,1
586,424	20,46
586,893	20,43
587,362	20,09
587,83	20,25
588,299	20,14
588,767	19,96
589,236	20,12
589,704	19,65
590,172	19,56
590,64	19,73
591,108	19,84
591,576	19,6
592,043	19,44
592,511	19,45
592,978	19,37
593,446	19,36
593,913	19,15
594,38	19,21
594,847	19,36
595,314	19,09
595,781	19,1
596,248	19,05
596,715	19,08
597,181	18,95
597,647	19
598,114	19,08
598,58	19,23
599,046	19,14
599,512	19,12
599,978	18,57
600,444	18,93
600,91	18,62
601,375	18,72
601,841	18,65
602,306	18,75
602,771	18,83
603,236	18,72
603,702	18,53
604,167	18,52
604,631	18,58
605,096	18,53
605,561	18,44
606,025	18,43
606,49	18,37
606,954	18,14
607,418	18,33
607,882	18,14
608,347	18,13
608,81	17,91
609,274	17,72
609,738	17,49
610,202	17,8
610,665	17,46
611,128	17,7
611,592	17,36
612,055	17,31
612,518	17,22
612,981	17,3
613,444	17,34
613,907	17,14
614,369	17
614,832	16,8
615,294	16,98
615,757	16,93
616,219	16,56
616,681	16,76
617,143	16,44
617,605	16,47
618,067	16,31
618,529	16,23
618,99	16,41
619,452	16,28
619,913	15,9
620,375	16,38
620,836	15,99
621,297	16,22
621,758	15,89
622,219	15,58
622,68	15,92
623,14	15,69
623,601	15,78
624,061	15,57
624,522	15,67
624,982	15,44
625,442	15,67
625,902	15,39
626,362	15,44
626,822	15,67
627,282	15,35
627,742	15,7
628,201	15,58
628,661	15,36
629,12	15,32
629,579	15,34
630,038	15,33
630,497	15,42
630,956	15,29
631,415	15,22
631,874	15,14
632,332	15,08
632,791	15,3
633,249	15,12
633,708	15,19
634,166	15,06
634,624	14,92
635,082	14,87
635,54	14,92
635,998	14,78
636,455	14,6
636,913	14,7
637,37	14,55
637,828	14,25
638,285	14,32
638,742	14,15
639,199	14,23
639,656	14,02
640,113	13,82
640,57	13,9
641,027	13,76
641,483	13,42
641,94	13,69
642,396	13,37
642,852	13,33
643,309	13,34
643,765	12,98
644,221	12,64
644,676	12,71
645,132	12,58
645,588	12,39
646,043	12,44
646,499	12,22
646,954	12,03
647,409	12,11
647,864	11,96
648,319	11,88
648,774	11,86
649,229	11,73
649,684	11,49
650,139	11,64
650,593	11,65
651,047	11,33
651,502	11,27
651,956	11,34
652,41	11,22
652,864	11,19
653,318	11,07
653,772	11,12
654,225	11,19
654,679	10,99
655,133	10,88
655,586	10,83
656,039	10,8
656,492	10,74
656,946	10,6
657,399	10,6
657,851	10,48
658,304	10,45
658,757	10,19
659,209	10,17
659,662	10,04
660,114	10,03
660,567	9,83
661,019	9,8
661,471	9,57
661,923	9,54
662,375	9,46
662,826	9,4
663,278	9,37
663,73	9,15
664,181	9,12
664,632	9,04
665,084	8,98
665,535	8,83
665,986	8,93
666,437	8,7
666,888	8,61
667,338	8,61
667,789	8,6
668,24	8,61
668,69	8,43
669,14	8,37
669,591	8,45
670,041	8,5
670,491	8,46
670,941	8,47
671,391	8,49
671,84	8,41
672,29	8,56
672,74	8,58
673,189	8,57
673,638	8,54
674,088	8,63
674,537	8,76
674,986	8,75
675,435	9
675,883	8,96
676,332	8,98
676,781	9,07
677,229	9,14
677,678	9,08
678,126	9,45
678,574	9,24
679,022	9,38
679,47	9,52
679,918	9,67
680,366	9,94
680,814	9,94
681,261	10,15
681,709	10,23
682,156	10,25
682,604	10,56
683,051	10,67
683,498	10,69
683,945	11,03
684,392	11,11
684,839	11,27
685,286	11,52
685,732	11,65
686,179	11,84
686,625	12,12
687,071	12,13
687,518	12,53
687,964	12,59
688,41	12,95
688,856	13,3
689,301	13,6
689,747	13,81
690,193	14,27
690,638	14,5
691,084	14,95
691,529	15,29
691,974	15,83
692,419	16,2
692,864	16,73
693,309	17,09
693,754	17,45
694,199	18,07
694,643	18,32
695,088	18,78
695,532	19,18
695,977	19,66
696,421	19,98
696,865	20,37
697,309	20,86
697,753	21,14
698,197	21,46
698,64	22,06
699,084	22,4
699,527	22,73
699,971	23,22
700,414	23,47
700,857	23,88
701,3	24,07
701,743	24,51
702,186	24,77
702,629	25,24
703,072	25,44
703,515	25,68
703,957	26,08
704,399	26,27
704,842	26,52
705,284	26,75
705,726	27,43
706,168	27,39
706,61	27,58
707,052	27,95
707,494	28,14
707,935	28,35
708,377	28,49
708,818	28,65
709,26	28,85
709,701	29,05
710,142	29,32
710,583	29,63
711,024	29,52
711,465	29,78
711,905	30,15
712,346	30,42
712,787	30,53
713,227	30,58
713,667	30,74
714,108	30,9
714,548	31,19
714,988	31,52
715,428	31,39
715,868	31,58
716,307	31,68
716,747	32
717,186	32,17
717,626	31,9
718,065	32,15
718,504	32,55
718,944	32,92
719,383	32,44
719,822	32,84
720,261	32,76
720,699	33,14
721,138	33,06
721,576	33,3
722,015	33,52
722,453	33,53
722,892	33,37
723,33	33,36
723,768	33,72
724,206	33,81
724,644	33,95
725,081	33,88
725,519	34,1
725,957	34,27
726,394	34,24
726,832	34,2
727,269	34,28
727,706	34,47
728,143	34,61
728,58	34,6
729,017	34,7
729,454	34,7
729,89	34,33
730,327	34,54
730,764	34,55
731,2	35
731,636	34,68
732,072	34,96
732,509	34,54
732,945	35,24
733,38	34,92
733,816	35,04
734,252	34,96
734,688	35,02
735,123	35,15
735,559	35,02
735,994	35,3
736,429	35,11
736,864	35,02
737,299	34,9
737,734	34,76
738,169	35,15
738,604	35,23
739,038	35,06
739,473	35,2
739,907	35,11
740,342	34,97
740,776	35,18
741,21	34,84
741,644	34,87
742,078	34,95
742,512	35,04
742,946	35,17
743,379	35,12
743,813	34,98
744,246	35
744,68	35,14
745,113	35,03
745,546	34,84
745,979	34,85
746,412	35,03
746,845	34,92
747,278	34,87
747,711	34,99
748,143	34,84
748,576	34,89
749,008	34,58
749,441	34,67
749,873	34,76
750,305	34,51
750,737	34,73
751,169	34,56
751,601	34,61
752,032	34,59
752,464	34,52
752,896	34,53
753,327	34,54
753,758	34,49
754,19	34,49
754,621	34,31
755,052	34,26
755,483	34,16
755,914	34,31
756,344	34,29
756,775	34,52
757,206	34,11
757,636	34,19
758,066	34,22
758,497	34,14
758,927	34,26
759,357	34,07
759,787	33,92
760,217	34,13
760,647	33,93
761,076	34,12
761,506	33,73
761,935	33,91
762,365	33,68
762,794	33,83
763,223	33,95
763,653	33,69
764,082	33,69
764,51	33,94
764,939	33,54
765,368	33,55
765,797	33,93
766,225	33,61
766,654	33,67
767,082	33,73
767,51	33,74
767,938	33,4
768,367	33,63
768,795	33,53
769,222	33,5
769,65	33,54
770,078	33,44
770,505	33,54
770,933	33,42
771,36	33,3
771,788	33,33
772,215	33,42
772,642	33,49
773,069	33,23
773,496	33,45
773,923	33,29
774,349	33,26
774,776	33,43
775,203	33,39
775,629	33,59
776,055	33,64
776,482	33,28
776,908	33,39
777,334	33,28
777,76	32,99
778,186	33,34
778,611	33,27
779,037	33,15
779,463	33,24
779,888	33,16
780,314	33,12
780,739	33,33
781,164	33,26
781,589	32,9
782,014	33
782,439	33,16
782,864	33,39
783,289	33,03
783,713	33,23
784,138	33,06
784,562	33,43
784,987	33,03
785,411	33,06
785,835	33,05
786,259	32,93
786,683	33,15
787,107	32,91
787,531	33,14
787,954	32,95
788,378	32,92
788,802	32,78
789,225	32,87
789,648	32,84
790,071	32,97
790,495	32,78
790,918	32,91
791,34	32,88
791,763	32,85
792,186	33,02
792,609	33
793,031	32,64
793,454	33,09
793,876	32,98
794,298	32,64
794,721	32,77
795,143	32,7
795,565	32,84
795,986	32,69
796,408	32,79
796,83	32,86
797,252	32,83
797,673	32,48
798,094	32,74
798,516	32,44
798,937	32,59
799,358	32,62
799,779	32,82
800,2	32,79
800,621	32,76
801,042	32,84
801,462	32,7
801,883	32,68
802,303	32,49
802,724	32,54
803,144	32,8
803,564	32,67
803,984	32,72
804,404	32,47
804,824	32,47
805,244	32,7
805,664	32,41
806,084	32,58
806,503	32,58
806,923	32,86
807,342	32,85
807,761	32,53
808,18	32,73
808,599	32,73
809,018	32,85
809,437	32,61
809,856	32,78
810,275	32,57
810,693	32,6
811,112	32,45
811,53	32,62
811,949	32,54
812,367	32,48
812,785	32,44
813,203	32,56
813,621	32,61
814,039	32,28
814,457	32,43
814,874	32,43
815,292	32,6
815,709	32,46
816,127	32,68
816,544	32,52
816,961	32,55
817,378	32,38
817,795	32,55
818,212	32,43
818,629	32,23
819,046	32,61
819,462	32,47
819,879	32,55
820,295	32,51
820,712	32,39
821,128	32,52
821,544	32,09
821,96	32,44
822,376	32,59
822,792	32,18
823,208	32,43
823,624	32,52
824,039	32,22
824,455	32,51
824,87	32,57
825,286	32,78
825,701	32,72
826,116	32,47
826,531	32,38
826,946	32,22
827,361	32,45
827,776	32,35
828,19	32,13
828,605	32,35
829,02	32,51
829,434	32,29
829,848	32,19
830,263	32,26
830,677	32,36
831,091	32,44
831,505	32,54
831,919	32,6
832,332	32,16
832,746	32,09
833,16	32,26
833,573	32,09
833,987	32,49
834,4	32,19
834,813	32,34
835,226	32,07
835,639	32,31
836,052	32,3
836,465	32,35
836,878	32,11
837,29	32,38
837,703	32,35
838,116	32,32
838,528	32
838,94	32,22
839,352	31,97
839,765	31,99
840,177	32,12
840,589	32,33
841	32,47
841,412	32,41
841,824	31,94
842,235	31,86
842,647	32,08
843,058	32,42
843,47	32
843,881	32,3
844,292	32,12
844,703	31,93
845,114	32,16
845,525	32,05
845,935	32,1
846,346	32,25
846,757	32,16
847,167	32,11
847,577	32,12
847,988	32,18
848,398	32,1
848,808	32,28
849,218	32,16
849,628	32,24
850,038	32,39
850,448	32,43
850,857	31,84
851,267	32,01
851,676	31,96
852,086	32,3
852,495	31,82
852,904	32,1
853,313	32,06
853,722	32,23
854,131	32,14
854,54	32,05
854,949	32,14
855,357	32,16
855,766	31,98
856,174	31,95
856,583	32,22
856,991	32,14
857,399	31,92
857,807	31,79
858,215	32,22
858,623	32,09
859,031	32,13
859,439	32,23
859,846	32,19
860,254	31,88
860,661	31,77
861,069	31,82
861,476	31,95
861,883	31,95
862,29	32,1
862,697	31,86
863,104	31,97
863,511	32,2
863,918	31,9
864,325	32,4
864,731	32,47
865,138	32
865,544	32,23
865,95	31,89
866,357	32,23
866,763	31,71
867,169	32,14
867,575	31,99
867,98	31,77
868,386	32,22
868,792	31,97
869,197	31,85
869,603	31,86
870,008	31,82
870,414	31,85
870,819	32,12
871,224	32,08
871,629	31,98
872,034	31,53
872,439	31,81
872,844	31,92
873,248	31,61
873,653	31,82
874,057	32,05
874,462	32,01
874,866	32,25
875,27	31,92
875,674	31,8
876,078	31,84
876,482	31,88
876,886	31,78
877,29	32,08
877,694	31,5
878,097	31,56
878,501	32,14
878,904	31,48
879,308	31,77
879,711	31,89
880,114	31,83
880,517	31,76
880,92	32,02
881,323	31,84
881,726	31,64
882,128	31,52
882,531	31,42
882,934	31,77
883,336	32,08
883,738	31,77
884,141	31,87
884,543	31,55
884,945	31,54
885,347	31,93
885,749	31,5
886,151	31,75
886,552	31,69
886,954	31,8
887,355	31,58
887,757	31,69
888,158	31,74
888,56	32
888,961	31,69
889,362	31,72
889,763	31,73
890,164	31,71
890,565	31,68
890,965	31,85
891,366	31,58
891,767	31,88
892,167	31,88
892,567	31,68
892,968	31,46
893,368	31,83
893,768	31,47
894,168	31,52
894,568	31,64
894,968	31,63
895,368	32,05
895,767	31,6
896,167	31,39
896,566	31,64
896,966	31,75
897,365	31,71
897,764	31,39
898,164	31,61
898,563	31,77
898,962	31,72
899,361	31,54
899,759	31,49
900,158	31,89
900,557	31,71
900,955	31,68
901,354	31,44
901,752	31,75
902,15	31,86
902,548	31,38
902,947	31,82
903,345	31,64
903,742	31,53
904,14	31,52
904,538	31,27
904,936	31,32
905,333	31,7
905,731	31,92
906,128	31,57
906,525	31,71
906,923	31,52
907,32	31,63
907,717	31,63
908,114	31,68
908,511	31,86
908,907	31,6
909,304	31,61
909,701	31,71
910,097	31,81
910,494	31,47
910,89	31,37
911,286	31,64
911,682	31,45
912,078	31,61
912,474	31,49
912,87	31,62
913,266	31,7
913,662	31,51
914,058	31,56
914,453	31,64
914,849	31,56
915,244	31,34
915,639	31,66
916,034	31,8
916,43	31,51
916,825	31,75
917,22	31,38
917,614	31,15
918,009	31,75
918,404	31,59
918,798	32,01
919,193	31,61
919,587	31,59
919,982	31,34
920,376	31,38
920,77	31,55
921,164	31,62
921,558	31,6
921,952	31,23
922,346	31,44
922,74	31,61
923,133	30,99
923,527	31,37
923,92	31,61
924,314	31,46
924,707	31,38
925,1	31,26
925,493	31,37
925,886	31,54
926,279	31,32
926,672	31,85
927,065	31,53
927,457	31,31
927,85	31,21
928,243	31,1
928,635	31,41
929,027	31,14
929,42	31,35
929,812	31,39
930,204	31,43
930,596	31,56
930,988	31,37
931,379	31,23
931,771	31,51
932,163	31,07
932,554	31,28
932,946	31,35
933,337	31,35
933,729	31,21
934,12	31,48
934,511	31,35
934,902	31,54
935,293	31,64
935,684	31,29
936,075	31,33
936,465	31,47
936,856	31,24
937,246	31,23
937,637	31,49
938,027	31,26
938,417	31,27
938,808	31,18
939,198	30,9
939,588	30,71
939,978	30,96
940,368	31,74
940,757	31,27
941,147	31,77
941,537	31,12
941,926	31,46
942,315	31,15
942,705	31,35
943,094	31,6
943,483	31,35
943,872	31,26
944,261	31,19
944,65	31,59
945,039	31,48
945,428	30,71
945,816	31,55
946,205	31,57
946,593	31,28
946,982	31,12
947,37	31,19
947,758	30,77
948,146	30,85
948,534	31,18
948,922	31,07
949,31	31,23
949,698	30,55
950,086	31,35
950,473	30,79
950,861	30,38
951,248	31,09
951,636	31,09
952,023	30,89
952,41	30,88
952,797	30,73
953,184	31,57
953,571	30,8
953,958	30,74
954,345	30,64
954,731	30,65
955,118	30,73
955,505	31,13
955,891	30,59
956,277	31,07
956,664	30,87
957,05	30,84
957,436	30,47
957,822	30,69
958,208	30,91
958,594	30,51
958,979	30,76
959,365	30,34
959,751	30,49
960,136	30,45
960,522	30,55
960,907	30,57
961,292	30,57
961,677	30,75
962,062	31,07
962,447	30,76
962,832	30,56
963,217	31,01
963,602	31,09
963,986	30,49
964,371	30,71
964,756	30,88
965,14	30,62
965,524	30,42
965,908	30,46
966,293	30,59
966,677	30,79
967,061	30,89
967,445	30,78
967,828	30,63
968,212	30,42
968,596	30,62
968,979	30,99
969,363	30,64
969,746	30,52
970,129	30,81
970,513	30,81
970,896	30,83
971,279	30,45
971,662	30,66
972,045	30,73
972,428	31
972,81	30,82
973,193	30,48
973,575	30,56
973,958	30,74
974,34	30,7
974,723	30,94
975,105	30,73
975,487	30,68
975,869	30,5
976,251	30,98
976,633	30,54
977,015	30,59
977,396	30,66
977,778	30,75
978,16	30,57
978,541	30,85
978,922	30,06
979,304	30,88
979,685	30,46
980,066	30,46
980,447	30,7
980,828	31,05
981,209	31,03
981,59	30,43
981,97	30,37
982,351	30,62
982,732	30,86
983,112	30,36
983,493	30,17
983,873	30,59
984,253	30,75
984,633	30,7
985,013	30,3
985,393	30,59
985,773	30,41
986,153	30,32
986,533	30,38
986,912	30,41
987,292	30,85
987,671	30,46
988,051	30,78
988,43	30,52
988,809	30,57
989,188	30,57
989,567	30,71
989,946	31
990,325	31,1
990,704	30,96
991,083	30,63
991,461	30,73
991,84	30,61
992,218	30,61
992,597	30,83
992,975	30,72
993,353	30,71
993,732	30,78
994,11	30,8
994,488	30,64
994,866	30,42
995,243	31,22
995,621	30,6
995,999	30,82
996,376	30,52
996,754	30,4
997,131	30,27
997,509	30,95
997,886	30,81
998,263	30,67
998,64	30,75
999,017	30,88
999,394	30,75
999,771	30,73
1000,148	31,16
1000,524	31,03
1000,901	30,89
1001,277	30,92
1001,654	30,66
1002,03	30,85
1002,406	30,78
1002,783	30,79
1003,159	30,75
1003,535	30,35
1003,911	30,36
1004,286	31,18
1004,662	30,14
1005,038	30,68
1005,414	31,03
1005,789	30,55
1006,164	30,74
1006,54	30,78
1006,915	30,59
1007,29	30,84
1007,665	30,69
1008,04	30,82
1008,415	31,13
1008,79	30,68
1009,165	30,73
1009,54	30,57
1009,914	30,31
1010,289	30,76
1010,663	31,09
1011,038	30,51
1011,412	31,66
1011,786	30,7
1012,16	30,26
1012,535	31,35
1012,909	30,73
1013,282	30,63
1013,656	31,07
1014,03	30,82
1014,404	30,73
1014,777	30,93
1015,151	30,87
1015,524	30,73
1015,897	31,11
1016,271	30,88
1016,644	30,77
1017,017	30,82
1017,39	30,68
1017,763	30,67
1018,136	31,06
1018,508	30,49
1018,881	30,97
1019,254	31,06
1019,626	30,34
1019,999	30,98
1020,371	30,96
1020,743	31,11
1021,116	31,02
1021,488	30,07
1021,86	30,38
1022,232	31,01
1022,604	30,94
1022,975	30,86
1023,347	31,45
1023,719	30,92
1024,09	30,99
1024,462	30,79
1024,833	30,6
1025,204	30,46
1025,576	31,2
1025,947	30,77
1026,318	30,74
1026,689	30,97
1027,06	31,32
1027,431	30,92
1027,801	30,64
1028,172	30,54
1028,543	30,87
1028,913	30,89
1029,284	30,98
1029,654	30,37
1030,024	30,72
1030,394	30,85
1030,764	30,82
1031,135	30,77
1031,504	30,67
1031,874	30,67
1032,244	30,44
1032,614	31,05
1032,983	30,88
1033,353	30,7
1033,722	31,22
1034,092	31,06
1034,461	31,02
1034,83	31,33
1035,2	30,78
1035,569	31,57
1035,938	30,75
1036,307	30,57
1036,675	31,21
1037,044	30,97
1037,413	30,63
1037,781	31,06
1038,15	30,66
1038,518	31,76
1038,887	30,12
1039,255	31,05
1039,623	30,61
1039,991	31,01
1040,359	30,9
1040,727	31,03
1041,095	31,54
1041,463	31,01
1041,831	31,2
1042,198	31,05
1042,566	31,17
1042,933	31
1043,301	30,7
1043,668	30,84
1044,035	30,95
1044,402	30,77
1044,77	30,96
1045,137	30,81
1045,503	30,41
1045,87	30,77
1046,237	30,48
1046,604	30,62
1046,97	31,19
1047,337	31,05
1047,703	31,11
1048,07	31,2
1048,436	31,31
1048,802	30,85
1049,168	31,32
1049,534	30,97
1049,9	30,98
1050,266	30,96
1050,632	30,88
1050,998	30,29
1051,364	31,92
1051,729	31,32
1052,095	31,45
1052,46	30,85
1052,825	30,65
1053,191	31,11
1053,556	31,01
1053,921	30,6
1054,286	30,69
1054,651	31,61
1055,016	30,77
1055,381	31,11
1055,745	30,93
1056,11	30,39
1056,475	31,41
1056,839	31,57
1057,203	30,26
1057,568	30,66
1057,932	30,54
1058,296	30,72
1058,66	30,91
1059,024	30,79
1059,388	31,45
1059,752	31,18
1060,116	31,67
1060,48	31,8
1060,843	30,47
1061,207	30,85
1061,57	30,43
1061,934	31,42
1062,297	31,51
1062,66	31,14
1063,023	31,59
1063,386	31,09
1063,749	31,16
1064,112	30,34
1064,475	30,69
1064,838	30,44
1065,201	30,09
1065,563	30,45
1065,926	31,22
1066,288	31,84
1066,651	31,16
1067,013	31,07
1067,375	31,63
1067,737	31,26
1068,099	32,34
1068,461	29,84
1068,823	30,77
1069,185	30,31
1069,547	30,67
1069,909	31
1070,27	29,92
1070,632	29,64
1070,993	30,44
1071,355	30,65
1071,716	30,43
1072,077	31,32
1072,438	30,21
1072,799	31,47
1073,16	31,2
1073,521	30,9
1073,882	30,45
1074,243	29,86
1074,603	31,78
1074,964	30,06
1075,325	30,34
1075,685	31,8
1076,045	31,41
1076,406	30,47
1076,766	30,91
1077,126	29,97
1077,486	29,01
1077,846	31,15
1078,206	32,25
1078,566	30,36
1078,925	30,37
1079,285	32,77
1079,645	31,12
1080,004	30,9
1080,364	30,96
1080,723	30,71
1081,082	29,83
1081,442	31,88
1081,801	31,21
1082,16	30,93
1082,519	32,31
1082,878	30,21
1083,237	29,74
1083,595	29,86
1083,954	32,23
1084,313	31,23
1084,671	31,59
1085,03	31,16
1085,388	30,62
1085,746	30,65
1086,104	30,91
1086,463	29,87
1086,821	31
1087,179	32,22
1087,537	31,36
1087,894	31,36
1088,252	30,92
1088,61	31,03
1088,967	30,22
1089,325	30,88
1089,682	31,52
1090,04	31,69
1090,397	30,9
1090,754	30,66
1091,111	31,04
1091,469	32,21
1091,826	31,51
1092,182	31,5
1092,539	30,59
1092,896	30,08
1093,253	32,13
1093,609	31
1093,966	32,36
1094,322	29,98
1094,679	31,29
1095,035	31,82
1095,391	30,74
1095,748	32,23
1096,104	30,76
1096,46	30,43
1096,816	30,14
1097,171	30,7
1097,527	31,3
1097,883	30,89
1098,239	28,15
1098,594	30,82
1098,95	30,4
1099,305	31,51
1099,66	30,47
1100,016	31,99
1100,371	29,23
1100,726	30,59
1101,081	30,01
1101,436	30,32
1101,791	31,65
1102,146	30,03
1102,5	30,53
1102,855	30,73
1103,21	31,53
1103,564	31,86
1103,918	29,31
1104,273	31,85
1104,627	31,57
1104,981	31,05
1105,335	31,29
1105,69	31,08
1106,043	30,9
1106,397	31,04
1106,751	31,73
1107,105	33,15
1107,459	30,85
1107,812	32,53
1108,166	29,75
1108,519	30,2
1108,873	30,44
1109,226	30,56
1109,579	29,95
1109,932	32,5
1110,285	29,96
1110,638	30,87
1110,991	29,65
1111,344	32,56
1111,697	32,87
1112,05	32,28
1112,402	30,82
1112,755	30,8
1113,107	32,46
1113,46	30,87
1113,812	31,78
1114,164	30,43
1114,517	33,72
1114,869	39,33
1115,221	23,44
1115,573	35,57
1115,924	21,6
