Data from F_5_0_Relative__2__00140.txt Node

Date: Mon Jan 29 13:04:49 CET 2024
User: diatiterra
Spectrometer: HDX00911
Trigger mode: 0
Integration Time (sec): 6,000000E-3
Scans to average: 2
Nonlinearity correction enabled: false
Boxcar width: 0
Storing dark spectrum: false
XAxis mode: Wavelengths
Number of Pixels in Spectrum: 2068
>>>>>Begin Spectral Data<<<<<
194,468	29,27
195,025	24,12
195,581	22,67
196,138	16,96
196,694	24,09
197,251	36,07
197,807	29,93
198,363	32,61
198,919	25,91
199,474	26,67
200,03	22,3
200,586	22,87
201,141	24,79
201,696	27,53
202,251	30,14
202,806	32,85
203,361	29,11
203,916	37,74
204,471	29,25
205,025	29,46
205,58	27,52
206,134	29,77
206,688	27,98
207,242	27,81
207,796	31,43
208,35	38,72
208,904	40,41
209,457	41,08
210,011	29,81
210,564	30,15
211,117	29,98
211,67	27,57
212,223	39,83
212,776	33,67
213,329	31,11
213,881	27,1
214,434	32,95
214,986	35,83
215,538	35,62
216,09	32,96
216,642	35,12
217,194	32,08
217,746	37,92
218,297	37,34
218,849	22,32
219,4	36,33
219,951	32
220,502	29,55
221,053	27,94
221,604	32,71
222,155	28,51
222,705	36,53
223,256	31,45
223,806	37,11
224,356	30,13
224,906	29,35
225,456	35,16
226,006	32,5
226,556	30,48
227,106	30,36
227,655	33,9
228,204	30,75
228,754	32,65
229,303	35,38
229,852	29,81
230,401	36,04
230,949	38,9
231,498	30,44
232,047	30,62
232,595	32,85
233,143	33,04
233,691	25
234,239	26,79
234,787	24,77
235,335	36,34
235,883	28,96
236,43	28,93
236,978	26,62
237,525	25,22
238,072	33,12
238,619	40,19
239,166	36,42
239,713	28,78
240,26	28,84
240,806	34,85
241,353	25,52
241,899	35,24
242,445	31,96
242,991	23,21
243,537	27,4
244,083	32,78
244,629	29,45
245,174	21,4
245,72	40
246,265	30,07
246,81	38,6
247,355	38,59
247,9	34,57
248,445	25,8
248,99	36,14
249,534	33,11
250,079	27,11
250,623	27,54
251,168	28,86
251,712	29,68
252,256	24,73
252,8	31,37
253,343	31,52
253,887	25,96
254,43	36,27
254,974	28
255,517	28,57
256,06	24,06
256,603	24,55
257,146	25,99
257,689	32,25
258,232	39,46
258,774	25,5
259,317	29,35
259,859	35,54
260,401	23,81
260,943	28,22
261,485	30,22
262,027	24,95
262,569	25,5
263,11	32,26
263,652	23,06
264,193	26,03
264,734	29,82
265,275	34,98
265,816	35,82
266,357	32,65
266,898	23,06
267,438	34,4
267,979	34,96
268,519	33,48
269,059	25,7
269,6	25,06
270,14	27,48
270,68	32,2
271,219	26,58
271,759	32,58
272,298	21,83
272,838	35,78
273,377	30,66
273,916	29,31
274,455	28,29
274,994	29,07
275,533	38,34
276,072	30,26
276,61	37,89
277,149	23,79
277,687	27
278,225	25,57
278,763	33,94
279,301	30
279,839	28,6
280,377	17,77
280,914	27,84
281,452	34,17
281,989	34,29
282,526	26,82
283,064	28,83
283,601	21,35
284,137	30,48
284,674	25
285,211	30,94
285,747	20,05
286,284	32,65
286,82	26,2
287,356	25,39
287,892	34,01
288,428	27,47
288,964	30,59
289,5	28,31
290,035	33,55
290,571	33,9
291,106	30,94
291,641	19,55
292,176	32,27
292,711	29,17
293,246	20,18
293,781	32,51
294,315	19,2
294,85	16,15
295,384	33,26
295,918	28,89
296,453	24,06
296,987	30,09
297,52	23,9
298,054	24,83
298,588	26,3
299,121	33,26
299,655	21,95
300,188	29,61
300,721	24,88
301,254	26,71
301,787	32,69
302,32	19,35
302,853	24,45
303,385	28,63
303,918	25,39
304,45	19,3
304,982	31,78
305,514	27,55
306,046	21,88
306,578	27
307,11	21,21
307,641	19,64
308,173	30
308,704	29,46
309,236	28,22
309,767	23,29
310,298	27,49
310,829	38,03
311,359	24,53
311,89	37,7
312,421	21,75
312,951	29,77
313,481	22,58
314,012	23,27
314,542	28,24
315,072	17,84
315,601	29,28
316,131	25,17
316,661	29,23
317,19	31,45
317,72	21,43
318,249	23,48
318,778	27,45
319,307	29,65
319,836	27,48
320,365	35,02
320,893	22,74
321,422	29,26
321,95	26,44
322,479	27,54
323,007	20,77
323,535	36,98
324,063	26
324,591	18,91
325,118	25,93
325,646	25,94
326,173	32,19
326,701	29,76
327,228	33,64
327,755	25,12
328,282	22,99
328,809	26,27
329,336	25,64
329,862	24,32
330,389	24,6
330,915	22,27
331,441	26,11
331,968	20,96
332,494	28
333,02	18,28
333,545	27,16
334,071	27,46
334,597	22,12
335,122	24,5
335,648	22,94
336,173	23,21
336,698	32,11
337,223	20,82
337,748	29,83
338,272	21,97
338,797	15,62
339,322	21,04
339,846	22,77
340,37	26,33
340,894	22,94
341,419	25,84
341,942	25,56
342,466	20,88
342,99	31,95
343,514	25,58
344,037	20
344,56	19,64
345,084	21,97
345,607	25,63
346,13	22,52
346,653	22,92
347,175	17,28
347,698	26,92
348,221	24,02
348,743	27,14
349,265	27,65
349,787	16,37
350,309	30,6
350,831	27,41
351,353	27,02
351,875	20,13
352,397	22,33
352,918	17,75
353,439	26,75
353,961	28,07
354,482	20,54
355,003	22,91
355,524	23,93
356,044	28,66
356,565	27,66
357,086	25,94
357,606	24,88
358,126	25,07
358,646	27,91
359,167	28,57
359,687	25,16
360,206	23,34
360,726	24,35
361,246	24,26
361,765	24,25
362,285	25,48
362,804	20,84
363,323	29,35
363,842	26,17
364,361	24,6
364,88	24,08
365,398	21,18
365,917	23,21
366,435	23,01
366,954	24,69
367,472	27,09
367,99	29,7
368,508	24,77
369,026	23,75
369,544	24,15
370,061	22,87
370,579	26,27
371,096	24,05
371,613	28,9
372,131	26,7
372,648	24,43
373,165	29,31
373,681	24,39
374,198	26,59
374,715	25,19
375,231	28,38
375,747	20,8
376,264	21,91
376,78	24,56
377,296	26,54
377,812	23,98
378,327	23,54
378,843	24,67
379,359	22,97
379,874	26,26
380,389	26,42
380,905	25,78
381,42	24,79
381,935	24,15
382,449	24,67
382,964	23,14
383,479	24,71
383,993	23,55
384,508	26,05
385,022	19,69
385,536	22,1
386,05	23,56
386,564	20,2
387,078	25,84
387,592	24,1
388,105	20,42
388,619	19,48
389,132	22,69
389,645	23,75
390,158	21,79
390,671	21,24
391,184	21,38
391,697	21,97
392,21	20,73
392,722	20,72
393,235	20,45
393,747	19,21
394,259	19,65
394,771	20,41
395,283	17,95
395,795	18,05
396,307	17,98
396,818	19,19
397,33	19,78
397,841	16,39
398,353	16,11
398,864	18,39
399,375	18,48
399,886	17,53
400,397	17,3
400,907	17,42
401,418	17,33
401,928	15,32
402,439	16,31
402,949	14,95
403,459	14,79
403,969	15,17
404,479	13,51
404,989	14,72
405,498	14,73
406,008	14,98
406,517	12,45
407,027	12,65
407,536	12,74
408,045	12,37
408,554	12,22
409,063	11,7
409,572	11,73
410,08	12,16
410,589	10,78
411,097	9,71
411,606	10,69
412,114	9,93
412,622	10,15
413,13	9,53
413,638	9,01
414,145	9,19
414,653	9,34
415,16	8,42
415,668	8,22
416,175	8,06
416,682	7,95
417,189	7,79
417,696	8,15
418,203	8,04
418,71	7,69
419,216	7,72
419,723	7,49
420,229	7,55
420,735	6,5
421,242	7,44
421,748	7,14
422,254	7,08
422,759	7,56
423,265	7,2
423,771	6,99
424,276	7,28
424,781	6,4
425,287	6,69
425,792	6,78
426,297	6,44
426,802	6,65
427,306	6,53
427,811	6,23
428,316	6,52
428,82	6,3
429,324	6,51
429,829	6,9
430,333	6,4
430,837	6,61
431,34	6,49
431,844	6,17
432,348	6,46
432,851	6,5
433,355	6,03
433,858	6,59
434,361	6,18
434,864	6,29
435,367	6,11
435,87	6,25
436,373	6,12
436,876	6,17
437,378	6,33
437,88	5,84
438,383	6,42
438,885	6,17
439,387	6,2
439,889	6,29
440,391	6,23
440,892	6,39
441,394	6,1
441,896	6,31
442,397	6,03
442,898	6,26
443,399	6,1
443,9	6,25
444,401	5,95
444,902	6,16
445,403	6,38
445,903	6,06
446,404	6,49
446,904	6,36
447,405	5,79
447,905	6,23
448,405	6,43
448,905	6,45
449,404	6,37
449,904	6,31
450,404	6,08
450,903	6,22
451,403	6,57
451,902	6,59
452,401	6,75
452,9	6,46
453,399	6,58
453,898	6,62
454,396	6,66
454,895	7,08
455,393	6,36
455,892	6,55
456,39	6,65
456,888	6,69
457,386	6,8
457,884	6,84
458,382	6,77
458,879	6,23
459,377	6,57
459,874	6,63
460,372	7,04
460,869	6,48
461,366	6,93
461,863	6,81
462,36	6,61
462,857	6,6
463,353	6,7
463,85	6,89
464,346	6,8
464,843	6,52
465,339	6,64
465,835	6,52
466,331	6,69
466,827	6,76
467,323	6,7
467,818	6,65
468,314	6,58
468,809	6,81
469,305	6,72
469,8	6,68
470,295	6,78
470,79	6,75
471,285	6,76
471,78	6,89
472,274	6,56
472,769	6,59
473,263	6,84
473,758	6,87
474,252	6,84
474,746	6,98
475,24	6,81
475,734	6,77
476,228	6,71
476,721	6,76
477,215	6,95
477,708	6,99
478,202	7,2
478,695	6,6
479,188	6,88
479,681	7,09
480,174	7,08
480,667	6,9
481,159	6,46
481,652	6,92
482,144	6,72
482,637	7,13
483,129	6,88
483,621	6,87
484,113	6,98
484,605	7,07
485,097	6,89
485,588	7,34
486,08	7,04
486,571	7,04
487,063	6,99
487,554	6,98
488,045	7,21
488,536	6,94
489,027	7,26
489,518	7,43
490,008	7,2
490,499	7,57
490,989	7,25
491,48	7,5
491,97	7,37
492,46	7,74
492,95	7,66
493,44	7,14
493,93	7,32
494,419	7,72
494,909	7,73
495,398	7,81
495,888	7,73
496,377	8,01
496,866	7,95
497,355	7,81
497,844	8,2
498,333	7,79
498,821	8,59
499,31	8,42
499,798	8,33
500,287	8,48
500,775	8,49
501,263	8,7
501,751	8,79
502,239	8,6
502,727	9,15
503,215	8,76
503,702	9,2
504,19	9,47
504,677	9,57
505,164	9,71
505,651	9,96
506,139	10,1
506,625	10,12
507,112	10,28
507,599	10,24
508,086	10,53
508,572	10,86
509,058	11,18
509,545	11,31
510,031	11,29
510,517	11,37
511,003	11,95
511,489	12,07
511,974	12,23
512,46	12,2
512,946	12,64
513,431	12,54
513,916	13,26
514,401	13,31
514,887	13,59
515,371	13,73
515,856	14,29
516,341	13,96
516,826	14,6
517,31	15,11
517,795	14,62
518,279	15,18
518,763	15,32
519,247	15,79
519,731	15,99
520,215	16
520,699	16,52
521,182	16,95
521,666	17,31
522,149	17,4
522,633	17,81
523,116	17,91
523,599	18,22
524,082	18,19
524,565	18,98
525,048	18,87
525,53	19,26
526,013	19,31
526,495	19,09
526,978	19,3
527,46	19,98
527,942	20,21
528,424	20,65
528,906	20,39
529,388	20,78
529,87	20,69
530,351	20,84
530,833	21,09
531,314	21,36
531,795	21,27
532,277	21,37
532,758	21,53
533,238	21,58
533,719	21,34
534,2	21,93
534,681	21,92
535,161	21,91
535,642	21,84
536,122	21,91
536,602	22,03
537,082	22,33
537,562	22,25
538,042	22,22
538,522	22,44
539,001	22,38
539,481	22,73
539,96	22,23
540,44	22,68
540,919	22,51
541,398	22,62
541,877	22,63
542,356	22,79
542,835	22,82
543,313	22,64
543,792	22,65
544,27	22,86
544,749	22,73
545,227	23,7
545,705	23,08
546,183	22,75
546,661	22,61
547,139	22,63
547,616	22,82
548,094	22,8
548,571	23,08
549,049	23,2
549,526	23,33
550,003	22,88
550,48	23,57
550,957	22,99
551,434	23,08
551,911	23,09
552,387	23,46
552,864	23,43
553,34	23,46
553,817	23,11
554,293	23,23
554,769	23,34
555,245	23,24
555,721	23,22
556,197	23,13
556,672	23,11
557,148	22,86
557,623	23,09
558,099	23,03
558,574	23,73
559,049	23,28
559,524	22,9
559,999	23,01
560,474	22,8
560,948	22,84
561,423	22,94
561,897	22,7
562,372	22,56
562,846	22,85
563,32	22,72
563,794	22,85
564,268	22,56
564,742	22,52
565,216	22,8
565,69	22,57
566,163	21,98
566,636	21,93
567,11	22,06
567,583	21,72
568,056	22,01
568,529	21,47
569,002	21,71
569,475	21,72
569,947	21,08
570,42	21,03
570,892	20,95
571,365	20,94
571,837	20,99
572,309	20,76
572,781	20,14
573,253	20,43
573,725	20,23
574,197	19,9
574,668	20,1
575,14	19,92
575,611	19,76
576,082	19,72
576,554	19,42
577,025	19,15
577,496	19,37
577,967	19,09
578,437	18,92
578,908	19
579,379	18,69
579,849	18,65
580,319	18,59
580,79	18,89
581,26	18,5
581,73	18,03
582,2	18,27
582,669	18,27
583,139	17,99
583,609	17,98
584,078	17,8
584,548	17,71
585,017	17,68
585,486	17,47
585,955	17,64
586,424	17,34
586,893	17,11
587,362	17,09
587,83	17,07
588,299	17,09
588,767	17,02
589,236	17,2
589,704	17,12
590,172	16,85
590,64	16,81
591,108	16,69
591,576	16,77
592,043	16,78
592,511	16,7
592,978	16,57
593,446	16,42
593,913	16,55
594,38	16,34
594,847	16,37
595,314	16,14
595,781	16,3
596,248	16,53
596,715	16,33
597,181	16,14
597,647	15,94
598,114	16,16
598,58	16,08
599,046	15,85
599,512	16,41
599,978	16,04
600,444	16,27
600,91	16,14
601,375	15,83
601,841	15,8
602,306	16,14
602,771	15,84
603,236	15,82
603,702	15,64
604,167	15,94
604,631	15,63
605,096	15,54
605,561	15,59
606,025	15,34
606,49	15,31
606,954	15,53
607,418	15,38
607,882	15,22
608,347	15,04
608,81	14,99
609,274	15,03
609,738	14,95
610,202	14,73
610,665	14,65
611,128	14,65
611,592	14,61
612,055	14,53
612,518	14,47
612,981	14,56
613,444	14,43
613,907	14,21
614,369	14,24
614,832	14,1
615,294	14,02
615,757	13,93
616,219	13,95
616,681	13,76
617,143	13,59
617,605	13,75
618,067	13,6
618,529	13,74
618,99	13,55
619,452	13,18
619,913	13,25
620,375	13,14
620,836	13,32
621,297	13,25
621,758	13,22
622,219	13,14
622,68	13,05
623,14	12,8
623,601	12,76
624,061	12,96
624,522	13,11
624,982	12,86
625,442	12,99
625,902	12,9
626,362	12,59
626,822	12,84
627,282	12,81
627,742	12,78
628,201	12,42
628,661	12,62
629,12	12,5
629,579	12,73
630,038	12,58
630,497	12,63
630,956	12,64
631,415	12,45
631,874	12,7
632,332	12,44
632,791	12,44
633,249	12,36
633,708	12,25
634,166	12,24
634,624	12,33
635,082	12,25
635,54	12,04
635,998	12,28
636,455	12,05
636,913	12,01
637,37	11,81
637,828	11,83
638,285	11,68
638,742	11,61
639,199	11,34
639,656	11,56
640,113	11,29
640,57	11,27
641,027	11,12
641,483	11,06
641,94	11,03
642,396	10,97
642,852	10,66
643,309	10,67
643,765	10,48
644,221	10,35
644,676	10,25
645,132	10,24
645,588	10,17
646,043	10,03
646,499	9,89
646,954	9,96
647,409	9,74
647,864	9,77
648,319	9,56
648,774	9,33
649,229	9,4
649,684	9,38
650,139	9,27
650,593	9,19
651,047	9,15
651,502	9,13
651,956	9,06
652,41	8,99
652,864	8,87
653,318	8,88
653,772	8,88
654,225	8,77
654,679	8,77
655,133	8,7
655,586	8,67
656,039	8,69
656,492	8,54
656,946	8,62
657,399	8,55
657,851	8,26
658,304	8,26
658,757	8,25
659,209	8,22
659,662	8,05
660,114	7,99
660,567	7,8
661,019	7,81
661,471	7,73
661,923	7,72
662,375	7,5
662,826	7,44
663,278	7,44
663,73	7,28
664,181	7,36
664,632	7,35
665,084	7,19
665,535	7,17
665,986	7,17
666,437	7,11
666,888	7,16
667,338	7,07
667,789	7,04
668,24	7,03
668,69	7,05
669,14	6,96
669,591	6,97
670,041	6,91
670,491	7,09
670,941	6,99
671,391	7,11
671,84	7,08
672,29	7,13
672,74	7,2
673,189	7,19
673,638	7,16
674,088	7,37
674,537	7,32
674,986	7,58
675,435	7,41
675,883	7,48
676,332	7,65
676,781	7,76
677,229	7,82
677,678	7,85
678,126	7,92
678,574	8,07
679,022	8,1
679,47	8,07
679,918	8,31
680,366	8,57
680,814	8,57
681,261	8,64
681,709	8,78
682,156	8,92
682,604	8,95
683,051	9,16
683,498	9,19
683,945	9,26
684,392	9,42
684,839	9,32
685,286	9,56
685,732	9,88
686,179	9,89
686,625	10,17
687,071	10,31
687,518	10,57
687,964	10,61
688,41	10,93
688,856	11,13
689,301	11,28
689,747	11,62
690,193	11,89
690,638	12,07
691,084	12,59
691,529	12,8
691,974	13,17
692,419	13,48
692,864	13,83
693,309	14,3
693,754	14,56
694,199	15,2
694,643	15,57
695,088	15,88
695,532	16,38
695,977	16,68
696,421	17,23
696,865	17,69
697,309	17,96
697,753	18,37
698,197	18,88
698,64	19,17
699,084	19,75
699,527	19,89
699,971	20,4
700,414	20,66
700,857	21,14
701,3	21,64
701,743	21,75
702,186	22,12
702,629	22,34
703,072	22,86
703,515	22,98
703,957	23,4
704,399	23,67
704,842	24,29
705,284	24,37
705,726	24,67
706,168	24,97
706,61	25,39
707,052	25,46
707,494	25,7
707,935	25,95
708,377	26,22
708,818	26,34
709,26	26,7
709,701	26,94
710,142	27,18
710,583	27,6
711,024	27,43
711,465	27,72
711,905	27,95
712,346	28,33
712,787	28,4
713,227	28,67
713,667	28,76
714,108	29,05
714,548	29,13
714,988	29,37
715,428	29,73
715,868	29,74
716,307	29,77
716,747	30,03
717,186	30,34
717,626	30,36
718,065	30,58
718,504	30,74
718,944	31,11
719,383	30,92
719,822	31,17
720,261	31,41
720,699	31,23
721,138	31,53
721,576	31,57
722,015	31,75
722,453	31,93
722,892	32,14
723,33	31,95
723,768	32,25
724,206	32,34
724,644	32,32
725,081	32,41
725,519	32,57
725,957	32,71
726,394	32,81
726,832	32,86
727,269	32,93
727,706	32,97
728,143	33,09
728,58	33,25
729,017	33,2
729,454	33,44
729,89	33,55
730,327	33,25
730,764	33,46
731,2	33,65
731,636	33,36
732,072	33,69
732,509	33,71
732,945	33,92
733,38	33,55
733,816	33,79
734,252	33,6
734,688	33,94
735,123	34,05
735,559	33,77
735,994	33,98
736,429	33,98
736,864	34,11
737,299	33,86
737,734	33,94
738,169	34,06
738,604	33,94
739,038	34,05
739,473	33,93
739,907	34,22
740,342	34,21
740,776	33,95
741,21	33,94
741,644	33,83
742,078	34,04
742,512	33,95
742,946	33,63
743,379	33,82
743,813	33,86
744,246	33,9
744,68	33,97
745,113	33,85
745,546	33,95
745,979	33,9
746,412	33,99
746,845	34,06
747,278	34,05
747,711	33,8
748,143	33,73
748,576	34,01
749,008	33,68
749,441	33,79
749,873	33,58
750,305	33,57
750,737	33,55
751,169	33,62
751,601	33,61
752,032	33,66
752,464	33,6
752,896	33,52
753,327	33,28
753,758	33,53
754,19	33,45
754,621	33,39
755,052	33,36
755,483	33,49
755,914	33,39
756,344	33,28
756,775	33,11
757,206	33,17
757,636	33,21
758,066	33,28
758,497	32,87
758,927	33,1
759,357	33,03
759,787	33
760,217	33,21
760,647	33,02
761,076	33,04
761,506	32,78
761,935	32,84
762,365	32,95
762,794	32,88
763,223	32,97
763,653	32,78
764,082	33,01
764,51	32,88
764,939	32,75
765,368	32,74
765,797	32,71
766,225	32,74
766,654	32,74
767,082	32,71
767,51	32,43
767,938	32,42
768,367	32,64
768,795	32,69
769,222	32,71
769,65	32,71
770,078	32,6
770,505	32,64
770,933	32,61
771,36	32,48
771,788	32,4
772,215	32,42
772,642	32,55
773,069	32,32
773,496	32,42
773,923	32,35
774,349	32,47
774,776	32,11
775,203	32,45
775,629	32,11
776,055	32,33
776,482	32,51
776,908	32,26
777,334	32,23
777,76	32,27
778,186	32,16
778,611	32,01
779,037	32,41
779,463	32,36
779,888	32,17
780,314	32,19
780,739	32,06
781,164	32,35
781,589	32,03
782,014	32,14
782,439	31,98
782,864	32,25
783,289	32,03
783,713	32,17
784,138	32,11
784,562	32,09
784,987	32,12
785,411	32,22
785,835	32,06
786,259	32,36
786,683	32,15
787,107	31,89
787,531	32,21
787,954	32,29
788,378	31,97
788,802	31,89
789,225	32,04
789,648	31,96
790,071	32,03
790,495	31,79
790,918	32,19
791,34	31,96
791,763	31,92
792,186	32,09
792,609	31,95
793,031	31,95
793,454	31,93
793,876	32
794,298	31,83
794,721	31,76
795,143	31,84
795,565	31,94
795,986	31,78
796,408	31,55
796,83	31,78
797,252	31,87
797,673	31,75
798,094	31,82
798,516	31,72
798,937	31,54
799,358	31,95
799,779	31,58
800,2	31,8
800,621	31,69
801,042	31,78
801,462	31,68
801,883	31,81
802,303	31,71
802,724	31,62
803,144	31,91
803,564	31,62
803,984	31,77
804,404	31,7
804,824	31,53
805,244	31,64
805,664	31,5
806,084	31,75
806,503	31,86
806,923	31,54
807,342	31,71
807,761	31,45
808,18	31,65
808,599	31,69
809,018	31,62
809,437	31,74
809,856	31,8
810,275	31,6
810,693	31,53
811,112	31,79
811,53	31,63
811,949	31,84
812,367	31,51
812,785	31,45
813,203	31,52
813,621	31,77
814,039	31,41
814,457	31,71
814,874	31,82
815,292	31,32
815,709	31,5
816,127	31,86
816,544	31,59
816,961	31,29
817,378	31,86
817,795	31,64
818,212	31,62
818,629	31,44
819,046	31,8
819,462	31,47
819,879	31,43
820,295	31,47
820,712	31,7
821,128	31,62
821,544	31,48
821,96	31,66
822,376	31,52
822,792	31,53
823,208	31,5
823,624	31,75
824,039	31,78
824,455	31,41
824,87	31,44
825,286	31,5
825,701	31,46
826,116	31,54
826,531	31,43
826,946	31,54
827,361	31,56
827,776	31,48
828,19	31,5
828,605	31,52
829,02	31,62
829,434	31,53
829,848	31,59
830,263	31,44
830,677	31,58
831,091	31,5
831,505	31,29
831,919	31,61
832,332	31,45
832,746	31,58
833,16	31,37
833,573	31,33
833,987	31,24
834,4	31,44
834,813	31,42
835,226	31,33
835,639	31,57
836,052	31,27
836,465	31,58
836,878	31,5
837,29	31,51
837,703	31,53
838,116	31,51
838,528	31,39
838,94	31,27
839,352	31,42
839,765	31,12
840,177	31,52
840,589	31,32
841	31,37
841,412	31,49
841,824	31,27
842,235	31,59
842,647	31,33
843,058	31,36
843,47	31,31
843,881	31,26
844,292	31,32
844,703	31,4
845,114	31,58
845,525	31,23
845,935	31,55
846,346	31,32
846,757	31,32
847,167	31,44
847,577	31,41
847,988	31,24
848,398	31,33
848,808	31,28
849,218	31,36
849,628	31,32
850,038	31,43
850,448	31,23
850,857	31,29
851,267	31,25
851,676	31,24
852,086	31,35
852,495	31,12
852,904	31,27
853,313	31,2
853,722	31,44
854,131	31,03
854,54	31,21
854,949	31,29
855,357	31,18
855,766	31,15
856,174	31,11
856,583	31,22
856,991	31,55
857,399	31,21
857,807	31,3
858,215	31,23
858,623	30,99
859,031	31
859,439	31,27
859,846	31,43
860,254	31,23
860,661	31,16
861,069	31,21
861,476	31,24
861,883	30,98
862,29	31,24
862,697	31,25
863,104	31,35
863,511	31,04
863,918	30,96
864,325	31,36
864,731	31,19
865,138	31,41
865,544	31,54
865,95	30,97
866,357	31,21
866,763	31,24
867,169	30,9
867,575	31,32
867,98	30,86
868,386	30,89
868,792	31,38
869,197	31,09
869,603	31,13
870,008	31,03
870,414	31,07
870,819	30,82
871,224	30,95
871,629	31
872,034	31,19
872,439	31,29
872,844	31,28
873,248	31,03
873,653	31,21
874,057	31,17
874,462	31,13
874,866	31,21
875,27	31,18
875,674	30,85
876,078	31,32
876,482	31,34
876,886	30,76
877,29	31,01
877,694	30,97
878,097	30,99
878,501	30,9
878,904	31,07
879,308	30,7
879,711	30,86
880,114	31,15
880,517	30,87
880,92	30,91
881,323	30,99
881,726	30,95
882,128	31,09
882,531	30,95
882,934	30,99
883,336	30,94
883,738	30,95
884,141	31,1
884,543	30,87
884,945	31,22
885,347	31
885,749	30,98
886,151	30,87
886,552	30,96
886,954	31,03
887,355	30,93
887,757	30,94
888,158	30,67
888,56	31,01
888,961	30,97
889,362	30,89
889,763	31,1
890,164	31,06
890,565	30,76
890,965	31
891,366	30,93
891,767	30,96
892,167	30,76
892,567	30,96
892,968	30,81
893,368	30,87
893,768	30,76
894,168	30,93
894,568	31,15
894,968	31,05
895,368	30,93
895,767	31,14
896,167	30,75
896,566	30,88
896,966	30,9
897,365	30,95
897,764	30,97
898,164	30,64
898,563	30,76
898,962	30,98
899,361	30,69
899,759	30,87
900,158	31,01
900,557	30,72
900,955	30,88
901,354	30,9
901,752	30,97
902,15	30,9
902,548	30,69
902,947	30,85
903,345	30,96
903,742	30,93
904,14	31,13
904,538	30,82
904,936	30,75
905,333	30,91
905,731	30,71
906,128	30,8
906,525	30,75
906,923	30,95
907,32	30,98
907,717	30,73
908,114	30,83
908,511	30,92
908,907	31,15
909,304	30,77
909,701	30,79
910,097	30,62
910,494	30,66
910,89	30,81
911,286	30,74
911,682	30,76
912,078	30,63
912,474	30,97
912,87	30,88
913,266	30,71
913,662	30,73
914,058	31,12
914,453	30,53
914,849	30,9
915,244	30,53
915,639	30,78
916,034	30,85
916,43	30,93
916,825	30,52
917,22	31,08
917,614	30,67
918,009	30,7
918,404	31,11
918,798	30,98
919,193	31,01
919,587	30,66
919,982	30,64
920,376	30,81
920,77	30,65
921,164	30,86
921,558	30,62
921,952	30,45
922,346	30,74
922,74	30,5
923,133	30,66
923,527	30,74
923,92	30,77
924,314	30,86
924,707	30,84
925,1	30,45
925,493	30,79
925,886	30,88
926,279	30,78
926,672	30,76
927,065	30,58
927,457	30,51
927,85	30,82
928,243	30,66
928,635	30,71
929,027	30,73
929,42	30,62
929,812	30,65
930,204	30,63
930,596	30,6
930,988	30,81
931,379	30,39
931,771	30,83
932,163	30,66
932,554	30,4
932,946	30,37
933,337	30,45
933,729	30,88
934,12	30,93
934,511	30,57
934,902	30,82
935,293	30,37
935,684	30,51
936,075	30,7
936,465	30,55
936,856	30,77
937,246	31,15
937,637	30,46
938,027	30,41
938,417	30,64
938,808	30,61
939,198	30,5
939,588	29,93
939,978	30,73
940,368	30,52
940,757	29,9
941,147	30,32
941,537	30,18
941,926	30,59
942,315	30,8
942,705	30,7
943,094	30,59
943,483	30,24
943,872	31,23
944,261	30,44
944,65	31,14
945,039	30,55
945,428	30,31
945,816	30,45
946,205	30,42
946,593	30,28
946,982	29,86
947,37	29,92
947,758	30,56
948,146	30,29
948,534	30,48
948,922	30,3
949,31	30,14
949,698	30,47
950,086	30,38
950,473	30,42
950,861	30,36
951,248	30,63
951,636	30,47
952,023	30,3
952,41	29,93
952,797	30,54
953,184	30,48
953,571	29,92
953,958	30,8
954,345	30,15
954,731	30,14
955,118	30,33
955,505	30,01
955,891	29,86
956,277	30,1
956,664	30,03
957,05	30,09
957,436	29,75
957,822	29,9
958,208	30,28
958,594	30,41
958,979	30,31
959,365	30,73
959,751	30,28
960,136	29,78
960,522	29,93
960,907	30,51
961,292	29,78
961,677	30,43
962,062	30,38
962,447	30,05
962,832	30,11
963,217	30,41
963,602	29,79
963,986	30,24
964,371	30,09
964,756	30,17
965,14	30,47
965,524	30
965,908	30,02
966,293	29,91
966,677	29,93
967,061	29,8
967,445	29,86
967,828	30,08
968,212	30,03
968,596	29,93
968,979	30,23
969,363	30,11
969,746	30,01
970,129	30,33
970,513	30,69
970,896	29,55
971,279	30,21
971,662	29,8
972,045	29,9
972,428	29,92
972,81	29,81
973,193	29,59
973,575	30,07
973,958	29,83
974,34	29,81
974,723	30,27
975,105	29,89
975,487	30,2
975,869	30,32
976,251	30,02
976,633	29,99
977,015	29,84
977,396	30,17
977,778	30,12
978,16	30,07
978,541	30,27
978,922	30,47
979,304	29,78
979,685	29,74
980,066	30,29
980,447	30,31
980,828	30,05
981,209	29,96
981,59	30,28
981,97	30,16
982,351	29,99
982,732	30,01
983,112	30,25
983,493	30,07
983,873	30,31
984,253	29,86
984,633	30,38
985,013	30,18
985,393	30,2
985,773	29,62
986,153	30,12
986,533	29,97
986,912	29,94
987,292	30,08
987,671	30,14
988,051	30,34
988,43	30,21
988,809	30,32
989,188	29,68
989,567	29,98
989,946	30,18
990,325	29,8
990,704	30,23
991,083	29,82
991,461	29,73
991,84	30,18
992,218	29,94
992,597	30,3
992,975	29,94
993,353	29,99
993,732	30
994,11	29,82
994,488	29,94
994,866	30,04
995,243	30,05
995,621	30,16
995,999	30,15
996,376	30,12
996,754	30,42
997,131	29,69
997,509	29,85
997,886	30,08
998,263	30,18
998,64	30,04
999,017	29,84
999,394	30,09
999,771	30,19
1000,148	29,95
1000,524	29,89
1000,901	29,87
1001,277	29,75
1001,654	30,01
1002,03	30,01
1002,406	29,45
1002,783	30,25
1003,159	30,14
1003,535	29,86
1003,911	29,87
1004,286	30,13
1004,662	29,77
1005,038	30,34
1005,414	30,09
1005,789	30,02
1006,164	30,08
1006,54	30,19
1006,915	30,19
1007,29	30,35
1007,665	30,28
1008,04	30,03
1008,415	30,46
1008,79	30,03
1009,165	30,49
1009,54	29,8
1009,914	30,54
1010,289	30,17
1010,663	30,24
1011,038	30,11
1011,412	30,5
1011,786	29,69
1012,16	30,25
1012,535	30,05
1012,909	29,63
1013,282	30,17
1013,656	30,19
1014,03	29,61
1014,404	29,96
1014,777	30,09
1015,151	29,82
1015,524	30,57
1015,897	30,06
1016,271	30,05
1016,644	30,27
1017,017	30,14
1017,39	30,06
1017,763	30,63
1018,136	30,04
1018,508	30,16
1018,881	29,96
1019,254	29,39
1019,626	30,17
1019,999	30,1
1020,371	29,63
1020,743	30,61
1021,116	30,18
1021,488	30,2
1021,86	30,4
1022,232	30,1
1022,604	30,03
1022,975	30,42
1023,347	30
1023,719	30,23
1024,09	30,25
1024,462	30,27
1024,833	29,97
1025,204	29,9
1025,576	29,82
1025,947	30,02
1026,318	30,17
1026,689	29,82
1027,06	30,58
1027,431	30,1
1027,801	29,56
1028,172	30,05
1028,543	29,66
1028,913	30,12
1029,284	30,38
1029,654	29,44
1030,024	30,47
1030,394	30,01
1030,764	30,17
1031,135	30,58
1031,504	29,83
1031,874	29,84
1032,244	29,72
1032,614	30,56
1032,983	29,96
1033,353	30
1033,722	30,11
1034,092	30,09
1034,461	30,55
1034,83	30,04
1035,2	30,26
1035,569	30,82
1035,938	30,17
1036,307	29,92
1036,675	30,65
1037,044	30,5
1037,413	30,53
1037,781	30,5
1038,15	29,55
1038,518	30,22
1038,887	30,27
1039,255	30,77
1039,623	30,3
1039,991	30,12
1040,359	30,83
1040,727	30,36
1041,095	30,19
1041,463	30,97
1041,831	30,01
1042,198	30,24
1042,566	30,47
1042,933	29,79
1043,301	30,15
1043,668	30,02
1044,035	30,11
1044,402	30,11
1044,77	30,28
1045,137	30,46
1045,503	29,7
1045,87	30,64
1046,237	30,18
1046,604	29,54
1046,97	30,61
1047,337	30,37
1047,703	30,07
1048,07	30,45
1048,436	30,35
1048,802	30,03
1049,168	30,02
1049,534	30,47
1049,9	30,96
1050,266	30,22
1050,632	30,23
1050,998	29,69
1051,364	29,95
1051,729	31
1052,095	30,14
1052,46	30,07
1052,825	30,2
1053,191	30,13
1053,556	29,88
1053,921	29,83
1054,286	30,49
1054,651	30,91
1055,016	30,01
1055,381	29,87
1055,745	29,13
1056,11	31,03
1056,475	30,22
1056,839	29,79
1057,203	30,44
1057,568	30,06
1057,932	30,13
1058,296	30,7
1058,66	31,67
1059,024	29,64
1059,388	29,87
1059,752	30,1
1060,116	30,39
1060,48	30,38
1060,843	30,07
1061,207	30,55
1061,57	29,96
1061,934	31,34
1062,297	30,19
1062,66	29,76
1063,023	31,06
1063,386	30,38
1063,749	30,92
1064,112	29,42
1064,475	30,94
1064,838	29,54
1065,201	30,05
1065,563	30,49
1065,926	29,46
1066,288	30,91
1066,651	30,74
1067,013	30,29
1067,375	30,21
1067,737	29,82
1068,099	31,04
1068,461	28,81
1068,823	29,83
1069,185	30,88
1069,547	30,1
1069,909	30,31
1070,27	29,8
1070,632	29,44
1070,993	30,05
1071,355	30,05
1071,716	30,25
1072,077	29,37
1072,438	30,26
1072,799	30,21
1073,16	30,01
1073,521	29,29
1073,882	31,13
1074,243	29,04
1074,603	29,45
1074,964	29,13
1075,325	29,86
1075,685	30,49
1076,045	30,09
1076,406	30,35
1076,766	29,93
1077,126	29,91
1077,486	30,16
1077,846	30,97
1078,206	29,96
1078,566	29,33
1078,925	29,85
1079,285	29,96
1079,645	30,27
1080,004	29,61
1080,364	30,96
1080,723	30,48
1081,082	29,6
1081,442	31,45
1081,801	28,58
1082,16	29,52
1082,519	30,25
1082,878	30,38
1083,237	29,33
1083,595	31,14
1083,954	29,99
1084,313	30,15
1084,671	30,24
1085,03	29,65
1085,388	30,21
1085,746	30,2
1086,104	28,78
1086,463	30,14
1086,821	30,66
1087,179	29,89
1087,537	29,37
1087,894	31,21
1088,252	31,24
1088,61	29,91
1088,967	30,63
1089,325	30,38
1089,682	29,01
1090,04	29,5
1090,397	29,5
1090,754	29,89
1091,111	30,1
1091,469	30,35
1091,826	31,02
1092,182	28,98
1092,539	29,7
1092,896	29,85
1093,253	31,58
1093,609	28,93
1093,966	29,99
1094,322	30,82
1094,679	31,2
1095,035	30,06
1095,391	28,78
1095,748	30,49
1096,104	29,87
1096,46	30,93
1096,816	30,91
1097,171	30,75
1097,527	30,27
1097,883	29,97
1098,239	30,29
1098,594	31,3
1098,95	30,77
1099,305	29,4
1099,66	30,91
1100,016	30,17
1100,371	29,23
1100,726	28,6
1101,081	29,5
1101,436	29,97
1101,791	29,89
1102,146	28,74
1102,5	29,81
1102,855	27,78
1103,21	29,51
1103,564	30,09
1103,918	29,94
1104,273	29,81
1104,627	32,35
1104,981	28,86
1105,335	29,69
1105,69	29,49
1106,043	29,68
1106,397	30,21
1106,751	29
1107,105	30,35
1107,459	28,23
1107,812	31,18
1108,166	29,67
1108,519	29,74
1108,873	28,14
1109,226	29,86
1109,579	31,39
1109,932	29,25
1110,285	29,07
1110,638	30,12
1110,991	30,84
1111,344	30,25
1111,697	29,71
1112,05	31,82
1112,402	30,73
1112,755	29,95
1113,107	27,63
1113,46	30,87
1113,812	30,36
1114,164	30,77
1114,517	31,27
1114,869	25,84
1115,221	21,35
1115,573	29,38
1115,924	30,99
