Data from G_6_0_Relative__6__00166.txt Node

Date: Mon Jan 29 13:07:19 CET 2024
User: diatiterra
Spectrometer: HDX00911
Trigger mode: 0
Integration Time (sec): 6,000000E-3
Scans to average: 2
Nonlinearity correction enabled: false
Boxcar width: 0
Storing dark spectrum: false
XAxis mode: Wavelengths
Number of Pixels in Spectrum: 2068
>>>>>Begin Spectral Data<<<<<
194,468	29,27
195,025	21,11
195,581	25
196,138	23,98
196,694	31,4
197,251	24,93
197,807	18,53
198,363	24,84
198,919	22,06
199,474	26,67
200,03	20,09
200,586	23,7
201,141	23,08
201,696	24,95
202,251	17,52
202,806	30,39
203,361	25,74
203,916	23,67
204,471	18,37
205,025	30,32
205,58	27,52
206,134	28,54
206,688	31,89
207,242	31,21
207,796	24,08
208,35	22,32
208,904	27,35
209,457	25,59
210,011	28,54
210,564	28,07
211,117	19,54
211,67	21,13
212,223	29,98
212,776	23,19
213,329	31,11
213,881	25,87
214,434	22,93
214,986	27,66
215,538	31,19
216,09	25,73
216,642	24,84
217,194	30,83
217,746	26,48
218,297	19,74
218,849	28,76
219,4	33,4
219,951	27,11
220,502	23,13
221,053	25
221,604	31,04
222,155	25,75
222,705	28,18
223,256	29,28
223,806	29,56
224,356	34,83
224,906	18,87
225,456	37,26
226,006	29,77
226,556	29,65
227,106	33,48
227,655	31,77
228,204	26,33
228,754	26,49
229,303	22,2
229,852	29,81
230,401	25,23
230,949	32,75
231,498	26,44
232,047	26,34
232,595	27,82
233,143	31,28
233,691	32,79
234,239	28,12
234,787	21,14
235,335	25,16
235,883	19,66
236,43	23,97
236,978	21,99
237,525	22,1
238,072	27,45
238,619	29,44
239,166	33,33
239,713	19,67
240,26	28,42
240,806	29,65
241,353	20,46
241,899	27,75
242,445	24,54
242,991	27,98
243,537	24,12
244,083	22,41
244,629	19,28
245,174	29,26
245,72	33,33
246,265	26,34
246,81	27,31
247,355	32
247,9	24,07
248,445	16,84
248,99	23,41
249,534	19,05
250,079	28
250,623	25,12
251,168	21,25
251,712	25,38
252,256	23,87
252,8	23,97
253,343	15,4
253,887	20
254,43	22,96
254,974	25,18
255,517	27,29
256,06	21,41
256,603	20
257,146	21,81
257,689	24,46
258,232	24,49
258,774	15,59
259,317	25,73
259,859	17,77
260,401	27,27
260,943	19,78
261,485	21,33
262,027	18,38
262,569	22
263,11	22,44
263,652	23,06
264,193	26,03
264,734	21,56
265,275	20,42
265,816	27,03
266,357	21,32
266,898	23,97
267,438	30,73
267,979	24,78
268,519	22,98
269,059	23,36
269,6	24,15
270,14	26,13
270,68	22,88
271,219	19,83
271,759	27,19
272,298	22,72
272,838	28,9
273,377	24,07
273,916	18,57
274,455	18,49
274,994	25,55
275,533	25,87
276,072	24,68
276,61	30,84
277,149	17,96
277,687	26,09
278,225	19,68
278,763	27,15
279,301	22,44
279,839	23,01
280,377	18,72
280,914	31,09
281,452	31,42
281,989	18,46
282,526	21,67
283,064	31,65
283,601	12,53
284,137	24,29
284,674	29,37
285,211	25,71
285,747	25,3
286,284	25,8
286,82	33,94
287,356	29,36
287,892	26,3
288,428	20,17
288,964	35,76
289,5	21,12
290,035	22,96
290,571	29,02
291,106	18,56
291,641	28,64
292,176	25,92
292,711	21,27
293,246	29,36
293,781	32,05
294,315	24,69
294,85	23,23
295,384	26,52
295,918	23,56
296,453	19,81
296,987	14,93
297,52	24,34
298,054	22,15
298,588	21,52
299,121	23,95
299,655	26,47
300,188	27,33
300,721	31,86
301,254	23,06
301,787	23,97
302,32	22,58
302,853	23,57
303,385	25,11
303,918	16,04
304,45	21,49
304,982	15,33
305,514	27,08
306,046	13,57
306,578	20,59
307,11	21,21
307,641	18,3
308,173	18,64
308,704	27,23
309,236	25,3
309,767	28,47
310,298	25,28
310,829	25,35
311,359	25
311,89	15,58
312,421	23,09
312,951	29,77
313,481	22,12
314,012	19,69
314,542	17,88
315,072	22,86
315,601	18,02
316,131	24,71
316,661	21,5
317,19	16,52
317,72	17,62
318,249	18,96
318,778	22,06
319,307	16,47
319,836	26,1
320,365	24,88
320,893	32,04
321,422	22,35
321,95	28,22
322,479	26,19
323,007	21,74
323,535	22,09
324,063	24,11
324,591	26,48
325,118	24,62
325,646	24,53
326,173	21,69
326,701	30,71
327,228	24,55
327,755	11,72
328,282	25,67
328,809	19,65
329,336	33,49
329,862	20,68
330,389	24,14
330,915	20,91
331,441	22,38
331,968	21,45
332,494	28,5
333,02	19,57
333,545	25,55
334,071	20,31
334,597	15,87
335,122	22,27
335,648	22,94
336,173	22,34
336,698	20,64
337,223	25,16
337,748	18,91
338,272	16,95
338,797	19,52
339,322	21,04
339,846	15,96
340,37	28,35
340,894	21,6
341,419	20,38
341,942	22,72
342,466	22,96
342,99	30,71
343,514	22,22
344,037	22
344,56	13,16
345,084	24,24
345,607	20,58
346,13	17,56
346,653	21,02
347,175	19,02
347,698	24,17
348,221	24,77
348,743	17,1
349,265	22,43
349,787	24,2
350,309	22,74
350,831	23,97
351,353	20,14
351,875	24,16
352,397	17,33
352,918	16,38
353,439	23,95
353,961	24,37
354,482	15,15
355,003	24,22
355,524	21,49
356,044	17,83
356,565	19,76
357,086	19,94
357,606	20,68
358,126	25,37
358,646	16,42
359,167	23,67
359,687	20,75
360,206	19,2
360,726	20
361,246	21,03
361,765	17,07
362,285	21,94
362,804	19,76
363,323	20,65
363,842	15,22
364,361	19,25
364,88	21,45
365,398	16,45
365,917	15,65
366,435	19,41
366,954	19,7
367,472	17,07
367,99	18,81
368,508	15,76
369,026	15,42
369,544	16,59
370,061	20,77
370,579	18,35
371,096	16,18
371,613	15,02
372,131	16,25
372,648	13,02
373,165	17,59
373,681	18,18
374,198	15,82
374,715	19,02
375,231	20,63
375,747	13,94
376,264	13,03
376,78	14,04
377,296	15,73
377,812	19,54
378,327	13,9
378,843	18,35
379,359	17,18
379,874	16,2
380,389	14,72
380,905	14,19
381,42	14,81
381,935	15,43
382,449	14,24
382,964	12,73
383,479	15,38
383,993	13,17
384,508	17,2
385,022	13,23
385,536	14,11
386,05	11,92
386,564	14,37
387,078	14,71
387,592	15,19
388,105	14,11
388,619	12,58
389,132	14,9
389,645	14,61
390,158	14,69
390,671	13,21
391,184	13,64
391,697	11,26
392,21	12,97
392,722	12,94
393,235	14,37
393,747	11,26
394,259	12,14
394,771	9,92
395,283	10,65
395,795	11,89
396,307	11,68
396,818	12,61
397,33	11,34
397,841	11,68
398,353	12,15
398,864	12,43
399,375	11,6
399,886	10,76
400,397	10,3
400,907	9,74
401,418	10,23
401,928	9,25
402,439	8,55
402,949	10,98
403,459	7,52
403,969	7,84
404,479	8,56
404,989	8,89
405,498	7,6
406,008	7,66
406,517	7,62
407,027	7,89
407,536	7,72
408,045	6,7
408,554	6,72
409,063	6,25
409,572	5,81
410,08	7,27
410,589	6,41
411,097	4,61
411,606	5,85
412,114	5,84
412,622	5,81
413,13	5,66
413,638	4,55
414,145	5,9
414,653	5,13
415,16	3,71
415,668	4,82
416,175	4,63
416,682	4,47
417,189	4,19
417,696	4,7
418,203	3,78
418,71	4,38
419,216	4,43
419,723	4,33
420,229	3,97
420,735	3,48
421,242	3,67
421,748	3,61
422,254	4,47
422,759	4,19
423,265	3,31
423,771	4,15
424,276	3,85
424,781	3,55
425,287	3,83
425,792	3,42
426,297	3,44
426,802	3,38
427,306	3,58
427,811	3,28
428,316	3,51
428,82	3,71
429,324	3,27
429,829	3,58
430,333	3,57
430,837	3,56
431,34	2,9
431,844	3,28
432,348	3,18
432,851	3,09
433,355	3,11
433,858	3,43
434,361	2,91
434,864	3,26
435,367	3,13
435,87	3,17
436,373	3,07
436,876	3,63
437,378	3,11
437,88	3,07
438,383	3,51
438,885	2,82
439,387	3,06
439,889	3,2
440,391	3,39
440,892	2,98
441,394	3,16
441,896	3,11
442,397	3,1
442,898	3,19
443,399	3,31
443,9	3,19
444,401	3,38
444,902	3,35
445,403	3,08
445,903	3,4
446,404	3,19
446,904	3,04
447,405	3,15
447,905	3,38
448,405	3,43
448,905	3,13
449,404	3,32
449,904	3,55
450,404	3,31
450,903	3,38
451,403	3,47
451,902	3,56
452,401	3,43
452,9	3,46
453,399	3,27
453,898	3,35
454,396	3,36
454,895	3,5
455,393	3,89
455,892	3,66
456,39	3,45
456,888	3,73
457,386	3,63
457,884	3,66
458,382	3,48
458,879	3,3
459,377	3,42
459,874	3,45
460,372	3,94
460,869	3,59
461,366	3,5
461,863	3,37
462,36	3,5
462,857	3,73
463,353	3,82
463,85	3,78
464,346	3,4
464,843	3,34
465,339	3,75
465,835	3,68
466,331	3,58
466,827	3,61
467,323	3,53
467,818	3,6
468,314	3,33
468,809	3,7
469,305	3,55
469,8	3,69
470,295	3,89
470,79	3,61
471,285	3,42
471,78	3,57
472,274	3,48
472,769	3,58
473,263	3,6
473,758	3,56
474,252	3,71
474,746	3,63
475,24	3,77
475,734	3,66
476,228	3,78
476,721	3,36
477,215	3,77
477,708	3,6
478,202	3,74
478,695	3,62
479,188	3,88
479,681	3,91
480,174	3,66
480,667	3,76
481,159	3,64
481,652	3,86
482,144	3,86
482,637	3,88
483,129	4,08
483,621	3,86
484,113	3,87
484,605	3,94
485,097	3,76
485,588	3,76
486,08	3,83
486,571	3,89
487,063	4,14
487,554	3,98
488,045	3,93
488,536	3,9
489,027	4,15
489,518	4,19
490,008	4,12
490,499	4,2
490,989	4,26
491,48	4,2
491,97	4,41
492,46	4,22
492,95	4,3
493,44	4,26
493,93	4,4
494,419	4,83
494,909	4,75
495,398	4,59
495,888	4,52
496,377	5,06
496,866	4,98
497,355	4,9
497,844	4,8
498,333	5,15
498,821	5,27
499,31	5,41
499,798	5,27
500,287	5,45
500,775	5,36
501,263	5,93
501,751	5,69
502,239	5,59
502,727	6,13
503,215	6,11
503,702	6,31
504,19	6,64
504,677	6,71
505,164	6,64
505,651	6,78
506,139	6,93
506,625	6,93
507,112	7,1
507,599	7,24
508,086	7,57
508,572	7,54
509,058	7,79
509,545	8
510,031	8,27
510,517	8,26
511,003	8,63
511,489	9,08
511,974	8,9
512,46	9,2
512,946	9,49
513,431	9,35
513,916	9,62
514,401	9,95
514,887	10,38
515,371	10,15
515,856	10,78
516,341	11,05
516,826	10,77
517,31	11,18
517,795	11,55
518,279	11,82
518,763	12
519,247	12,33
519,731	12,34
520,215	12,48
520,699	12,82
521,182	13,38
521,666	13,33
522,149	13,44
522,633	14,02
523,116	13,96
523,599	14,49
524,082	14,4
524,565	14,86
525,048	14,94
525,53	14,98
526,013	15,27
526,495	15,33
526,978	15,54
527,46	15,99
527,942	15,9
528,424	15,69
528,906	16,12
529,388	16,34
529,87	16,38
530,351	16,71
530,833	16,85
531,314	16,89
531,795	16,93
532,277	17,03
532,758	17,41
533,238	17,51
533,719	17,55
534,2	17,56
534,681	17,73
535,161	17,73
535,642	17,65
536,122	17,77
536,602	17,7
537,082	17,72
537,562	18,24
538,042	17,83
538,522	17,77
539,001	18,04
539,481	18,12
539,96	18,11
540,44	18,5
540,919	18,4
541,398	18,43
541,877	18,23
542,356	18,25
542,835	18,66
543,313	18,42
543,792	18,38
544,27	18,58
544,749	18,36
545,227	18,4
545,705	18,52
546,183	18,7
546,661	18,74
547,139	18,69
547,616	18,8
548,094	18,3
548,571	18,57
549,049	18,81
549,526	18,67
550,003	18,88
550,48	18,85
550,957	18,75
551,434	18,88
551,911	19,2
552,387	18,92
552,864	18,84
553,34	19,17
553,817	18,88
554,293	18,93
554,769	19,12
555,245	19,09
555,721	18,92
556,197	18,69
556,672	18,76
557,148	19,15
557,623	18,77
558,099	19,01
558,574	19,07
559,049	18,79
559,524	18,84
559,999	18,56
560,474	18,81
560,948	18,82
561,423	18,64
561,897	18,47
562,372	18,55
562,846	18,28
563,32	18,34
563,794	18,59
564,268	18,12
564,742	18,09
565,216	18,11
565,69	17,92
566,163	17,8
566,636	17,74
567,11	17,39
567,583	17,78
568,056	17,22
568,529	17,31
569,002	17,48
569,475	17,42
569,947	17,05
570,42	16,65
570,892	17,08
571,365	16,71
571,837	16,49
572,309	16,71
572,781	16,38
573,253	16,23
573,725	16,02
574,197	15,81
574,668	15,77
575,14	15,48
575,611	15,63
576,082	15,44
576,554	15,57
577,025	15,26
577,496	15,09
577,967	15,43
578,437	14,99
578,908	14,76
579,379	14,75
579,849	14,58
580,319	14,82
580,79	14,53
581,26	14,39
581,73	14,2
582,2	14,03
582,669	14,37
583,139	14,07
583,609	14,18
584,078	13,95
584,548	13,79
585,017	13,97
585,486	13,71
585,955	13,47
586,424	13,61
586,893	13,53
587,362	13,5
587,83	13,28
588,299	13,4
588,767	13,13
589,236	13,38
589,704	13,17
590,172	13,07
590,64	13
591,108	12,88
591,576	13,17
592,043	12,83
592,511	12,69
592,978	12,78
593,446	12,72
593,913	12,66
594,38	12,69
594,847	12,46
595,314	12,52
595,781	12,81
596,248	12,75
596,715	12,63
597,181	12,58
597,647	12,61
598,114	12,51
598,58	12,38
599,046	12,37
599,512	12,58
599,978	12,39
600,444	12,34
600,91	12,29
601,375	12,14
601,841	12,12
602,306	12,19
602,771	12,25
603,236	12,15
603,702	11,82
604,167	12,2
604,631	11,99
605,096	12,03
605,561	11,92
606,025	11,81
606,49	11,79
606,954	11,89
607,418	11,79
607,882	11,65
608,347	11,41
608,81	11,52
609,274	11,25
609,738	11,38
610,202	11,25
610,665	11,22
611,128	11,28
611,592	10,94
612,055	11,08
612,518	11,09
612,981	10,85
613,444	10,8
613,907	10,75
614,369	10,66
614,832	10,67
615,294	10,41
615,757	10,33
616,219	10,49
616,681	10,2
617,143	10,28
617,605	10,17
618,067	10,19
618,529	9,98
618,99	9,85
619,452	9,92
619,913	9,86
620,375	9,7
620,836	9,86
621,297	9,58
621,758	9,8
622,219	9,75
622,68	9,66
623,14	9,67
623,601	9,53
624,061	9,37
624,522	9,59
624,982	9,54
625,442	9,38
625,902	9,33
626,362	9,38
626,822	9,33
627,282	9,44
627,742	9,38
628,201	9,48
628,661	9,31
629,12	9,33
629,579	9,42
630,038	9,33
630,497	9,39
630,956	9,39
631,415	9,41
631,874	9,25
632,332	9,12
632,791	9,04
633,249	9,04
633,708	9
634,166	9,08
634,624	8,94
635,082	8,96
635,54	8,84
635,998	8,85
636,455	8,74
636,913	8,72
637,37	8,82
637,828	8,56
638,285	8,52
638,742	8,39
639,199	8,27
639,656	8,22
640,113	8,14
640,57	8
641,027	7,92
641,483	7,85
641,94	7,78
642,396	7,62
642,852	7,6
643,309	7,36
643,765	7,26
644,221	7,23
644,676	7,03
645,132	6,97
645,588	6,78
646,043	6,82
646,499	6,83
646,954	6,71
647,409	6,53
647,864	6,51
648,319	6,45
648,774	6,32
649,229	6,27
649,684	6,28
650,139	6,21
650,593	6,09
651,047	6,07
651,502	6,06
651,956	5,91
652,41	5,93
652,864	5,92
653,318	5,9
653,772	5,94
654,225	5,82
654,679	5,63
655,133	5,76
655,586	5,68
656,039	5,54
656,492	5,69
656,946	5,49
657,399	5,37
657,851	5,28
658,304	5,39
658,757	5,34
659,209	5,24
659,662	5,17
660,114	5,06
660,567	5,08
661,019	4,94
661,471	5
661,923	4,89
662,375	4,83
662,826	4,69
663,278	4,67
663,73	4,57
664,181	4,5
664,632	4,52
665,084	4,45
665,535	4,39
665,986	4,41
666,437	4,31
666,888	4,37
667,338	4,27
667,789	4,24
668,24	4,21
668,69	4,21
669,14	4,22
669,591	4,19
670,041	4,28
670,491	4,25
670,941	4,33
671,391	4,36
671,84	4,42
672,29	4,41
672,74	4,43
673,189	4,48
673,638	4,54
674,088	4,58
674,537	4,59
674,986	4,67
675,435	4,75
675,883	4,81
676,332	4,92
676,781	4,95
677,229	4,91
677,678	5,14
678,126	5,31
678,574	5,33
679,022	5,37
679,47	5,42
679,918	5,62
680,366	5,68
680,814	5,78
681,261	5,95
681,709	5,95
682,156	6,22
682,604	6,27
683,051	6,4
683,498	6,57
683,945	6,67
684,392	6,67
684,839	6,86
685,286	6,95
685,732	7,16
686,179	7,21
686,625	7,37
687,071	7,61
687,518	7,78
687,964	7,86
688,41	8,06
688,856	8,31
689,301	8,59
689,747	8,97
690,193	9,19
690,638	9,43
691,084	9,69
691,529	10,27
691,974	10,31
692,419	10,77
692,864	11,19
693,309	11,56
693,754	11,7
694,199	12,22
694,643	12,76
695,088	13,11
695,532	13,3
695,977	13,72
696,421	14,15
696,865	14,65
697,309	14,87
697,753	15,23
698,197	15,57
698,64	15,99
699,084	16,21
699,527	16,61
699,971	17,05
700,414	17,39
700,857	17,65
701,3	18,02
701,743	18,32
702,186	18,76
702,629	18,96
703,072	19,38
703,515	19,44
703,957	19,85
704,399	20,07
704,842	20,46
705,284	20,67
705,726	21,01
706,168	21,09
706,61	21,29
707,052	21,55
707,494	21,7
707,935	22,07
708,377	22,33
708,818	22,29
709,26	22,65
709,701	22,85
710,142	23,05
710,583	23,42
711,024	23,3
711,465	23,7
711,905	23,9
712,346	23,9
712,787	24,3
713,227	24,41
713,667	24,66
714,108	24,79
714,548	24,84
714,988	25,2
715,428	25,35
715,868	25,22
716,307	25,32
716,747	25,66
717,186	25,77
717,626	26,03
718,065	26,22
718,504	26,26
718,944	26,4
719,383	26,71
719,822	26,61
720,261	26,63
720,699	26,81
721,138	26,91
721,576	27,2
722,015	27,2
722,453	27,38
722,892	27,43
723,33	27,58
723,768	27,61
724,206	27,82
724,644	27,82
725,081	27,74
725,519	28,06
725,957	28,11
726,394	28
726,832	28,2
727,269	28,11
727,706	28,13
728,143	28,39
728,58	28,27
729,017	28,39
729,454	28,56
729,89	28,55
730,327	28,65
730,764	28,75
731,2	28,93
731,636	28,59
732,072	28,87
732,509	28,65
732,945	29,13
733,38	29,01
733,816	28,95
734,252	29,01
734,688	29,06
735,123	28,99
735,559	29,12
735,994	29,12
736,429	28,94
736,864	29,14
737,299	29,13
737,734	29,19
738,169	29,1
738,604	29,28
739,038	29,27
739,473	29,08
739,907	29,47
740,342	29,22
740,776	29,21
741,21	29,28
741,644	29,12
742,078	29,06
742,512	29,27
742,946	29,14
743,379	29,02
743,813	29,06
744,246	29,07
744,68	29,17
745,113	29,14
745,546	29,02
745,979	28,98
746,412	29,08
746,845	29,15
747,278	28,84
747,711	29,05
748,143	28,98
748,576	29,08
749,008	28,74
749,441	29,05
749,873	28,87
750,305	28,95
750,737	28,99
751,169	28,84
751,601	28,75
752,032	28,84
752,464	28,7
752,896	28,88
753,327	28,74
753,758	28,71
754,19	28,69
754,621	28,76
755,052	28,48
755,483	28,46
755,914	28,51
756,344	28,42
756,775	28,4
757,206	28,68
757,636	28,45
758,066	28,62
758,497	28,4
758,927	28,27
759,357	28,25
759,787	28,3
760,217	28,22
760,647	28,13
761,076	28,27
761,506	28,11
761,935	28,1
762,365	28
762,794	28,18
763,223	28,19
763,653	28,02
764,082	28,07
764,51	28,03
764,939	28,02
765,368	27,99
765,797	28,05
766,225	27,9
766,654	28,12
767,082	28,01
767,51	27,93
767,938	27,79
768,367	28,06
768,795	27,79
769,222	27,85
769,65	27,88
770,078	27,68
770,505	27,8
770,933	27,65
771,36	27,8
771,788	27,81
772,215	27,89
772,642	28
773,069	27,75
773,496	27,55
773,923	27,79
774,349	27,56
774,776	27,89
775,203	27,75
775,629	27,78
776,055	27,79
776,482	27,51
776,908	27,67
777,334	27,6
777,76	27,39
778,186	27,63
778,611	27,56
779,037	27,75
779,463	27,35
779,888	27,48
780,314	27,66
780,739	27,36
781,164	27,62
781,589	27,46
782,014	27,54
782,439	27,54
782,864	27,46
783,289	27,52
783,713	27,32
784,138	27,2
784,562	27,39
784,987	27,25
785,411	27,36
785,835	27,19
786,259	27,25
786,683	27,43
787,107	27,18
787,531	27,36
787,954	27,26
788,378	27,48
788,802	27,09
789,225	27,66
789,648	27,38
790,071	27,38
790,495	27,28
790,918	27,18
791,34	27,05
791,763	27,15
792,186	27,14
792,609	27,2
793,031	27,26
793,454	27,3
793,876	27,29
794,298	27,19
794,721	26,95
795,143	27,17
795,565	27,35
795,986	27
796,408	27,19
796,83	27,15
797,252	27,18
797,673	27,14
798,094	27,02
798,516	27,19
798,937	27,16
799,358	27,07
799,779	27,12
800,2	27,22
800,621	27,34
801,042	27,09
801,462	27,08
801,883	27,21
802,303	27,08
802,724	27,08
803,144	27,25
803,564	27,12
803,984	27,03
804,404	27,1
804,824	27,07
805,244	27,17
805,664	27,18
806,084	27,12
806,503	27,01
806,923	27,08
807,342	27,01
807,761	27,08
808,18	27,15
808,599	27,03
809,018	27,01
809,437	27,11
809,856	26,93
810,275	27,04
810,693	27,04
811,112	26,91
811,53	27,01
811,949	26,91
812,367	27,13
812,785	26,78
813,203	27,08
813,621	27,31
814,039	26,96
814,457	26,97
814,874	26,96
815,292	27
815,709	26,9
816,127	27,08
816,544	27,17
816,961	26,94
817,378	27,11
817,795	26,97
818,212	27,27
818,629	26,86
819,046	26,95
819,462	26,79
819,879	27,13
820,295	26,65
820,712	27,08
821,128	26,96
821,544	26,82
821,96	27,02
822,376	26,79
822,792	26,9
823,208	26,95
823,624	26,91
824,039	27,07
824,455	26,92
824,87	26,8
825,286	26,96
825,701	26,77
826,116	26,82
826,531	26,79
826,946	27
827,361	27,01
827,776	26,69
828,19	26,66
828,605	26,93
829,02	26,84
829,434	26,83
829,848	26,84
830,263	26,75
830,677	26,55
831,091	26,85
831,505	26,66
831,919	26,81
832,332	26,79
832,746	27,04
833,16	26,8
833,573	26,76
833,987	26,98
834,4	26,78
834,813	26,82
835,226	26,82
835,639	26,59
836,052	27,06
836,465	26,83
836,878	26,73
837,29	26,79
837,703	26,78
838,116	26,81
838,528	26,75
838,94	26,8
839,352	26,86
839,765	26,59
840,177	26,79
840,589	26,84
841	26,89
841,412	26,82
841,824	26,46
842,235	26,65
842,647	26,5
843,058	26,9
843,47	26,64
843,881	26,99
844,292	26,49
844,703	26,55
845,114	26,75
845,525	27,05
845,935	26,87
846,346	26,74
846,757	26,67
847,167	26,68
847,577	26,9
847,988	26,82
848,398	26,72
848,808	26,7
849,218	26,6
849,628	26,74
850,038	26,79
850,448	26,8
850,857	26,61
851,267	26,57
851,676	26,65
852,086	26,6
852,495	26,63
852,904	26,63
853,313	26,55
853,722	26,77
854,131	26,76
854,54	26,66
854,949	26,82
855,357	26,58
855,766	26,36
856,174	26,74
856,583	26,48
856,991	26,7
857,399	26,69
857,807	26,7
858,215	26,62
858,623	26,52
859,031	26,55
859,439	26,49
859,846	26,38
860,254	26,67
860,661	26,61
861,069	26,33
861,476	26,46
861,883	26,54
862,29	26,68
862,697	26,83
863,104	26,53
863,511	26,49
863,918	26,57
864,325	26,46
864,731	26,64
865,138	26,64
865,544	26,6
865,95	26,64
866,357	26,56
866,763	26,52
867,169	26,4
867,575	26,37
867,98	26,44
868,386	26,5
868,792	26,64
869,197	26,41
869,603	26,58
870,008	26,61
870,414	26,22
870,819	26,41
871,224	26,48
871,629	26,44
872,034	26,19
872,439	26,25
872,844	26,3
873,248	26,49
873,653	26,66
874,057	26,41
874,462	26,45
874,866	26,57
875,27	26,62
875,674	26,53
876,078	26,35
876,482	26,47
876,886	26,12
877,29	26,43
877,694	26,33
878,097	26,76
878,501	26,76
878,904	26,41
879,308	26,62
879,711	26,58
880,114	26,49
880,517	26,33
880,92	26,23
881,323	26,44
881,726	26,57
882,128	26,33
882,531	26,23
882,934	26,4
883,336	26,23
883,738	26,33
884,141	26,61
884,543	26,49
884,945	26,54
885,347	26,41
885,749	26,28
886,151	26,33
886,552	26,4
886,954	26,65
887,355	26,24
887,757	26,44
888,158	26,43
888,56	26,31
888,961	26,11
889,362	26,19
889,763	26,47
890,164	26,44
890,565	26,38
890,965	26,3
891,366	26,25
891,767	26,35
892,167	26,53
892,567	26,3
892,968	26,33
893,368	26,27
893,768	26,3
894,168	26,13
894,568	26,22
894,968	26,28
895,368	26,19
895,767	26,16
896,167	26,19
896,566	26,19
896,966	26,22
897,365	26,32
897,764	26,15
898,164	26,29
898,563	26,49
898,962	26,38
899,361	26,59
899,759	26,11
900,158	26,22
900,557	26,37
900,955	26,26
901,354	26,25
901,752	26,35
902,15	25,97
902,548	26,13
902,947	26,34
903,345	26,28
903,742	26,14
904,14	26,36
904,538	26,1
904,936	26,11
905,333	26,31
905,731	26,3
906,128	26,18
906,525	26,14
906,923	26,38
907,32	26,3
907,717	26,28
908,114	26,32
908,511	26,47
908,907	26,32
909,304	26,41
909,701	26,24
910,097	26,56
910,494	26,52
910,89	26,08
911,286	26,57
911,682	26,2
912,078	26,07
912,474	26,24
912,87	26,32
913,266	26,17
913,662	26,41
914,058	26,18
914,453	26,3
914,849	26,33
915,244	26,22
915,639	26,23
916,034	26,25
916,43	26,53
916,825	26,33
917,22	26,23
917,614	26,58
918,009	26,26
918,404	26,47
918,798	26,31
919,193	26,14
919,587	26,29
919,982	26,27
920,376	25,86
920,77	26,11
921,164	26,22
921,558	26,1
921,952	26,26
922,346	26,23
922,74	26,35
923,133	26,09
923,527	26,27
923,92	26,22
924,314	26,24
924,707	26,02
925,1	26,22
925,493	26,15
925,886	26,48
926,279	26,07
926,672	26,36
927,065	26,32
927,457	26,1
927,85	26,23
928,243	25,95
928,635	26,13
929,027	26,29
929,42	25,88
929,812	25,9
930,204	26,12
930,596	26,26
930,988	25,99
931,379	25,92
931,771	26,02
932,163	26,12
932,554	26,36
932,946	26,09
933,337	26,14
933,729	26,15
934,12	26,36
934,511	26,03
934,902	26,46
935,293	26,25
935,684	25,55
936,075	26,34
936,465	25,74
936,856	26,09
937,246	26,3
937,637	25,63
938,027	25,92
938,417	25,9
938,808	26,33
939,198	25,83
939,588	25,62
939,978	26,06
940,368	26,38
940,757	26,77
941,147	25,98
941,537	25,83
941,926	26,02
942,315	25,83
942,705	26,07
943,094	26,64
943,483	26,23
943,872	26,23
944,261	25,92
944,65	25,6
945,039	25,85
945,428	26,14
945,816	25,93
946,205	25,54
946,593	25,85
946,982	26,4
947,37	26,1
947,758	25,8
948,146	25,85
948,534	25,78
948,922	25,96
949,31	25,55
949,698	25,65
950,086	25,95
950,473	25,81
950,861	25,82
951,248	25,76
951,636	25,66
952,023	25,67
952,41	25,98
952,797	25,54
953,184	25,86
953,571	25,45
953,958	25,53
954,345	25,97
954,731	25,98
955,118	25,47
955,505	25,58
955,891	25,78
956,277	25,68
956,664	26,08
957,05	25,43
957,436	25,47
957,822	25,38
958,208	25,46
958,594	25,65
958,979	25,53
959,365	25,61
959,751	25,41
960,136	25,42
960,522	25,81
960,907	25,83
961,292	25,43
961,677	25,7
962,062	25,56
962,447	25,63
962,832	25,86
963,217	25,43
963,602	25,67
963,986	25,14
964,371	25,66
964,756	25,59
965,14	25,34
965,524	25,58
965,908	25,67
966,293	25,4
966,677	25,5
967,061	25,71
967,445	25,41
967,828	25,65
968,212	25,57
968,596	25,34
968,979	25,75
969,363	25,37
969,746	25,79
970,129	25,53
970,513	25,53
970,896	25,69
971,279	25,39
971,662	25,72
972,045	25,23
972,428	25,31
972,81	25,4
973,193	25,69
973,575	25,66
973,958	25,56
974,34	25,79
974,723	25,56
975,105	25,6
975,487	25,38
975,869	25,5
976,251	25,73
976,633	25,52
977,015	25,64
977,396	25,59
977,778	25,53
978,16	25,68
978,541	25,82
978,922	25,6
979,304	25,72
979,685	25,11
980,066	25,64
980,447	25,74
980,828	25,35
981,209	25,61
981,59	25,63
981,97	25,69
982,351	25,47
982,732	25,45
983,112	25,78
983,493	25,43
983,873	25,41
984,253	25,8
984,633	25,75
985,013	25,68
985,393	25,4
985,773	25,58
986,153	25,67
986,533	25,72
986,912	25,68
987,292	26,06
987,671	25,43
988,051	26,07
988,43	25,72
988,809	25,54
989,188	25,72
989,567	25,39
989,946	25,66
990,325	25,72
990,704	25,24
991,083	25,27
991,461	25,59
991,84	25,55
992,218	25,38
992,597	25,86
992,975	26,11
993,353	25,07
993,732	25,87
994,11	25,58
994,488	25,19
994,866	25,48
995,243	25,44
995,621	25,37
995,999	25,77
996,376	25,82
996,754	25,62
997,131	25,31
997,509	25,58
997,886	25,43
998,263	25,75
998,64	25,47
999,017	25,59
999,394	26,14
999,771	25,56
1000,148	25,5
1000,524	25,48
1000,901	25,56
1001,277	25,52
1001,654	25,28
1002,03	26,04
1002,406	25,82
1002,783	25,77
1003,159	25,6
1003,535	25,52
1003,911	24,99
1004,286	25,72
1004,662	25,44
1005,038	25,89
1005,414	25,97
1005,789	25,24
1006,164	25,49
1006,54	25,6
1006,915	25,68
1007,29	25,47
1007,665	25,56
1008,04	25,53
1008,415	25,87
1008,79	25,62
1009,165	25,18
1009,54	25,24
1009,914	25,51
1010,289	25,53
1010,663	25,81
1011,038	25,16
1011,412	26,05
1011,786	25,22
1012,16	25,5
1012,535	25,84
1012,909	25,36
1013,282	25,36
1013,656	25,63
1014,03	25,71
1014,404	25,7
1014,777	25,73
1015,151	25,64
1015,524	25,35
1015,897	25,36
1016,271	25,19
1016,644	25,51
1017,017	25,7
1017,39	25,39
1017,763	25,92
1018,136	25,66
1018,508	25,44
1018,881	25,79
1019,254	25,77
1019,626	25,68
1019,999	25,66
1020,371	25,92
1020,743	25,49
1021,116	25,98
1021,488	25,41
1021,86	25,44
1022,232	26,02
1022,604	25,39
1022,975	25,84
1023,347	25,94
1023,719	25,81
1024,09	25,41
1024,462	25,77
1024,833	25,45
1025,204	25,61
1025,576	25,82
1025,947	25,39
1026,318	25,16
1026,689	25,57
1027,06	25,34
1027,431	25,28
1027,801	25,56
1028,172	26,07
1028,543	25,44
1028,913	25,19
1029,284	25,43
1029,654	25,45
1030,024	25,65
1030,394	25,71
1030,764	24,68
1031,135	25,45
1031,504	25,98
1031,874	26,01
1032,244	25,68
1032,614	25,83
1032,983	25,37
1033,353	25,26
1033,722	25,92
1034,092	25,47
1034,461	25,45
1034,83	25,59
1035,2	25,77
1035,569	25,43
1035,938	25,55
1036,307	25,44
1036,675	25,61
1037,044	25,05
1037,413	25,99
1037,781	25,27
1038,15	26,42
1038,518	25,33
1038,887	25,66
1039,255	25,95
1039,623	26,08
1039,991	25,5
1040,359	26,36
1040,727	25,9
1041,095	25,46
1041,463	25,65
1041,831	25,64
1042,198	25,51
1042,566	26,45
1042,933	25,32
1043,301	26,01
1043,668	25,63
1044,035	25,87
1044,402	25,26
1044,77	25,89
1045,137	25,87
1045,503	25,84
1045,87	25,33
1046,237	25,39
1046,604	25,31
1046,97	25,59
1047,337	25,24
1047,703	25,94
1048,07	25,68
1048,436	25,62
1048,802	25,49
1049,168	25,97
1049,534	25,97
1049,9	25,52
1050,266	26,1
1050,632	25,91
1050,998	26,21
1051,364	25,49
1051,729	26,18
1052,095	25,53
1052,46	25,26
1052,825	25,95
1053,191	25,8
1053,556	25,51
1053,921	25,92
1054,286	25,94
1054,651	26,83
1055,016	25,88
1055,381	25,92
1055,745	26,06
1056,11	25,16
1056,475	26,55
1056,839	26,05
1057,203	26,23
1057,568	25,93
1057,932	25,69
1058,296	26
1058,66	25,41
1059,024	25,82
1059,388	26,09
1059,752	25,57
1060,116	25,53
1060,48	25,77
1060,843	26,21
1061,207	26,08
1061,57	25,77
1061,934	25,02
1062,297	26,35
1062,66	25,41
1063,023	25,63
1063,386	25,15
1063,749	25,48
1064,112	25,51
1064,475	24,75
1064,838	25,6
1065,201	25,92
1065,563	25,91
1065,926	25,09
1066,288	25,9
1066,651	25,64
1067,013	25,43
1067,375	26,43
1067,737	25,38
1068,099	26,23
1068,461	26,05
1068,823	26,25
1069,185	25,93
1069,547	25,75
1069,909	24,44
1070,27	24,87
1070,632	25,89
1070,993	25,57
1071,355	25,7
1071,716	26,28
1072,077	27,26
1072,438	26
1072,799	26,38
1073,16	25,45
1073,521	25,35
1073,882	25,66
1074,243	26,79
1074,603	26,25
1074,964	25,5
1075,325	24,75
1075,685	26,77
1076,045	27,11
1076,406	25,39
1076,766	24,5
1077,126	24,84
1077,486	26,17
1077,846	26,04
1078,206	26,06
1078,566	24,65
1078,925	26,66
1079,285	26,46
1079,645	25,88
1080,004	25,84
1080,364	26,35
1080,723	25,92
1081,082	26,69
1081,442	25,85
1081,801	26,85
1082,16	26,49
1082,519	26,09
1082,878	25,56
1083,237	25,15
1083,595	25,5
1083,954	26,85
1084,313	25,31
1084,671	25,06
1085,03	25,68
1085,388	25,07
1085,746	26,59
1086,104	25,15
1086,463	25,99
1086,821	26,87
1087,179	25,05
1087,537	25,97
1087,894	25,81
1088,252	24,97
1088,61	25,8
1088,967	26,67
1089,325	26,11
1089,682	25,14
1090,04	24,62
1090,397	25,93
1090,754	25,88
1091,111	26,07
1091,469	26,64
1091,826	24,65
1092,182	26,41
1092,539	25,95
1092,896	26,6
1093,253	25,99
1093,609	25,62
1093,966	25,89
1094,322	24,79
1094,679	26,71
1095,035	25,77
1095,391	25,88
1095,748	25,02
1096,104	26,9
1096,46	24,49
1096,816	26,8
1097,171	26,61
1097,527	24,65
1097,883	25,31
1098,239	24,76
1098,594	26,01
1098,95	25,77
1099,305	25,77
1099,66	25,42
1100,016	26,62
1100,371	24,52
1100,726	26,05
1101,081	25,19
1101,436	26,58
1101,791	26,08
1102,146	27,8
1102,5	25,35
1102,855	25,26
1103,21	27,94
1103,564	26,3
1103,918	25,91
1104,273	25,73
1104,627	26,65
1104,981	25,69
1105,335	26,1
1105,69	25,58
1106,043	26,81
1106,397	26,58
1106,751	25,86
1107,105	26,97
1107,459	25,19
1107,812	26,37
1108,166	27,03
1108,519	25,39
1108,873	25,68
1109,226	25,88
1109,579	26,27
1109,932	26,16
1110,285	24,6
1110,638	26,47
1110,991	25,21
1111,344	25,55
1111,697	26,21
1112,05	26,77
1112,402	23,55
1112,755	26,92
1113,107	25,02
1113,46	26,5
1113,812	25,37
1114,164	23,42
1114,517	26,49
1114,869	35,96
1115,221	21,35
1115,573	28,35
1115,924	22,54
