Data from L_5_0_Relative__6__00196.txt Node

Date: Mon Jan 29 13:10:17 CET 2024
User: diatiterra
Spectrometer: HDX00911
Trigger mode: 0
Integration Time (sec): 6,000000E-3
Scans to average: 2
Nonlinearity correction enabled: false
Boxcar width: 0
Storing dark spectrum: false
XAxis mode: Wavelengths
Number of Pixels in Spectrum: 2068
>>>>>Begin Spectral Data<<<<<
194,468	19,51
195,025	23,12
195,581	16,86
196,138	8,77
196,694	25,91
197,251	15,38
197,807	19,48
198,363	18,79
198,919	22,91
199,474	19,56
200,03	13,91
200,586	23,28
201,141	17,09
201,696	19,78
202,251	14,66
202,806	17,25
203,361	18,57
203,916	21,54
204,471	25,17
205,025	21,72
205,58	14,54
206,134	17,45
206,688	14,1
207,242	14,65
207,796	13,88
208,35	11,39
208,904	18,78
209,457	21,29
210,011	23,89
210,564	16,42
211,117	19,54
211,67	14,29
212,223	20,13
212,776	20,36
213,329	26,26
213,881	16,43
214,434	17,15
214,986	18,14
215,538	21,9
216,09	14
216,642	21,41
217,194	21,25
217,746	25,21
218,297	18,88
218,849	18,88
219,4	24,22
219,951	15,11
220,502	18,42
221,053	18,7
221,604	22,71
222,155	18,39
222,705	21,09
223,256	23,64
223,806	14,05
224,356	19,02
224,906	18,87
225,456	24,63
226,006	26,14
226,556	20,88
227,106	23,21
227,655	22,39
228,204	8,63
228,754	24,02
229,303	15,16
229,852	30,24
230,401	15,77
230,949	29,23
231,498	18,44
232,047	22,06
232,595	23,64
233,143	16,3
233,691	22,54
234,239	20,98
234,787	21,14
235,335	18,71
235,883	24,31
236,43	22,73
236,978	13,19
237,525	16,74
238,072	28,32
238,619	23,83
239,166	29,36
239,713	27,12
240,26	18,88
240,806	28,35
241,353	20
241,899	23,79
242,445	20,41
242,991	24,95
243,537	16,16
244,083	22,41
244,629	18,01
245,174	21,4
245,72	20,44
246,265	17,95
246,81	19,19
247,355	24,94
247,9	19,26
248,445	20,26
248,99	18,89
249,534	17,69
250,079	18,22
250,623	15,46
251,168	19,91
251,712	23,23
252,256	16,13
252,8	23,09
253,343	16,35
253,887	21,7
254,43	18,67
254,974	20,47
255,517	19,62
256,06	17,44
256,603	17,73
257,146	25,52
257,689	17,97
258,232	24,49
258,774	10,64
259,317	15,8
259,859	21,87
260,401	16,45
260,943	17,11
261,485	19,11
262,027	16,63
262,569	13,5
263,11	21,15
263,652	24
264,193	21,69
264,734	21,56
265,275	19,95
265,816	16,92
266,357	16,33
266,898	20,32
267,438	18,81
267,979	21,24
268,519	19,04
269,059	15,42
269,6	16,48
270,14	23,42
270,68	28,81
271,219	20,68
271,759	24,49
272,298	20,94
272,838	27,06
273,377	24,07
273,916	23,49
274,455	18,04
274,994	17,18
275,533	25,87
276,072	22,1
276,61	29,07
277,149	18,45
277,687	23,8
278,225	25,11
278,763	25,34
279,301	23,33
279,839	21,29
280,377	13,51
280,914	29,7
281,452	24,54
281,989	25,93
282,526	21,67
283,064	25,2
283,601	22,27
284,137	29,52
284,674	18,69
285,211	20,04
285,747	26,25
286,284	19,41
286,82	24,83
287,356	26,71
287,892	16,78
288,428	20,17
288,964	20,24
289,5	16,63
290,035	15,89
290,571	18,78
291,106	14,6
291,641	21,82
292,176	25,43
292,711	21,27
293,246	23,85
293,781	21,67
294,315	18,7
294,85	20,58
295,384	20,67
295,918	20,44
296,453	24,53
296,987	13,98
297,52	24,34
298,054	13,2
298,588	18,48
299,121	20,4
299,655	19,68
300,188	25,51
300,721	27,21
301,254	17,58
301,787	18,64
302,32	27,19
302,853	17,4
303,385	26,87
303,918	21,83
304,45	25,44
304,982	27,78
305,514	22,45
306,046	25,38
306,578	25,17
307,11	17,48
307,641	23,21
308,173	20
308,704	29,02
309,236	23,36
309,767	30,35
310,298	22,62
310,829	21,13
311,359	20,33
311,89	22,35
312,421	18,61
312,951	25,12
313,481	13,36
314,012	21,92
314,542	24
315,072	10,3
315,601	18,47
316,131	25,17
316,661	22,46
317,19	18,33
317,72	20,95
318,249	21,67
318,778	28,43
319,307	14,12
319,836	25,17
320,365	19,35
320,893	19,64
321,422	28,8
321,95	22,89
322,479	20,32
323,007	19,81
323,535	18,37
324,063	11,35
324,591	20,33
325,118	21,54
325,646	13,68
326,173	14,38
326,701	19,29
327,228	16,82
327,755	19,38
328,282	17,11
328,809	19,21
329,336	14,55
329,862	19,77
330,389	22,76
330,915	18,18
331,441	20,51
331,968	25,78
332,494	12
333,02	19,57
333,545	26,76
334,071	21,21
334,597	16,83
335,122	21,38
335,648	18,3
336,173	21,91
336,698	20,64
337,223	22,13
337,748	16,39
338,272	22,38
338,797	19,52
339,322	20,14
339,846	16,81
340,37	21,27
340,894	13,59
341,419	19,12
341,942	11,76
342,466	10,86
342,99	20,75
343,514	20,13
344,037	16,8
344,56	17,21
345,084	19,32
345,607	16,61
346,13	10,31
346,653	16,48
347,175	12,74
347,698	14,34
348,221	17,69
348,743	14,87
349,265	17,57
349,787	16,73
350,309	16,58
350,831	16,72
351,353	12,91
351,875	15,1
352,397	10,33
352,918	17,06
353,439	15,91
353,961	16,3
354,482	10,1
355,003	11,46
355,524	17,23
356,044	17,2
356,565	16,11
357,086	13,04
357,606	11,63
358,126	17,66
358,646	13,46
359,167	15,58
359,687	18,55
360,206	8,57
360,726	8,7
361,246	18,68
361,765	8,46
362,285	11,34
362,804	15,7
363,323	8,57
363,842	12,02
364,361	16,58
364,88	13,82
365,398	14,87
365,917	11,99
366,435	10,93
366,954	12,22
367,472	12,71
367,99	11,54
368,508	9,93
369,026	12,73
369,544	13,17
370,061	14,47
370,579	12
371,096	12,02
371,613	15,02
372,131	13,07
372,648	8,07
373,165	9,85
373,681	10,2
374,198	12,97
374,715	9,25
375,231	10,79
375,747	12,95
376,264	8,78
376,78	15,79
377,296	9,1
377,812	13,35
378,327	10,57
378,843	9,57
379,359	8,5
379,874	8,58
380,389	11,96
380,905	10,21
381,42	6,82
381,935	9,77
382,449	11,26
382,964	8,07
383,479	8,86
383,993	9,1
384,508	10,67
385,022	10,14
385,536	6,7
386,05	7,53
386,564	9,08
387,078	8,61
387,592	9,69
388,105	10,27
388,619	8,38
389,132	7,85
389,645	8,36
390,158	9,15
390,671	7,59
391,184	8,14
391,697	6,93
392,21	5,21
392,722	8,44
393,235	6,71
393,747	7,02
394,259	6,17
394,771	7,04
395,283	7,65
395,795	6,69
396,307	5,01
396,818	7,41
397,33	8,15
397,841	6,22
398,353	5,25
398,864	8,09
399,375	5,6
399,886	6,69
400,397	6,53
400,907	5,68
401,418	6,57
401,928	6,65
402,439	4,93
402,949	6,07
403,459	4,26
403,969	5,33
404,479	5,02
404,989	4,69
405,498	4,91
406,008	4,83
406,517	4,54
407,027	5,1
407,536	4,67
408,045	4,62
408,554	3,84
409,063	3,6
409,572	3,75
410,08	4,53
410,589	4,33
411,097	3,52
411,606	3,37
412,114	3,95
412,622	3,59
413,13	3,24
413,638	3,47
414,145	3,14
414,653	2,86
415,16	3,13
415,668	2,64
416,175	1,88
416,682	3,01
417,189	2,62
417,696	2,71
418,203	2,42
418,71	2,7
419,216	2,82
419,723	2,35
420,229	3,1
420,735	2,07
421,242	2,27
421,748	2,03
422,254	2,56
422,759	2,21
423,265	2,38
423,771	2,04
424,276	2,79
424,781	2,3
425,287	1,99
425,792	1,86
426,297	2,24
426,802	2,5
427,306	2,21
427,811	2,46
428,316	2,33
428,82	2,04
429,324	2,43
429,829	2,28
430,333	1,98
430,837	2,18
431,34	2,14
431,844	1,78
432,348	1,9
432,851	2,06
433,355	1,93
433,858	2,3
434,361	2,01
434,864	1,73
435,367	2,36
435,87	1,97
436,373	2,01
436,876	2,09
437,378	2,04
437,88	2,27
438,383	2,09
438,885	1,96
439,387	1,99
439,889	2,2
440,391	2,41
440,892	2,38
441,394	2,18
441,896	2,07
442,397	2,03
442,898	1,93
443,399	2,02
443,9	2,37
444,401	1,78
444,902	2,04
445,403	2,19
445,903	2,05
446,404	2,2
446,904	2,21
447,405	1,61
447,905	2,12
448,405	2,24
448,905	2,07
449,404	1,94
449,904	1,92
450,404	2,02
450,903	2,16
451,403	2
451,902	2,27
452,401	2,05
452,9	2,15
453,399	2,04
453,898	2,32
454,396	2,08
454,895	2,2
455,393	2,17
455,892	1,96
456,39	2,09
456,888	2,31
457,386	2,01
457,884	2,29
458,382	2,1
458,879	1,88
459,377	2,1
459,874	2,31
460,372	2,14
460,869	2,14
461,366	2,14
461,863	2,26
462,36	2,06
462,857	2,02
463,353	2,09
463,85	1,87
464,346	2,16
464,843	2,2
465,339	2
465,835	2,01
466,331	2,29
466,827	2,16
467,323	2,15
467,818	2,04
468,314	2,14
468,809	2,14
469,305	1,99
469,8	2,14
470,295	2,2
470,79	2,2
471,285	1,97
471,78	2,1
472,274	1,99
472,769	1,88
473,263	2,09
473,758	2,2
474,252	2,36
474,746	1,96
475,24	2,12
475,734	2,06
476,228	2,31
476,721	1,92
477,215	2,17
477,708	2,11
478,202	2,13
478,695	2,2
479,188	2,28
479,681	2,03
480,174	2,29
480,667	2,23
481,159	2,01
481,652	2,19
482,144	2,11
482,637	1,9
483,129	2,2
483,621	2,21
484,113	2,12
484,605	2,22
485,097	1,95
485,588	2,39
486,08	2,25
486,571	2,06
487,063	2,27
487,554	2,12
488,045	2,21
488,536	2,23
489,027	2,31
489,518	2,26
490,008	2,38
490,499	2,28
490,989	2,54
491,48	2,31
491,97	2,28
492,46	2,36
492,95	2,32
493,44	2,38
493,93	2,43
494,419	2,4
494,909	2,47
495,398	2,48
495,888	2,54
496,377	2,53
496,866	2,58
497,355	2,46
497,844	2,66
498,333	2,66
498,821	2,83
499,31	3,11
499,798	2,85
500,287	2,94
500,775	2,95
501,263	2,9
501,751	2,99
502,239	3,02
502,727	3,11
503,215	3,2
503,702	3,15
504,19	3,37
504,677	3,22
505,164	3,3
505,651	3,57
506,139	3,41
506,625	3,5
507,112	3,75
507,599	3,83
508,086	3,81
508,572	3,8
509,058	3,91
509,545	4,12
510,031	4,13
510,517	4,43
511,003	4,5
511,489	4,45
511,974	4,58
512,46	4,58
512,946	4,99
513,431	5,2
513,916	5,07
514,401	5,26
514,887	5,4
515,371	5,81
515,856	5,75
516,341	6,09
516,826	6,08
517,31	6,19
517,795	6,25
518,279	6,38
518,763	6,45
519,247	6,73
519,731	6,93
520,215	7,03
520,699	7,31
521,182	7,39
521,666	7,77
522,149	7,73
522,633	8,1
523,116	8,19
523,599	8,32
524,082	8,55
524,565	8,55
525,048	8,73
525,53	8,73
526,013	8,89
526,495	9,06
526,978	9,58
527,46	9,38
527,942	9,65
528,424	9,58
528,906	9,74
529,388	9,81
529,87	9,62
530,351	9,98
530,833	10,04
531,314	10,33
531,795	10,47
532,277	10,76
532,758	10,56
533,238	10,72
533,719	10,7
534,2	10,69
534,681	10,74
535,161	10,8
535,642	10,77
536,122	11,11
536,602	10,99
537,082	10,91
537,562	11,01
538,042	11,24
538,522	11,03
539,001	11,12
539,481	11,04
539,96	11,05
540,44	11,68
540,919	11,08
541,398	11,42
541,877	11,64
542,356	11,45
542,835	11,33
543,313	11,51
543,792	11,2
544,27	11,43
544,749	11,38
545,227	11,43
545,705	11,77
546,183	11,55
546,661	11,45
547,139	11,37
547,616	11,55
548,094	11,39
548,571	11,74
549,049	11,72
549,526	11,78
550,003	11,71
550,48	11,69
550,957	11,67
551,434	11,8
551,911	11,77
552,387	11,84
552,864	11,69
553,34	11,8
553,817	11,72
554,293	11,91
554,769	11,9
555,245	11,84
555,721	11,69
556,197	12,08
556,672	11,69
557,148	11,45
557,623	11,78
558,099	11,64
558,574	11,73
559,049	11,41
559,524	11,49
559,999	11,51
560,474	11,8
560,948	11,5
561,423	11,54
561,897	11,63
562,372	11,26
562,846	11,28
563,32	11,3
563,794	11,42
564,268	10,92
564,742	10,96
565,216	10,95
565,69	10,92
566,163	10,7
566,636	10,75
567,11	10,64
567,583	10,49
568,056	10,6
568,529	10,43
569,002	10,23
569,475	10,41
569,947	10,1
570,42	10,06
570,892	9,69
571,365	10
571,837	9,75
572,309	9,75
572,781	9,62
573,253	9,64
573,725	9,48
574,197	9,28
574,668	9,11
575,14	9,19
575,611	9,18
576,082	9,11
576,554	9,03
577,025	8,83
577,496	8,86
577,967	8,73
578,437	8,6
578,908	8,56
579,379	8,57
579,849	8,2
580,319	8,35
580,79	8,34
581,26	8,09
581,73	8,17
582,2	8,08
582,669	7,99
583,139	7,92
583,609	7,87
584,078	7,82
584,548	7,9
585,017	7,7
585,486	7,77
585,955	7,71
586,424	7,62
586,893	7,47
587,362	7,68
587,83	7,59
588,299	7,44
588,767	7,29
589,236	7,33
589,704	7,24
590,172	7,31
590,64	7,11
591,108	7,13
591,576	7,19
592,043	7,05
592,511	7,17
592,978	6,95
593,446	7,05
593,913	7,1
594,38	6,97
594,847	6,87
595,314	6,87
595,781	7,02
596,248	6,86
596,715	6,88
597,181	6,95
597,647	6,88
598,114	6,85
598,58	6,86
599,046	6,81
599,512	6,91
599,978	6,94
600,444	6,81
600,91	6,89
601,375	6,94
601,841	6,71
602,306	6,85
602,771	6,84
603,236	6,61
603,702	6,65
604,167	6,64
604,631	6,71
605,096	6,5
605,561	6,62
606,025	6,47
606,49	6,37
606,954	6,45
607,418	6,28
607,882	6,25
608,347	6,27
608,81	6,2
609,274	6,09
609,738	6,13
610,202	6,04
610,665	6,07
611,128	6,03
611,592	5,83
612,055	5,88
612,518	5,84
612,981	5,77
613,444	5,69
613,907	5,75
614,369	5,64
614,832	5,61
615,294	5,52
615,757	5,51
616,219	5,47
616,681	5,38
617,143	5,27
617,605	5,45
618,067	5,35
618,529	5,23
618,99	5,32
619,452	5,16
619,913	5,16
620,375	5,12
620,836	5,13
621,297	5,19
621,758	5,06
622,219	5,15
622,68	5,01
623,14	5
623,601	5,02
624,061	4,98
624,522	4,99
624,982	4,88
625,442	4,89
625,902	4,78
626,362	4,84
626,822	4,85
627,282	4,89
627,742	4,75
628,201	4,93
628,661	4,84
629,12	4,77
629,579	4,81
630,038	4,9
630,497	4,8
630,956	4,87
631,415	4,87
631,874	4,73
632,332	4,79
632,791	4,7
633,249	4,74
633,708	4,72
634,166	4,74
634,624	4,73
635,082	4,68
635,54	4,55
635,998	4,62
636,455	4,62
636,913	4,52
637,37	4,4
637,828	4,34
638,285	4,32
638,742	4,34
639,199	4,43
639,656	4,22
640,113	4,24
640,57	4,15
641,027	4,05
641,483	3,97
641,94	4,02
642,396	3,89
642,852	3,96
643,309	3,86
643,765	3,83
644,221	3,79
644,676	3,65
645,132	3,58
645,588	3,61
646,043	3,63
646,499	3,49
646,954	3,41
647,409	3,42
647,864	3,35
648,319	3,26
648,774	3,15
649,229	3,3
649,684	3,17
650,139	3,23
650,593	3,12
651,047	3,2
651,502	3,19
651,956	3,11
652,41	3,02
652,864	3,05
653,318	3,1
653,772	3,02
654,225	2,99
654,679	2,97
655,133	2,97
655,586	2,94
656,039	2,88
656,492	2,88
656,946	2,85
657,399	2,85
657,851	2,84
658,304	2,76
658,757	2,81
659,209	2,8
659,662	2,72
660,114	2,72
660,567	2,67
661,019	2,68
661,471	2,56
661,923	2,56
662,375	2,53
662,826	2,55
663,278	2,48
663,73	2,5
664,181	2,49
664,632	2,47
665,084	2,43
665,535	2,52
665,986	2,43
666,437	2,46
666,888	2,48
667,338	2,44
667,789	2,47
668,24	2,52
668,69	2,52
669,14	2,5
669,591	2,55
670,041	2,49
670,491	2,55
670,941	2,57
671,391	2,61
671,84	2,69
672,29	2,67
672,74	2,68
673,189	2,76
673,638	2,71
674,088	2,83
674,537	2,91
674,986	2,94
675,435	2,9
675,883	3
676,332	3,13
676,781	3,13
677,229	3,25
677,678	3,29
678,126	3,34
678,574	3,39
679,022	3,41
679,47	3,5
679,918	3,65
680,366	3,61
680,814	3,68
681,261	3,75
681,709	3,79
682,156	3,9
682,604	3,93
683,051	4,11
683,498	4,13
683,945	4,17
684,392	4,2
684,839	4,29
685,286	4,35
685,732	4,38
686,179	4,42
686,625	4,51
687,071	4,57
687,518	4,63
687,964	4,71
688,41	4,82
688,856	4,88
689,301	4,99
689,747	5,2
690,193	5,28
690,638	5,38
691,084	5,54
691,529	5,65
691,974	5,86
692,419	6,07
692,864	6,31
693,309	6,42
693,754	6,82
694,199	7,05
694,643	7,28
695,088	7,47
695,532	7,74
695,977	7,95
696,421	8,26
696,865	8,42
697,309	8,73
697,753	9,17
698,197	9,38
698,64	9,68
699,084	10,03
699,527	10,31
699,971	10,43
700,414	10,71
700,857	11,09
701,3	11,27
701,743	11,63
702,186	12,1
702,629	12,13
703,072	12,25
703,515	12,57
703,957	13,07
704,399	13,18
704,842	13,42
705,284	13,6
705,726	13,94
706,168	14,06
706,61	14,39
707,052	14,62
707,494	14,85
707,935	14,98
708,377	15,3
708,818	15,67
709,26	15,8
709,701	15,8
710,142	16,09
710,583	16,17
711,024	16,59
711,465	16,55
711,905	17,08
712,346	17,17
712,787	17,17
713,227	17,44
713,667	17,75
714,108	17,97
714,548	18,02
714,988	18,3
715,428	18,52
715,868	18,5
716,307	18,74
716,747	19,04
717,186	19
717,626	19,26
718,065	19,39
718,504	19,58
718,944	19,69
719,383	20
719,822	19,89
720,261	20,01
720,699	20,28
721,138	20,46
721,576	20,47
722,015	20,64
722,453	20,95
722,892	20,98
723,33	20,96
723,768	21,11
724,206	21,31
724,644	21,3
725,081	21,39
725,519	21,44
725,957	21,75
726,394	21,61
726,832	21,91
727,269	21,9
727,706	22,01
728,143	22,19
728,58	22,18
729,017	22,13
729,454	22,43
729,89	22,35
730,327	22,29
730,764	22,68
731,2	22,78
731,636	22,65
732,072	22,78
732,509	22,81
732,945	22,91
733,38	22,84
733,816	22,83
734,252	22,88
734,688	22,83
735,123	23,13
735,559	23,32
735,994	22,94
736,429	23,32
736,864	23,22
737,299	23,3
737,734	23,25
738,169	23,24
738,604	23,43
739,038	23,52
739,473	23,19
739,907	23,42
740,342	23,25
740,776	23,26
741,21	23,53
741,644	23,32
742,078	23,63
742,512	23,45
742,946	23,37
743,379	23,22
743,813	23,13
744,246	23,46
744,68	23,33
745,113	23,34
745,546	23,19
745,979	23,33
746,412	23,28
746,845	23,25
747,278	23,54
747,711	23,35
748,143	23,43
748,576	23,4
749,008	23,2
749,441	23,45
749,873	23,11
750,305	23,11
750,737	23,2
751,169	23,18
751,601	23,3
752,032	23,31
752,464	23,16
752,896	23,1
753,327	23,13
753,758	23,18
754,19	23,17
754,621	23,16
755,052	23,01
755,483	22,93
755,914	23,16
756,344	23
756,775	22,73
757,206	22,87
757,636	23,05
758,066	22,95
758,497	22,81
758,927	22,97
759,357	22,73
759,787	22,74
760,217	22,76
760,647	22,86
761,076	22,88
761,506	22,76
761,935	22,77
762,365	22,7
762,794	22,84
763,223	22,82
763,653	22,73
764,082	22,69
764,51	22,76
764,939	22,81
765,368	22,52
765,797	22,43
766,225	22,47
766,654	22,67
767,082	22,57
767,51	22,49
767,938	22,47
768,367	22,52
768,795	22,58
769,222	22,37
769,65	22,46
770,078	22,47
770,505	22,39
770,933	22,57
771,36	22,33
771,788	22,35
772,215	22,43
772,642	22,53
773,069	22,66
773,496	22,35
773,923	22,5
774,349	22,23
774,776	22,43
775,203	22,45
775,629	22,33
776,055	22,38
776,482	22,33
776,908	22,41
777,334	22,37
777,76	22,27
778,186	22,36
778,611	22,36
779,037	22,05
779,463	22,18
779,888	22,02
780,314	22,34
780,739	22,31
781,164	22,09
781,589	22,01
782,014	22,2
782,439	22,1
782,864	22,05
783,289	22,26
783,713	22,31
784,138	22,09
784,562	22,12
784,987	22,47
785,411	22,1
785,835	22,12
786,259	22,14
786,683	22,29
787,107	22,03
787,531	22,22
787,954	22,41
788,378	22,15
788,802	21,77
789,225	22,23
789,648	21,85
790,071	22,18
790,495	21,87
790,918	22,05
791,34	22,19
791,763	21,94
792,186	22,07
792,609	21,93
793,031	22,01
793,454	21,92
793,876	21,89
794,298	21,92
794,721	22,02
795,143	21,91
795,565	22,02
795,986	22,04
796,408	22,01
796,83	21,89
797,252	22,07
797,673	22,03
798,094	21,81
798,516	21,94
798,937	21,84
799,358	21,88
799,779	22,04
800,2	21,93
800,621	21,9
801,042	21,96
801,462	21,89
801,883	21,75
802,303	21,99
802,724	21,9
803,144	21,89
803,564	22,07
803,984	22
804,404	21,87
804,824	21,84
805,244	22,05
805,664	21,95
806,084	21,67
806,503	21,94
806,923	21,96
807,342	21,97
807,761	22
808,18	21,91
808,599	21,98
809,018	21,84
809,437	21,98
809,856	21,83
810,275	21,81
810,693	22,05
811,112	22,03
811,53	21,85
811,949	21,97
812,367	21,87
812,785	21,77
813,203	21,89
813,621	22,04
814,039	21,86
814,457	21,65
814,874	21,9
815,292	21,96
815,709	21,95
816,127	21,78
816,544	21,94
816,961	21,68
817,378	21,82
817,795	21,59
818,212	21,89
818,629	21,87
819,046	21,76
819,462	21,85
819,879	21,91
820,295	21,69
820,712	21,73
821,128	21,95
821,544	21,63
821,96	21,68
822,376	21,95
822,792	21,88
823,208	21,86
823,624	21,82
824,039	21,88
824,455	21,73
824,87	21,74
825,286	21,77
825,701	21,56
826,116	21,8
826,531	21,82
826,946	21,74
827,361	21,79
827,776	21,66
828,19	21,5
828,605	21,85
829,02	21,89
829,434	21,57
829,848	21,79
830,263	21,75
830,677	21,78
831,091	21,77
831,505	21,93
831,919	21,85
832,332	21,78
832,746	21,58
833,16	21,69
833,573	21,72
833,987	21,64
834,4	21,68
834,813	21,8
835,226	21,8
835,639	21,59
836,052	21,68
836,465	21,78
836,878	21,68
837,29	21,94
837,703	21,71
838,116	21,76
838,528	21,48
838,94	21,71
839,352	21,67
839,765	21,63
840,177	21,41
840,589	21,64
841	21,8
841,412	21,96
841,824	21,74
842,235	21,44
842,647	21,54
843,058	21,7
843,47	21,36
843,881	21,59
844,292	21,54
844,703	21,6
845,114	21,66
845,525	21,74
845,935	21,66
846,346	21,61
846,757	21,69
847,167	21,4
847,577	21,42
847,988	21,61
848,398	21,71
848,808	21,44
849,218	21,65
849,628	21,57
850,038	21,63
850,448	21,53
850,857	21,64
851,267	21,41
851,676	21,68
852,086	21,65
852,495	21,7
852,904	21,45
853,313	21,65
853,722	21,65
854,131	21,39
854,54	21,56
854,949	21,54
855,357	21,35
855,766	21,56
856,174	21,6
856,583	21,53
856,991	21,62
857,399	21,33
857,807	21,55
858,215	21,51
858,623	21,51
859,031	21,59
859,439	21,38
859,846	21,62
860,254	21,65
860,661	21,43
861,069	21,54
861,476	21,38
861,883	21,35
862,29	21,52
862,697	21,46
863,104	21,45
863,511	21,38
863,918	21,47
864,325	21,45
864,731	21,45
865,138	21,72
865,544	21,52
865,95	21,41
866,357	21,71
866,763	21,27
867,169	21,53
867,575	21,3
867,98	21,62
868,386	21,23
868,792	21,43
869,197	21,34
869,603	21,6
870,008	21,52
870,414	21,32
870,819	21,43
871,224	21,28
871,629	21,36
872,034	21,5
872,439	21,46
872,844	21,23
873,248	21,23
873,653	21,35
874,057	21,44
874,462	21,53
874,866	21,36
875,27	21,4
875,674	21,43
876,078	21,41
876,482	21,43
876,886	21,31
877,29	21,54
877,694	21,29
878,097	21,4
878,501	21,74
878,904	21,55
879,308	21,24
879,711	21,66
880,114	21,58
880,517	21,35
880,92	21,14
881,323	21,39
881,726	21,41
882,128	21,26
882,531	21,34
882,934	21,38
883,336	21,46
883,738	21,24
884,141	21,43
884,543	21,23
884,945	21,57
885,347	21,37
885,749	21,31
886,151	21,3
886,552	21,35
886,954	21,31
887,355	21,38
887,757	21,27
888,158	21,26
888,56	21,35
888,961	21,44
889,362	21,33
889,763	21,51
890,164	21,29
890,565	21,28
890,965	21,34
891,366	21,25
891,767	21,33
892,167	21,08
892,567	21,49
892,968	21,14
893,368	21,38
893,768	21,26
894,168	21,31
894,568	21,43
894,968	21,37
895,368	21,41
895,767	21,59
896,167	21,11
896,566	21,41
896,966	21,42
897,365	21,29
897,764	21,29
898,164	21,38
898,563	21,19
898,962	21,31
899,361	21,26
899,759	21,26
900,158	21,23
900,557	21,13
900,955	21,43
901,354	21,24
901,752	21,27
902,15	21,33
902,548	21,26
902,947	21,22
903,345	21,44
903,742	21,17
904,14	21,45
904,538	21,15
904,936	21,29
905,333	21,28
905,731	21,44
906,128	21,41
906,525	21,4
906,923	21,34
907,32	21,41
907,717	21,04
908,114	21,25
908,511	21,17
908,907	21,49
909,304	21,23
909,701	21,27
910,097	21,26
910,494	21,12
910,89	21,39
911,286	21,19
911,682	21,3
912,078	21,29
912,474	21,2
912,87	21,23
913,266	21,43
913,662	21,14
914,058	21,31
914,453	21,25
914,849	21,17
915,244	20,93
915,639	21,35
916,034	21,02
916,43	21,48
916,825	20,97
917,22	21,33
917,614	21,48
918,009	20,85
918,404	21,35
918,798	21,27
919,193	21,21
919,587	21,22
919,982	21,43
920,376	21,31
920,77	21,21
921,164	21,11
921,558	21,28
921,952	20,75
922,346	21,14
922,74	21,49
923,133	21,07
923,527	21,33
923,92	21,3
924,314	21,07
924,707	20,98
925,1	21,01
925,493	21,4
925,886	21,01
926,279	21,05
926,672	21,4
927,065	21,43
927,457	21,05
927,85	20,99
928,243	21,29
928,635	20,95
929,027	21,16
929,42	21,38
929,812	20,96
930,204	21,21
930,596	21,11
930,988	21,12
931,379	21,07
931,771	21,16
932,163	21,38
932,554	20,86
932,946	21,09
933,337	21,2
933,729	21,08
934,12	20,99
934,511	21,03
934,902	21,1
935,293	21,1
935,684	20,8
936,075	21,21
936,465	21,15
936,856	21,21
937,246	20,94
937,637	21,08
938,027	20,7
938,417	20,86
938,808	21,58
939,198	21,11
939,588	20,9
939,978	20,96
940,368	20,84
940,757	21,29
941,147	21,31
941,537	20,88
941,926	21,09
942,315	21,13
942,705	21,52
943,094	20,99
943,483	20,89
943,872	21,45
944,261	20,74
944,65	20,86
945,039	21,27
945,428	21,02
945,816	20,83
946,205	20,7
946,593	21,02
946,982	20,95
947,37	20,94
947,758	20,88
948,146	20,93
948,534	21,22
948,922	20,72
949,31	20,85
949,698	20,91
950,086	20,82
950,473	20,75
950,861	20,61
951,248	21,13
951,636	20,75
952,023	20,78
952,41	21
952,797	21,26
953,184	20,42
953,571	20,87
953,958	20,62
954,345	20,58
954,731	20,44
955,118	20,87
955,505	20,49
955,891	20,72
956,277	21,08
956,664	20,61
957,05	20,62
957,436	20,37
957,822	20,82
958,208	20,71
958,594	20,16
958,979	20,73
959,365	20,49
959,751	20,5
960,136	20,68
960,522	20,79
960,907	20,55
961,292	20,33
961,677	20,8
962,062	20,67
962,447	20,52
962,832	20,46
963,217	20,67
963,602	20,41
963,986	20,5
964,371	20,37
964,756	20,83
965,14	20,61
965,524	20,67
965,908	20,59
966,293	20,66
966,677	20,38
967,061	20,7
967,445	20,65
967,828	20,62
968,212	20,51
968,596	20,21
968,979	20,65
969,363	20,73
969,746	20,58
970,129	20,63
970,513	20,44
970,896	20,5
971,279	20,27
971,662	20,14
972,045	20,47
972,428	20,57
972,81	20,59
973,193	20,41
973,575	20,38
973,958	20,35
974,34	20,49
974,723	20,58
975,105	20,5
975,487	20,13
975,869	20,48
976,251	20,02
976,633	20,4
977,015	20,61
977,396	20,71
977,778	20,99
978,16	20,7
978,541	20,59
978,922	20,35
979,304	20,59
979,685	20,18
980,066	20,45
980,447	20,81
980,828	20,48
981,209	20,27
981,59	20,7
981,97	20,49
982,351	20,76
982,732	20,5
983,112	20,52
983,493	20,35
983,873	20,47
984,253	20,3
984,633	20,28
985,013	20,43
985,393	20,53
985,773	20,26
986,153	20,26
986,533	20,16
986,912	20,17
987,292	20,75
987,671	20,61
988,051	20,67
988,43	20,72
988,809	20,59
989,188	20,52
989,567	20,46
989,946	20,68
990,325	20,5
990,704	20,28
991,083	20,74
991,461	20,32
991,84	20,26
992,218	20,43
992,597	20,77
992,975	20,44
993,353	20,62
993,732	20,64
994,11	20,57
994,488	20,62
994,866	20,6
995,243	20,69
995,621	20,42
995,999	20,34
996,376	20,72
996,754	20,73
997,131	20,61
997,509	20,6
997,886	20,67
998,263	20,73
998,64	20,69
999,017	20,63
999,394	20,52
999,771	20,4
1000,148	20,31
1000,524	20,47
1000,901	20,27
1001,277	20,27
1001,654	20,75
1002,03	20,29
1002,406	20,38
1002,783	20,7
1003,159	20,91
1003,535	20,9
1003,911	20,73
1004,286	20,56
1004,662	20,23
1005,038	20,63
1005,414	20,48
1005,789	20,19
1006,164	20,48
1006,54	20,6
1006,915	20,49
1007,29	20,31
1007,665	20,52
1008,04	20,43
1008,415	20,87
1008,79	20,86
1009,165	20,8
1009,54	20,61
1009,914	20,76
1010,289	20,5
1010,663	20,89
1011,038	20,56
1011,412	21,19
1011,786	20,43
1012,16	20,52
1012,535	20,58
1012,909	21,06
1013,282	20,57
1013,656	20,87
1014,03	20,47
1014,404	20,78
1014,777	20,79
1015,151	20,43
1015,524	20,81
1015,897	20,75
1016,271	21,01
1016,644	20,79
1017,017	21
1017,39	20,33
1017,763	20,43
1018,136	20,24
1018,508	20,6
1018,881	20,72
1019,254	20,27
1019,626	20,49
1019,999	21,18
1020,371	20,98
1020,743	21,01
1021,116	21,16
1021,488	20,71
1021,86	20,7
1022,232	20,71
1022,604	20,47
1022,975	20,89
1023,347	20,84
1023,719	20,96
1024,09	20,88
1024,462	20,85
1024,833	20,65
1025,204	20,37
1025,576	20,7
1025,947	20,31
1026,318	20,64
1026,689	20,79
1027,06	20,69
1027,431	21,09
1027,801	20,88
1028,172	20,97
1028,543	20,9
1028,913	20,25
1029,284	20,76
1029,654	20,57
1030,024	20,67
1030,394	20,62
1030,764	20,75
1031,135	20,77
1031,504	20,57
1031,874	20,82
1032,244	20,76
1032,614	20,68
1032,983	20,51
1033,353	20,22
1033,722	20,53
1034,092	21,13
1034,461	20,43
1034,83	21,08
1035,2	20,66
1035,569	20,77
1035,938	20,57
1036,307	20,49
1036,675	20,98
1037,044	20,2
1037,413	20,79
1037,781	20,81
1038,15	20,24
1038,518	20,64
1038,887	20,6
1039,255	20,33
1039,623	20,68
1039,991	21,1
1040,359	21,26
1040,727	20,66
1041,095	21,03
1041,463	20,69
1041,831	20,62
1042,198	21,11
1042,566	21,12
1042,933	20,18
1043,301	21,07
1043,668	20,48
1044,035	20,68
1044,402	20,89
1044,77	21,08
1045,137	20,74
1045,503	21,4
1045,87	20,53
1046,237	21,11
1046,604	20,29
1046,97	21,3
1047,337	20,9
1047,703	20,7
1048,07	20,75
1048,436	20,26
1048,802	20,1
1049,168	20,65
1049,534	21,24
1049,9	21,23
1050,266	20,64
1050,632	20,39
1050,998	20,6
1051,364	20,64
1051,729	21,14
1052,095	20,84
1052,46	19,89
1052,825	20,35
1053,191	20,47
1053,556	21,34
1053,921	19,76
1054,286	20,62
1054,651	21,59
1055,016	20,35
1055,381	19,85
1055,745	20,93
1056,11	20,67
1056,475	20,53
1056,839	20,51
1057,203	20,88
1057,568	20,57
1057,932	19,93
1058,296	21,04
1058,66	20,56
1059,024	20,38
1059,388	20,25
1059,752	21,18
1060,116	20,83
1060,48	21,06
1060,843	20,28
1061,207	19,76
1061,57	20,83
1061,934	20,53
1062,297	20,63
1062,66	20,02
1063,023	21,34
1063,386	19,51
1063,749	20,93
1064,112	20,62
1064,475	20,21
1064,838	21,06
1065,201	20,24
1065,563	20,92
1065,926	20,45
1066,288	20,98
1066,651	20,64
1067,013	20,91
1067,375	20,72
1067,737	20,21
1068,099	20,84
1068,461	20,67
1068,823	20,91
1069,185	20,54
1069,547	20,98
1069,909	19,64
1070,27	20,88
1070,632	19,67
1070,993	20,37
1071,355	20,45
1071,716	21,02
1072,077	20,57
1072,438	20,63
1072,799	20,5
1073,16	20,9
1073,521	19,43
1073,882	21,19
1074,243	20,85
1074,603	20,19
1074,964	20,24
1075,325	20,27
1075,685	21,36
1076,045	20,24
1076,406	20,1
1076,766	19,93
1077,126	20,74
1077,486	20,32
1077,846	21,19
1078,206	20,21
1078,566	20,71
1078,925	20,1
1079,285	21,13
1079,645	21,12
1080,004	20,64
1080,364	21,03
1080,723	20,73
1081,082	20,74
1081,442	20,78
1081,801	20,16
1082,16	20,43
1082,519	21,84
1082,878	20,62
1083,237	19,86
1083,595	20,62
1083,954	20,4
1084,313	21,28
1084,671	20,36
1085,03	20,46
1085,388	20,62
1085,746	20,89
1086,104	20,54
1086,463	20,92
1086,821	21,14
1087,179	20,9
1087,537	20,73
1087,894	19,15
1088,252	22,43
1088,61	20,85
1088,967	20,82
1089,325	21,6
1089,682	19,91
1090,04	19,82
1090,397	20,2
1090,754	20,77
1091,111	20,89
1091,469	21,04
1091,826	21,44
1092,182	21,93
1092,539	21,49
1092,896	19,7
1093,253	20,26
1093,609	21,16
1093,966	20,99
1094,322	20,86
1094,679	20,45
1095,035	20,3
1095,391	21,75
1095,748	21,94
1096,104	20,43
1096,46	21,56
1096,816	20,95
1097,171	23,62
1097,527	20,22
1097,883	19,99
1098,239	19,49
1098,594	21,42
1098,95	19,97
1099,305	21,44
1099,66	21,54
1100,016	23,57
1100,371	21,31
1100,726	21,74
1101,081	21,16
1101,436	22,1
1101,791	20,86
1102,146	21,69
1102,5	20,72
1102,855	21,17
1103,21	21,31
1103,564	19,22
1103,918	21,57
1104,273	21,26
1104,627	21,52
1104,981	20,79
1105,335	20,99
1105,69	19,81
1106,043	22,39
1106,397	21,49
1106,751	20,82
1107,105	21
1107,459	20,44
1107,812	19,16
1108,166	20,27
1108,519	20,2
1108,873	20,77
1109,226	21,51
1109,579	20,43
1109,932	22,04
1110,285	20,06
1110,638	21,83
1110,991	19,92
1111,344	19,38
1111,697	20,51
1112,05	21,81
1112,402	19,41
1112,755	21,45
1113,107	22,32
1113,46	19,83
1113,812	20,26
1114,164	21,27
1114,517	19,92
1114,869	19,1
1115,221	14,06
1115,573	23,2
1115,924	27,23
