Data from A_6__Relative__0__00008.txt Node

Date: Mon Jan 29 18:02:00 CET 2024
User: diatiterra
Spectrometer: HDX00911
Trigger mode: 0
Integration Time (sec): 6,000000E-3
Scans to average: 2
Nonlinearity correction enabled: false
Boxcar width: 0
Storing dark spectrum: false
XAxis mode: Wavelengths
Number of Pixels in Spectrum: 2068
>>>>>Begin Spectral Data<<<<<
194,468	15,69
195,025	13,27
195,581	28,72
196,138	14,62
196,694	17,82
197,251	21,78
197,807	18,4
198,363	19,27
198,919	18,15
199,474	15,36
200,03	13,97
200,586	19,39
201,141	10,86
201,696	13,49
202,251	12,92
202,806	12,78
203,361	11,58
203,916	21,92
204,471	13,73
205,025	13,57
205,58	11,11
206,134	13,33
206,688	11,96
207,242	18,37
207,796	14,92
208,35	10,47
208,904	13,9
209,457	16,97
210,011	14,34
210,564	14,93
211,117	15,85
211,67	12,32
212,223	9,59
212,776	16,48
213,329	10,65
213,881	6,79
214,434	19,66
214,986	19,87
215,538	9,89
216,09	14,1
216,642	18,52
217,194	14,24
217,746	15,49
218,297	12,75
218,849	15,26
219,4	22,38
219,951	17,82
220,502	16,03
221,053	20,06
221,604	22,82
222,155	14,81
222,705	14,72
223,256	15,47
223,806	15,99
224,356	22,1
224,906	13,33
225,456	14,14
226,006	14,43
226,556	16,42
227,106	14,34
227,655	14,63
228,204	23,36
228,754	10
229,303	15,25
229,852	23,2
230,401	16,49
230,949	21,4
231,498	19,4
232,047	11,78
232,595	17,73
233,143	18,18
233,691	16
234,239	10,45
234,787	13,29
235,335	21,09
235,883	13,62
236,43	13,7
236,978	17,45
237,525	20,9
238,072	14,02
238,619	12,33
239,166	18,18
239,713	21,93
240,26	16,48
240,806	15,25
241,353	21,55
241,899	20,71
242,445	19,23
242,991	22,3
243,537	27,06
244,083	17,45
244,629	18,58
245,174	17,16
245,72	19,73
246,265	18,37
246,81	18,25
247,355	9,19
247,9	10,03
248,445	23,79
248,99	10,03
249,534	21,52
250,079	18,28
250,623	13,9
251,168	19,13
251,712	19,5
252,256	15,28
252,8	18,75
253,343	21,97
253,887	14,97
254,43	19,33
254,974	16,08
255,517	21,14
256,06	17,12
256,603	17,36
257,146	17,51
257,689	20,25
258,232	13,79
258,774	16,97
259,317	21,25
259,859	10,7
260,401	21,97
260,943	15,67
261,485	16,31
262,027	20,34
262,569	18,42
263,11	14,44
263,652	19,85
264,193	18,93
264,734	15,87
265,275	17,67
265,816	24,82
266,357	16,19
266,898	17,41
267,438	4,71
267,979	18,55
268,519	15,52
269,059	11,35
269,6	10,88
270,14	22,77
270,68	11,49
271,219	21,05
271,759	13,06
272,298	12
272,838	20,93
273,377	14,81
273,916	15,16
274,455	11,11
274,994	13,31
275,533	15,7
276,072	9,77
276,61	17,41
277,149	8,33
277,687	17,44
278,225	11,64
278,763	19,2
279,301	16,98
279,839	17,75
280,377	20,8
280,914	12,82
281,452	16,67
281,989	20,14
282,526	20,07
283,064	17,71
283,601	18,94
284,137	14,96
284,674	14,34
285,211	8,63
285,747	18,98
286,284	12,28
286,82	14,54
287,356	16,15
287,892	13,33
288,428	12,88
288,964	9,39
289,5	17,01
290,035	19,42
290,571	10,45
291,106	14,91
291,641	9,58
292,176	18,8
292,711	21,03
293,246	10,47
293,781	17,47
294,315	9,93
294,85	18,98
295,384	23,33
295,918	16,03
296,453	15,55
296,987	14,83
297,52	13,01
298,054	12,5
298,588	16,93
299,121	13,19
299,655	11,93
300,188	14,45
300,721	24,48
301,254	14,23
301,787	12,2
302,32	16,29
302,853	16,72
303,385	17,95
303,918	17,19
304,45	12,36
304,982	9,16
305,514	20,66
306,046	14,04
306,578	18,21
307,11	14,5
307,641	16,36
308,173	12,27
308,704	19,16
309,236	18,73
309,767	12,92
310,298	13,94
310,829	18,25
311,359	16,37
311,89	14,95
312,421	13,41
312,951	14,91
313,481	19,68
314,012	24,18
314,542	16,44
315,072	20,36
315,601	19,22
316,131	13,5
316,661	15
317,19	16,73
317,72	24,18
318,249	19,26
318,778	17,87
319,307	18,92
319,836	16,78
320,365	18,24
320,893	18,09
321,422	19,4
321,95	4,44
322,479	20,07
323,007	9,78
323,535	14,72
324,063	20,15
324,591	14,33
325,118	14,34
325,646	15,38
326,173	18,57
326,701	9,09
327,228	19,17
327,755	12,19
328,282	8,3
328,809	16,3
329,336	16,96
329,862	18,85
330,389	15,02
330,915	15,25
331,441	11,53
331,968	13,06
332,494	10,37
333,02	6,93
333,545	17,33
334,071	16,67
334,597	18,92
335,122	8,03
335,648	19,41
336,173	15,84
336,698	9,93
337,223	22,18
337,748	8,07
338,272	13,2
338,797	15,21
339,322	13,62
339,846	14,84
340,37	11,36
340,894	18,84
341,419	11,41
341,942	9,4
342,466	10,58
342,99	10,77
343,514	6,82
344,037	13,11
344,56	7,84
345,084	8,83
345,607	14,29
346,13	16,31
346,653	9,75
347,175	13,87
347,698	12,5
348,221	13,95
348,743	13,99
349,265	14,29
349,787	7,43
350,309	14,88
350,831	10,45
351,353	14,02
351,875	15,45
352,397	14,33
352,918	15,54
353,439	18,7
353,961	7,89
354,482	10,11
355,003	14,48
355,524	14,8
356,044	11,61
356,565	15,21
357,086	8,14
357,606	8,92
358,126	14,6
358,646	9,7
359,167	14
359,687	11,79
360,206	11,33
360,726	11,92
361,246	14,94
361,765	13,38
362,285	13,98
362,804	12
363,323	9,4
363,842	15,48
364,361	8,87
364,88	15,82
365,398	8,61
365,917	11,5
366,435	12,45
366,954	9,62
367,472	8,74
367,99	15,2
368,508	15,23
369,026	11,63
369,544	10,91
370,061	14,06
370,579	10,13
371,096	13,32
371,613	13,76
372,131	12,68
372,648	14,26
373,165	12,13
373,681	13,66
374,198	12,13
374,715	12,33
375,231	8,27
375,747	13,55
376,264	12,3
376,78	12,28
377,296	13,13
377,812	10,68
378,327	8,59
378,843	13,74
379,359	12,61
379,874	11,89
380,389	13,48
380,905	13,13
381,42	11,23
381,935	10,93
382,449	11,69
382,964	12,67
383,479	11,37
383,993	10,1
384,508	10,42
385,022	10,27
385,536	9,17
386,05	11,15
386,564	9,76
387,078	10,68
387,592	12,29
388,105	9,44
388,619	9,73
389,132	9,98
389,645	12,1
390,158	8,57
390,671	9,97
391,184	8,94
391,697	8,84
392,21	10,73
392,722	9,42
393,235	8,51
393,747	8,3
394,259	10,23
394,771	7,92
395,283	7,4
395,795	8,7
396,307	7,98
396,818	7,26
397,33	7,18
397,841	7,59
398,353	7,3
398,864	7,45
399,375	7,28
399,886	8,33
400,397	7,62
400,907	7,89
401,418	7,6
401,928	7,41
402,439	7,91
402,949	7,29
403,459	6,69
403,969	7,64
404,479	6,99
404,989	6,24
405,498	6,32
406,008	6,3
406,517	5,39
407,027	6,18
407,536	6,06
408,045	5,07
408,554	5,04
409,063	5,06
409,572	4,55
410,08	5,54
410,589	3,92
411,097	4,55
411,606	5,05
412,114	4,57
412,622	4,46
413,13	5,01
413,638	4,28
414,145	4,04
414,653	3,79
415,16	3,65
415,668	3,57
416,175	3,85
416,682	3,9
417,189	3,34
417,696	3,46
418,203	3,4
418,71	3,32
419,216	3,33
419,723	3,67
420,229	3,27
420,735	3,23
421,242	3,41
421,748	3,44
422,254	3,13
422,759	3,36
423,265	3,38
423,771	3,05
424,276	3,51
424,781	3,48
425,287	3,43
425,792	3,39
426,297	3,41
426,802	2,75
427,306	3,3
427,811	3,12
428,316	3,4
428,82	3,37
429,324	3,18
429,829	3,36
430,333	2,77
430,837	2,81
431,34	3,09
431,844	2,95
432,348	3,02
432,851	2,81
433,355	2,87
433,858	2,93
434,361	2,94
434,864	3,01
435,367	2,68
435,87	2,79
436,373	3
436,876	2,81
437,378	2,96
437,88	3,11
438,383	3,04
438,885	2,88
439,387	2,68
439,889	2,99
440,391	3,14
440,892	2,94
441,394	2,97
441,896	3,19
442,397	2,8
442,898	2,8
443,399	3,13
443,9	3,12
444,401	2,84
444,902	2,86
445,403	2,77
445,903	3,09
446,404	2,95
446,904	3,05
447,405	3,03
447,905	3,04
448,405	3,24
448,905	3,01
449,404	3,14
449,904	3,06
450,404	2,84
450,903	2,87
451,403	3,12
451,902	3,19
452,401	2,77
452,9	3,13
453,399	3,1
453,898	3,25
454,396	2,85
454,895	3,09
455,393	2,81
455,892	2,82
456,39	3,24
456,888	2,82
457,386	3,22
457,884	3,32
458,382	3,07
458,879	3,09
459,377	3,02
459,874	3,19
460,372	3,03
460,869	2,89
461,366	3,13
461,863	3,07
462,36	3,11
462,857	2,95
463,353	3,12
463,85	3,16
464,346	3,05
464,843	2,99
465,339	3
465,835	3,06
466,331	2,97
466,827	3,11
467,323	2,94
467,818	3,26
468,314	3,14
468,809	3,06
469,305	3,11
469,8	3,18
470,295	3,2
470,79	3,14
471,285	3,15
471,78	2,89
472,274	3,08
472,769	3,08
473,263	2,92
473,758	3,12
474,252	2,98
474,746	3,22
475,24	2,9
475,734	3,15
476,228	3,2
476,721	3
477,215	3,09
477,708	3,23
478,202	3,31
478,695	3
479,188	2,83
479,681	3,13
480,174	3,05
480,667	3,31
481,159	2,84
481,652	3,16
482,144	3,25
482,637	3,22
483,129	3,12
483,621	3,14
484,113	3,29
484,605	3,21
485,097	3,12
485,588	3,14
486,08	3,35
486,571	3,15
487,063	3,34
487,554	3,14
488,045	3,34
488,536	3,14
489,027	3,3
489,518	3,27
490,008	3,23
490,499	3,21
490,989	3,48
491,48	3,13
491,97	3,48
492,46	3,33
492,95	3,6
493,44	3,26
493,93	3,38
494,419	3,32
494,909	3,51
495,398	3,36
495,888	3,37
496,377	3,43
496,866	3,54
497,355	3,57
497,844	3,52
498,333	3,63
498,821	3,63
499,31	3,52
499,798	3,54
500,287	3,59
500,775	3,68
501,263	3,56
501,751	3,57
502,239	3,78
502,727	3,9
503,215	3,91
503,702	3,87
504,19	3,9
504,677	3,85
505,164	4,01
505,651	4,03
506,139	3,94
506,625	4,02
507,112	3,99
507,599	4,06
508,086	4,38
508,572	4,17
509,058	4,31
509,545	4,33
510,031	4,72
510,517	4,59
511,003	4,6
511,489	4,65
511,974	4,67
512,46	4,79
512,946	4,95
513,431	4,81
513,916	5,02
514,401	5,04
514,887	5,26
515,371	5,38
515,856	5,54
516,341	5,37
516,826	5,64
517,31	5,84
517,795	5,8
518,279	5,86
518,763	6,03
519,247	6,08
519,731	6,3
520,215	6,32
520,699	6,5
521,182	6,63
521,666	6,57
522,149	7,05
522,633	6,9
523,116	7,08
523,599	7,24
524,082	7,19
524,565	7,43
525,048	7,5
525,53	7,69
526,013	7,59
526,495	7,89
526,978	7,85
527,46	8,03
527,942	7,98
528,424	8,38
528,906	8,32
529,388	8,33
529,87	8,38
530,351	8,53
530,833	8,63
531,314	8,73
531,795	8,67
532,277	8,97
532,758	8,83
533,238	9,17
533,719	9,02
534,2	9,08
534,681	9,25
535,161	9,23
535,642	9,22
536,122	9,19
536,602	9,37
537,082	9,37
537,562	9,5
538,042	9,32
538,522	9,43
539,001	9,37
539,481	9,54
539,96	9,53
540,44	9,6
540,919	9,42
541,398	9,54
541,877	9,58
542,356	9,72
542,835	9,72
543,313	9,7
543,792	9,73
544,27	9,64
544,749	9,71
545,227	9,77
545,705	9,77
546,183	9,74
546,661	9,82
547,139	9,71
547,616	9,56
548,094	9,89
548,571	9,92
549,049	9,57
549,526	10,03
550,003	10,08
550,48	10,01
550,957	9,82
551,434	9,87
551,911	9,83
552,387	9,97
552,864	9,89
553,34	9,94
553,817	10,05
554,293	9,89
554,769	10,09
555,245	9,94
555,721	9,84
556,197	10,07
556,672	9,89
557,148	9,9
557,623	9,77
558,099	9,7
558,574	9,84
559,049	9,77
559,524	9,79
559,999	9,63
560,474	9,73
560,948	9,61
561,423	9,78
561,897	9,85
562,372	9,68
562,846	9,74
563,32	9,66
563,794	9,43
564,268	9,28
564,742	9,38
565,216	9,17
565,69	9,21
566,163	9,29
566,636	9,14
567,11	9,01
567,583	9,08
568,056	8,91
568,529	8,94
569,002	8,78
569,475	8,88
569,947	8,81
570,42	8,74
570,892	8,63
571,365	8,63
571,837	8,5
572,309	8,35
572,781	8,27
573,253	8,15
573,725	8,11
574,197	8,19
574,668	8,14
575,14	8,07
575,611	7,8
576,082	7,96
576,554	7,92
577,025	7,82
577,496	7,78
577,967	7,73
578,437	7,84
578,908	7,67
579,379	7,65
579,849	7,38
580,319	7,45
580,79	7,31
581,26	7,4
581,73	7,47
582,2	7,33
582,669	7,3
583,139	7,18
583,609	7,12
584,078	7,03
584,548	7,05
585,017	7,03
585,486	6,89
585,955	7,09
586,424	6,95
586,893	6,85
587,362	6,98
587,83	6,81
588,299	6,96
588,767	6,82
589,236	6,71
589,704	6,85
590,172	6,8
590,64	6,71
591,108	6,6
591,576	6,55
592,043	6,76
592,511	6,72
592,978	6,64
593,446	6,52
593,913	6,64
594,38	6,48
594,847	6,58
595,314	6,52
595,781	6,42
596,248	6,29
596,715	6,4
597,181	6,32
597,647	6,43
598,114	6,53
598,58	6,52
599,046	6,3
599,512	6,34
599,978	6,44
600,444	6,42
600,91	6,38
601,375	6,36
601,841	6,19
602,306	6,36
602,771	6,38
603,236	6,24
603,702	6,21
604,167	6,13
604,631	6,23
605,096	6,19
605,561	6,29
606,025	6,06
606,49	6,07
606,954	6,09
607,418	5,99
607,882	5,92
608,347	5,97
608,81	5,97
609,274	6
609,738	5,94
610,202	5,91
610,665	5,77
611,128	5,96
611,592	5,89
612,055	5,77
612,518	5,66
612,981	5,61
613,444	5,62
613,907	5,49
614,369	5,53
614,832	5,54
615,294	5,51
615,757	5,45
616,219	5,4
616,681	5,41
617,143	5,39
617,605	5,34
618,067	5,26
618,529	5,32
618,99	5,22
619,452	5,34
619,913	5,36
620,375	5,16
620,836	5,14
621,297	5,12
621,758	5,14
622,219	5,13
622,68	5,07
623,14	5,04
623,601	5,06
624,061	5,04
624,522	5,03
624,982	5,05
625,442	5
625,902	5,13
626,362	5
626,822	5,06
627,282	5
627,742	4,92
628,201	4,96
628,661	4,97
629,12	4,92
629,579	4,89
630,038	5
630,497	4,94
630,956	4,89
631,415	4,94
631,874	4,96
632,332	4,98
632,791	4,91
633,249	4,77
633,708	4,89
634,166	4,76
634,624	4,8
635,082	4,79
635,54	4,83
635,998	4,75
636,455	4,8
636,913	4,8
637,37	4,66
637,828	4,71
638,285	4,62
638,742	4,63
639,199	4,51
639,656	4,51
640,113	4,42
640,57	4,44
641,027	4,47
641,483	4,37
641,94	4,36
642,396	4,34
642,852	4,3
643,309	4,31
643,765	4,15
644,221	4,14
644,676	4,18
645,132	4,2
645,588	4,12
646,043	4,06
646,499	4,04
646,954	3,96
647,409	3,96
647,864	3,94
648,319	3,93
648,774	3,87
649,229	3,86
649,684	3,88
650,139	3,83
650,593	3,79
651,047	3,82
651,502	3,76
651,956	3,76
652,41	3,75
652,864	3,75
653,318	3,75
653,772	3,7
654,225	3,64
654,679	3,64
655,133	3,7
655,586	3,64
656,039	3,64
656,492	3,6
656,946	3,58
657,399	3,56
657,851	3,56
658,304	3,5
658,757	3,58
659,209	3,47
659,662	3,52
660,114	3,43
660,567	3,38
661,019	3,37
661,471	3,4
661,923	3,36
662,375	3,33
662,826	3,35
663,278	3,34
663,73	3,35
664,181	3,28
664,632	3,35
665,084	3,33
665,535	3,35
665,986	3,3
666,437	3,27
666,888	3,31
667,338	3,22
667,789	3,32
668,24	3,25
668,69	3,23
669,14	3,29
669,591	3,32
670,041	3,27
670,491	3,25
670,941	3,32
671,391	3,37
671,84	3,35
672,29	3,3
672,74	3,34
673,189	3,33
673,638	3,41
674,088	3,48
674,537	3,44
674,986	3,57
675,435	3,52
675,883	3,53
676,332	3,53
676,781	3,55
677,229	3,56
677,678	3,73
678,126	3,75
678,574	3,76
679,022	3,81
679,47	3,83
679,918	3,82
680,366	3,9
680,814	3,92
681,261	3,91
681,709	3,95
682,156	3,99
682,604	4,05
683,051	4,03
683,498	4,05
683,945	4,05
684,392	4,18
684,839	4,22
685,286	4,22
685,732	4,27
686,179	4,21
686,625	4,28
687,071	4,35
687,518	4,43
687,964	4,39
688,41	4,49
688,856	4,6
689,301	4,56
689,747	4,67
690,193	4,73
690,638	4,77
691,084	4,94
691,529	5,1
691,974	5,11
692,419	5,32
692,864	5,41
693,309	5,61
693,754	5,73
694,199	5,91
694,643	6,06
695,088	6,28
695,532	6,44
695,977	6,69
696,421	6,77
696,865	7,05
697,309	7,25
697,753	7,49
698,197	7,65
698,64	7,88
699,084	8,11
699,527	8,29
699,971	8,45
700,414	8,85
700,857	8,94
701,3	9,09
701,743	9,2
702,186	9,71
702,629	9,77
703,072	9,9
703,515	10,18
703,957	10,31
704,399	10,61
704,842	10,84
705,284	11,01
705,726	11,15
706,168	11,37
706,61	11,49
707,052	11,74
707,494	11,97
707,935	12,15
708,377	12,35
708,818	12,52
709,26	12,66
709,701	12,76
710,142	12,98
710,583	12,99
711,024	13,38
711,465	13,41
711,905	13,73
712,346	13,71
712,787	13,99
713,227	14,18
713,667	14,36
714,108	14,44
714,548	14,61
714,988	14,76
715,428	15,01
715,868	14,95
716,307	15,23
716,747	15,53
717,186	15,58
717,626	15,58
718,065	15,86
718,504	15,78
718,944	16,06
719,383	16,2
719,822	16,43
720,261	16,6
720,699	16,56
721,138	16,67
721,576	16,88
722,015	16,95
722,453	17,05
722,892	17,02
723,33	17,24
723,768	17,36
724,206	17,41
724,644	17,51
725,081	17,68
725,519	17,6
725,957	17,65
726,394	17,87
726,832	17,92
727,269	18
727,706	18,14
728,143	18,11
728,58	18,49
729,017	18,36
729,454	18,28
729,89	18,31
730,327	18,46
730,764	18,56
731,2	18,57
731,636	18,55
732,072	18,62
732,509	18,8
732,945	18,85
733,38	18,89
733,816	18,68
734,252	18,81
734,688	18,9
735,123	18,92
735,559	19,06
735,994	18,99
736,429	19,22
736,864	19,11
737,299	19,01
737,734	19,18
738,169	19,27
738,604	19,18
739,038	19,38
739,473	19,28
739,907	19,34
740,342	19,43
740,776	19,32
741,21	19,3
741,644	19,29
742,078	19,23
742,512	19,56
742,946	19,24
743,379	19,22
743,813	19,4
744,246	19,26
744,68	19,42
745,113	19,37
745,546	19,38
745,979	19,42
746,412	19,35
746,845	19,28
747,278	19,22
747,711	19,28
748,143	19,34
748,576	19,38
749,008	19,35
749,441	19,3
749,873	19,26
750,305	19,27
750,737	19,17
751,169	19,07
751,601	19,39
752,032	19,22
752,464	19,05
752,896	19,32
753,327	19,28
753,758	19,33
754,19	19,34
754,621	19,02
755,052	19,08
755,483	19,08
755,914	19,19
756,344	19,13
756,775	19,16
757,206	19,07
757,636	19,01
758,066	19,18
758,497	19,15
758,927	19,18
759,357	19
759,787	19,02
760,217	19,09
760,647	19,1
761,076	19,05
761,506	19,11
761,935	19,11
762,365	18,95
762,794	19,04
763,223	19,02
763,653	19
764,082	18,9
764,51	19,05
764,939	18,86
765,368	18,81
765,797	18,7
766,225	18,9
766,654	18,86
767,082	19,13
767,51	18,72
767,938	18,81
768,367	18,87
768,795	18,65
769,222	18,79
769,65	18,91
770,078	18,85
770,505	18,6
770,933	18,88
771,36	18,6
771,788	18,8
772,215	18,89
772,642	18,8
773,069	18,8
773,496	18,67
773,923	18,7
774,349	18,71
774,776	18,62
775,203	18,69
775,629	18,61
776,055	18,63
776,482	18,67
776,908	18,55
777,334	18,52
777,76	18,66
778,186	18,71
778,611	18,58
779,037	18,64
779,463	18,58
779,888	18,59
780,314	18,69
780,739	18,54
781,164	18,45
781,589	18,53
782,014	18,63
782,439	18,45
782,864	18,52
783,289	18,62
783,713	18,57
784,138	18,57
784,562	18,62
784,987	18,39
785,411	18,53
785,835	18,43
786,259	18,38
786,683	18,52
787,107	18,48
787,531	18,52
787,954	18,5
788,378	18,48
788,802	18,61
789,225	18,27
789,648	18,56
790,071	18,36
790,495	18,51
790,918	18,36
791,34	18,5
791,763	18,4
792,186	18,37
792,609	18,47
793,031	18,46
793,454	18,32
793,876	18,36
794,298	18,29
794,721	18,36
795,143	18,4
795,565	18,26
795,986	18,4
796,408	18,28
796,83	18,33
797,252	18,39
797,673	18,44
798,094	18,43
798,516	18,38
798,937	18,4
799,358	18,39
799,779	18,4
800,2	18,31
800,621	18,18
801,042	18,49
801,462	18,47
801,883	18,28
802,303	18,33
802,724	18,37
803,144	18,32
803,564	18,27
803,984	18,38
804,404	18,32
804,824	18,56
805,244	18,28
805,664	18,43
806,084	18,17
806,503	18,2
806,923	18,29
807,342	18,21
807,761	18,26
808,18	18,3
808,599	18,28
809,018	18,37
809,437	18,24
809,856	18,38
810,275	18,22
810,693	18,25
811,112	18,49
811,53	18,28
811,949	18,21
812,367	18,27
812,785	18,12
813,203	18,15
813,621	18,18
814,039	18,14
814,457	18,33
814,874	18,2
815,292	18,36
815,709	18,34
816,127	18,09
816,544	18,3
816,961	18,28
817,378	18,15
817,795	18,15
818,212	18,35
818,629	18,24
819,046	18,34
819,462	18,14
819,879	18,34
820,295	18,08
820,712	18,22
821,128	18,41
821,544	18,25
821,96	18,4
822,376	18,22
822,792	18,26
823,208	18,21
823,624	18,17
824,039	18,25
824,455	18,4
824,87	18,29
825,286	18,27
825,701	18,26
826,116	18,27
826,531	18,18
826,946	18,2
827,361	18,23
827,776	18,16
828,19	18,13
828,605	18,21
829,02	18,11
829,434	18,19
829,848	18,04
830,263	18,09
830,677	17,97
831,091	18,3
831,505	18,2
831,919	18,27
832,332	18,21
832,746	18,19
833,16	18,14
833,573	18,13
833,987	18,11
834,4	18,31
834,813	18,12
835,226	18,27
835,639	18,12
836,052	18,13
836,465	17,94
836,878	18,22
837,29	18,17
837,703	18,17
838,116	18,1
838,528	17,96
838,94	18,14
839,352	18,32
839,765	18,19
840,177	18,04
840,589	18,12
841	18,07
841,412	18,28
841,824	18,09
842,235	18,2
842,647	17,9
843,058	18,08
843,47	18,15
843,881	17,97
844,292	18,16
844,703	18,03
845,114	18,24
845,525	18,03
845,935	18,05
846,346	17,98
846,757	17,95
847,167	17,97
847,577	18,08
847,988	18,18
848,398	18,06
848,808	18,04
849,218	18,04
849,628	18,03
850,038	17,96
850,448	17,9
850,857	18,2
851,267	18,17
851,676	18,16
852,086	18,09
852,495	18
852,904	18,17
853,313	18,08
853,722	18,07
854,131	18,01
854,54	18
854,949	18,11
855,357	17,92
855,766	17,94
856,174	17,98
856,583	18,06
856,991	17,97
857,399	18,15
857,807	17,93
858,215	18,04
858,623	17,95
859,031	18,03
859,439	18
859,846	18,05
860,254	17,99
860,661	18,1
861,069	18,06
861,476	17,95
861,883	18,01
862,29	17,9
862,697	18,3
863,104	17,89
863,511	18,09
863,918	18,01
864,325	17,85
864,731	17,96
865,138	18,02
865,544	17,88
865,95	18,13
866,357	18,15
866,763	17,93
867,169	17,75
867,575	17,91
867,98	17,94
868,386	17,91
868,792	18,03
869,197	17,76
869,603	17,85
870,008	17,95
870,414	17,88
870,819	17,79
871,224	17,81
871,629	17,84
872,034	17,96
872,439	18,13
872,844	17,93
873,248	17,84
873,653	17,86
874,057	17,98
874,462	17,83
874,866	17,97
875,27	18,02
875,674	18,01
876,078	18,1
876,482	17,99
876,886	17,83
877,29	17,81
877,694	18,04
878,097	18,01
878,501	18,02
878,904	18,03
879,308	17,92
879,711	18,06
880,114	17,97
880,517	17,86
880,92	17,94
881,323	17,9
881,726	18,02
882,128	17,94
882,531	17,87
882,934	18,05
883,336	17,9
883,738	17,77
884,141	17,84
884,543	17,87
884,945	17,93
885,347	17,93
885,749	17,86
886,151	18,01
886,552	18,04
886,954	17,9
887,355	17,96
887,757	17,86
888,158	17,96
888,56	17,87
888,961	17,92
889,362	17,94
889,763	17,87
890,164	17,81
890,565	17,73
890,965	17,91
891,366	17,94
891,767	17,96
892,167	17,9
892,567	17,85
892,968	18,11
893,368	17,99
893,768	17,79
894,168	17,81
894,568	17,89
894,968	17,95
895,368	17,75
895,767	17,88
896,167	17,83
896,566	17,62
896,966	18
897,365	18,03
897,764	17,7
898,164	17,97
898,563	17,9
898,962	17,86
899,361	17,78
899,759	17,88
900,158	17,69
900,557	17,95
900,955	17,8
901,354	18,04
901,752	17,85
902,15	17,99
902,548	17,95
902,947	17,82
903,345	17,98
903,742	17,87
904,14	18,01
904,538	17,88
904,936	17,91
905,333	17,77
905,731	17,98
906,128	17,87
906,525	17,94
906,923	18
907,32	17,87
907,717	17,87
908,114	17,83
908,511	17,97
908,907	17,92
909,304	18
909,701	17,77
910,097	17,83
910,494	18,09
910,89	17,84
911,286	17,94
911,682	17,76
912,078	17,72
912,474	17,77
912,87	17,84
913,266	17,88
913,662	17,78
914,058	17,77
914,453	18,12
914,849	17,78
915,244	17,73
915,639	17,85
916,034	17,83
916,43	17,7
916,825	17,73
917,22	17,84
917,614	17,91
918,009	17,86
918,404	17,99
918,798	18,01
919,193	17,76
919,587	17,87
919,982	17,54
920,376	17,85
920,77	17,93
921,164	18,03
921,558	17,88
921,952	17,65
922,346	17,71
922,74	17,77
923,133	17,86
923,527	17,87
923,92	17,7
924,314	17,87
924,707	17,86
925,1	17,91
925,493	17,88
925,886	17,77
926,279	17,81
926,672	17,77
927,065	17,55
927,457	17,89
927,85	17,74
928,243	17,71
928,635	17,87
929,027	17,81
929,42	17,84
929,812	17,87
930,204	17,95
930,596	17,55
930,988	17,71
931,379	17,78
931,771	17,72
932,163	17,58
932,554	17,62
932,946	17,81
933,337	17,73
933,729	17,76
934,12	17,52
934,511	17,8
934,902	17,71
935,293	17,48
935,684	17,68
936,075	17,86
936,465	17,77
936,856	17,42
937,246	17,77
937,637	17,65
938,027	17,81
938,417	17,62
938,808	17,61
939,198	17,46
939,588	17,73
939,978	17,7
940,368	17,7
940,757	17,9
941,147	17,47
941,537	17,9
941,926	17,26
942,315	17,44
942,705	17,33
943,094	17,83
943,483	17,39
943,872	17,92
944,261	17,42
944,65	17,22
945,039	17,71
945,428	17,92
945,816	17,56
946,205	17,59
946,593	17,72
946,982	17,69
947,37	17,21
947,758	17,79
948,146	17,52
948,534	17,21
948,922	17,34
949,31	17,59
949,698	17,43
950,086	17,36
950,473	17,28
950,861	17,37
951,248	17,46
951,636	17,51
952,023	17,61
952,41	17,13
952,797	17,3
953,184	17,46
953,571	17,32
953,958	17,37
954,345	16,93
954,731	16,99
955,118	17,04
955,505	17,3
955,891	17,36
956,277	17,13
956,664	17,57
957,05	17,27
957,436	17,18
957,822	17,25
958,208	17,29
958,594	17,05
958,979	16,81
959,365	17,28
959,751	17,41
960,136	17,18
960,522	17,19
960,907	17,27
961,292	17,32
961,677	17,42
962,062	17,25
962,447	17,16
962,832	17,22
963,217	17,49
963,602	17,17
963,986	16,78
964,371	17,17
964,756	17,21
965,14	17,21
965,524	17,3
965,908	17,18
966,293	17,2
966,677	17,38
967,061	17,06
967,445	17,24
967,828	17,13
968,212	17,54
968,596	16,89
968,979	17,05
969,363	17,47
969,746	17,21
970,129	17,32
970,513	17,26
970,896	17,47
971,279	17,33
971,662	16,77
972,045	17,19
972,428	16,71
972,81	17,08
973,193	17,18
973,575	17,2
973,958	17,04
974,34	17,42
974,723	17,43
975,105	17,06
975,487	17,23
975,869	17,11
976,251	17,42
976,633	17,09
977,015	17,19
977,396	17,53
977,778	17,46
978,16	17,35
978,541	17,12
978,922	17,21
979,304	17,22
979,685	17,12
980,066	17,4
980,447	17,59
980,828	17,14
981,209	17,29
981,59	17,2
981,97	17,35
982,351	17,13
982,732	17,39
983,112	17,41
983,493	17,19
983,873	17,17
984,253	17,4
984,633	17,25
985,013	17,57
985,393	17,43
985,773	17,13
986,153	17,09
986,533	17,23
986,912	17,35
987,292	17,17
987,671	17,26
988,051	17,05
988,43	17,36
988,809	17,2
989,188	16,98
989,567	17,23
989,946	17,22
990,325	17,25
990,704	17,3
991,083	17
991,461	17,44
991,84	17,42
992,218	17,12
992,597	17,28
992,975	17,31
993,353	17,24
993,732	16,98
994,11	17,35
994,488	17,5
994,866	17,29
995,243	17,42
995,621	17,21
995,999	17,13
996,376	17,47
996,754	17,41
997,131	17,76
997,509	17,58
997,886	17,38
998,263	17,35
998,64	17,08
999,017	17,15
999,394	17,57
999,771	17,39
1000,148	17,45
1000,524	17,35
1000,901	17,32
1001,277	17,42
1001,654	17,36
1002,03	17,12
1002,406	17,42
1002,783	17,24
1003,159	17,67
1003,535	17,35
1003,911	17,63
1004,286	17,51
1004,662	17,38
1005,038	17,44
1005,414	17,13
1005,789	17,34
1006,164	17,65
1006,54	17,67
1006,915	17,24
1007,29	17,57
1007,665	17,81
1008,04	17,14
1008,415	17,5
1008,79	17,57
1009,165	17,62
1009,54	17,37
1009,914	17,36
1010,289	17,51
1010,663	17,43
1011,038	17,32
1011,412	17,49
1011,786	17,26
1012,16	17,53
1012,535	17,46
1012,909	17,6
1013,282	17,57
1013,656	17,35
1014,03	17,6
1014,404	17,47
1014,777	17,6
1015,151	17,5
1015,524	17,36
1015,897	17,89
1016,271	17,24
1016,644	17,32
1017,017	17,28
1017,39	17,34
1017,763	17,65
1018,136	17,61
1018,508	17,61
1018,881	17,16
1019,254	17,67
1019,626	17,49
1019,999	17,7
1020,371	17,37
1020,743	17,41
1021,116	17,66
1021,488	17,48
1021,86	17,88
1022,232	17,61
1022,604	17,41
1022,975	17,49
1023,347	17,42
1023,719	17,4
1024,09	17,51
1024,462	17,62
1024,833	17,61
1025,204	17,31
1025,576	17,49
1025,947	17,48
1026,318	17,32
1026,689	17,55
1027,06	17,56
1027,431	17,51
1027,801	17,64
1028,172	17,73
1028,543	17,69
1028,913	17,83
1029,284	17,35
1029,654	17,09
1030,024	17,51
1030,394	17,78
1030,764	17,82
1031,135	17,78
1031,504	17,53
1031,874	17,09
1032,244	17,75
1032,614	17,27
1032,983	17,61
1033,353	17,21
1033,722	17,32
1034,092	17,59
1034,461	17,01
1034,83	17,01
1035,2	17,51
1035,569	17,18
1035,938	17,73
1036,307	17,34
1036,675	17,54
1037,044	17,81
1037,413	17,21
1037,781	17,52
1038,15	17,78
1038,518	17,45
1038,887	17,58
1039,255	16,95
1039,623	17,86
1039,991	17,3
1040,359	17,13
1040,727	17,43
1041,095	17,45
1041,463	17,72
1041,831	17,11
1042,198	17,95
1042,566	17,27
1042,933	17,85
1043,301	17,13
1043,668	17,63
1044,035	17,45
1044,402	17,66
1044,77	17,81
1045,137	17,63
1045,503	17,73
1045,87	17,79
1046,237	16,96
1046,604	17,71
1046,97	17,97
1047,337	17,52
1047,703	17,53
1048,07	17,48
1048,436	17,69
1048,802	17,61
1049,168	18,07
1049,534	17,57
1049,9	17,41
1050,266	18,43
1050,632	18,41
1050,998	17,74
1051,364	18,12
1051,729	17,8
1052,095	17,23
1052,46	17,23
1052,825	17,58
1053,191	17,42
1053,556	17,41
1053,921	17,48
1054,286	17,38
1054,651	17,51
1055,016	17,53
1055,381	17,33
1055,745	18,16
1056,11	17,73
1056,475	17,59
1056,839	18,08
1057,203	17,98
1057,568	17,1
1057,932	17,8
1058,296	17,71
1058,66	17,2
1059,024	18,32
1059,388	17,7
1059,752	17,68
1060,116	17,8
1060,48	18,11
1060,843	17,43
1061,207	17,5
1061,57	17,67
1061,934	18,24
1062,297	17,85
1062,66	17,58
1063,023	18,16
1063,386	17,63
1063,749	17,33
1064,112	17,3
1064,475	18,2
1064,838	17,77
1065,201	18,12
1065,563	18,25
1065,926	17,01
1066,288	17,63
1066,651	17,58
1067,013	17,16
1067,375	17,12
1067,737	16,73
1068,099	18,03
1068,461	17,78
1068,823	17,64
1069,185	17,54
1069,547	17,62
1069,909	17,7
1070,27	17,61
1070,632	17,19
1070,993	16,95
1071,355	16,66
1071,716	17,76
1072,077	17,74
1072,438	17,92
1072,799	17,94
1073,16	17,92
1073,521	17,6
1073,882	17,18
1074,243	17,69
1074,603	16,78
1074,964	17,3
1075,325	18,05
1075,685	17,52
1076,045	17,84
1076,406	17,62
1076,766	17,6
1077,126	17,65
1077,486	17,51
1077,846	17,54
1078,206	17,4
1078,566	17,98
1078,925	17,74
1079,285	17,56
1079,645	17,54
1080,004	17,21
1080,364	17,34
1080,723	16,62
1081,082	17,25
1081,442	16,62
1081,801	17,74
1082,16	18,66
1082,519	18,58
1082,878	17,87
1083,237	16,63
1083,595	17,52
1083,954	18,4
1084,313	18,08
1084,671	18,5
1085,03	17,24
1085,388	17,28
1085,746	18,22
1086,104	16,79
1086,463	17,18
1086,821	16,96
1087,179	18,34
1087,537	17,99
1087,894	17,69
1088,252	16,99
1088,61	17,85
1088,967	17,38
1089,325	17,49
1089,682	16,78
1090,04	17,34
1090,397	17,29
1090,754	17,95
1091,111	17,86
1091,469	17,07
1091,826	18,11
1092,182	17,83
1092,539	16,71
1092,896	16,51
1093,253	17,4
1093,609	17,95
1093,966	17,35
1094,322	17,53
1094,679	16,9
1095,035	17,51
1095,391	17,59
1095,748	17,29
1096,104	18,53
1096,46	18,62
1096,816	17,29
1097,171	16,88
1097,527	16,83
1097,883	17,49
1098,239	19,12
1098,594	18,01
1098,95	16,94
1099,305	17,57
1099,66	18,46
1100,016	18,12
1100,371	17,38
1100,726	18,26
1101,081	16,92
1101,436	17,34
1101,791	16,79
1102,146	16,28
1102,5	18,02
1102,855	16,48
1103,21	18,63
1103,564	18,5
1103,918	18,79
1104,273	17,55
1104,627	18,86
1104,981	17,32
1105,335	17,78
1105,69	16,71
1106,043	18,09
1106,397	17,68
1106,751	18,16
1107,105	19,07
1107,459	17,72
1107,812	16,9
1108,166	17,57
1108,519	17,8
1108,873	18,4
1109,226	16,57
1109,579	17,64
1109,932	18,04
1110,285	18,12
1110,638	16,06
1110,991	18,23
1111,344	17,8
1111,697	17,14
1112,05	15,37
1112,402	17,96
1112,755	17,49
1113,107	18,66
1113,46	15,33
1113,812	18,93
1114,164	16,77
1114,517	16,48
1114,869	21,37
1115,221	18,55
1115,573	16,04
1115,924	26,28
