Data from B_1__Relative__7__00024.txt Node

Date: Mon Jan 29 18:08:01 CET 2024
User: diatiterra
Spectrometer: HDX00911
Trigger mode: 0
Integration Time (sec): 6,000000E-3
Scans to average: 2
Nonlinearity correction enabled: false
Boxcar width: 0
Storing dark spectrum: false
XAxis mode: Wavelengths
Number of Pixels in Spectrum: 2068
>>>>>Begin Spectral Data<<<<<
194,468	47,06
195,025	36,28
195,581	39,36
196,138	33,08
196,694	31,61
197,251	24
197,807	27,2
198,363	24,73
198,919	23,13
199,474	26,43
200,03	20,59
200,586	26,19
201,141	25,47
201,696	29,76
202,251	25,09
202,806	28,95
203,361	23,51
203,916	34,59
204,471	25,7
205,025	22,86
205,58	21,15
206,134	21,48
206,688	23,91
207,242	29,59
207,796	29,49
208,35	25,27
208,904	20
209,457	24,91
210,011	28,67
210,564	31,94
211,117	22,89
211,67	23,24
212,223	25,34
212,776	28,84
213,329	25,77
213,881	26,07
214,434	23,45
214,986	20,2
215,538	27,84
216,09	24,59
216,642	28,52
217,194	21,52
217,746	28,96
218,297	24,16
218,849	22,74
219,4	31,12
219,951	31,27
220,502	27,53
221,053	24,76
221,604	35,91
222,155	25,93
222,705	30,77
223,256	28,78
223,806	29,25
224,356	23,55
224,906	25,19
225,456	24,48
226,006	22,48
226,556	29,2
227,106	29,72
227,655	22,3
228,204	31,58
228,754	23,45
229,303	28,47
229,852	31,05
230,401	22,94
230,949	35,8
231,498	28,36
232,047	27,61
232,595	23,76
233,143	26,89
233,691	23,6
234,239	16,04
234,787	19,23
235,335	28,23
235,883	26,16
236,43	31,85
236,978	30,55
237,525	30,97
238,072	26,57
238,619	20,21
239,166	26,26
239,713	29
240,26	27,34
240,806	21,28
241,353	31,1
241,899	26,86
242,445	28,32
242,991	32,75
243,537	31,02
244,083	28,36
244,629	30,41
245,174	33,58
245,72	30,43
246,265	33,92
246,81	32,12
247,355	27,57
247,9	28,72
248,445	35,17
248,99	28,37
249,534	28,48
250,079	32,09
250,623	29,49
251,168	25,84
251,712	37,94
252,256	32,23
252,8	34,03
253,343	28,98
253,887	32,99
254,43	26,02
254,974	32,17
255,517	35,23
256,06	26,37
256,603	26,79
257,146	33
257,689	31,01
258,232	32,18
258,774	35,79
259,317	29,3
259,859	26,94
260,401	32,2
260,943	28,73
261,485	38,65
262,027	29,66
262,569	33,08
263,11	37,18
263,652	29,41
264,193	32,86
264,734	30,56
265,275	30,52
265,816	28,06
266,357	32,37
266,898	26,62
267,438	26,27
267,979	27,27
268,519	25,63
269,059	26,6
269,6	34,39
270,14	26,4
270,68	32,18
271,219	34,74
271,759	30,22
272,298	18,55
272,838	20,16
273,377	28,52
273,916	20,22
274,455	27,97
274,994	20,86
275,533	26,28
276,072	22,56
276,61	25,26
277,149	17,75
277,687	32,74
278,225	27,74
278,763	25
279,301	28,3
279,839	28,99
280,377	22,99
280,914	28,94
281,452	36,18
281,989	30,38
282,526	31,18
283,064	33,68
283,601	34,47
284,137	27,01
284,674	34,72
285,211	24,1
285,747	26,1
286,284	24,91
286,82	26,95
287,356	29,9
287,892	32,63
288,428	28,14
288,964	26,71
289,5	34,69
290,035	31,29
290,571	22,76
291,106	20,36
291,641	23,75
292,176	31,2
292,711	27,24
293,246	23,83
293,781	21,56
294,315	30,88
294,85	29,2
295,384	31,11
295,918	29,97
296,453	25,8
296,987	27,24
297,52	28,08
298,054	23,53
298,588	24,41
299,121	26,74
299,655	23,86
300,188	26,62
300,721	27,59
301,254	29,89
301,787	17,89
302,32	31,06
302,853	21,95
303,385	28,94
303,918	21,05
304,45	34,36
304,982	28,29
305,514	30,26
306,046	24,56
306,578	32,5
307,11	24,16
307,641	26,18
308,173	15,61
308,704	25,29
309,236	20,97
309,767	26,25
310,298	27,18
310,829	27,76
311,359	32,38
311,89	25,62
312,421	28,99
312,951	29,45
313,481	28,92
314,012	28,57
314,542	20,89
315,072	23,64
315,601	25,98
316,131	21,9
316,661	27,5
317,19	28,11
317,72	26,37
318,249	23,31
318,778	30,04
319,307	25,68
319,836	29,53
320,365	23,45
320,893	31,91
321,422	30,22
321,95	20
322,479	29,76
323,007	30,07
323,535	34,72
324,063	29,48
324,591	20,67
325,118	26,22
325,646	27,69
326,173	35,36
326,701	24
327,228	29,39
327,755	30,82
328,282	24,15
328,809	23,33
329,336	23,18
329,862	28,85
330,389	24,23
330,915	29,43
331,441	25,76
331,968	19,59
332,494	20,07
333,02	22,63
333,545	16,61
334,071	24,67
334,597	25,68
335,122	18,73
335,648	26,01
336,173	24,09
336,698	21,23
337,223	30,72
337,748	19,65
338,272	23,43
338,797	22,33
339,322	14,62
339,846	19,53
340,37	19,05
340,894	22,6
341,419	20,13
341,942	18,79
342,466	21,5
342,99	20,62
343,514	20,45
344,037	14,1
344,56	20,06
345,084	13,56
345,607	20,36
346,13	18,15
346,653	19,18
347,175	23,87
347,698	15,48
348,221	18,6
348,743	20,12
349,265	23,21
349,787	20,29
350,309	21,76
350,831	18,81
351,353	22,75
351,875	17,42
352,397	22,87
352,918	17,23
353,439	24,66
353,961	22,54
354,482	20,51
355,003	17,69
355,524	18,88
356,044	22,43
356,565	16,46
357,086	14,76
357,606	19,52
358,126	19,71
358,646	17,41
359,167	20,88
359,687	17,92
360,206	14,94
360,726	18,41
361,246	17,83
361,765	17,98
362,285	17,06
362,804	17,11
363,323	12,39
363,842	19,05
364,361	14,94
364,88	19,41
365,398	16,56
365,917	19,92
366,435	15,67
366,954	14,83
367,472	15,35
367,99	15,4
368,508	17,19
369,026	12,02
369,544	17,09
370,061	16,17
370,579	13,32
371,096	13,5
371,613	18,53
372,131	18,13
372,648	15,88
373,165	17,16
373,681	14,89
374,198	12,62
374,715	17,01
375,231	11,76
375,747	15,21
376,264	15,02
376,78	12,44
377,296	13,92
377,812	12,31
378,327	15,11
378,843	16,1
379,359	12,46
379,874	14,62
380,389	15,82
380,905	14,32
381,42	13,32
381,935	12,8
382,449	13,72
382,964	14,01
383,479	14,81
383,993	13,82
384,508	14,99
385,022	11,09
385,536	12,86
386,05	13,36
386,564	10,07
387,078	10,47
387,592	10,83
388,105	12,29
388,619	10,82
389,132	11,41
389,645	13,41
390,158	11,46
390,671	13,06
391,184	9,98
391,697	11,29
392,21	11,4
392,722	10,31
393,235	12,19
393,747	8,9
394,259	11,19
394,771	9,49
395,283	8,84
395,795	9,32
396,307	8,52
396,818	9,46
397,33	7,25
397,841	9,41
398,353	7,9
398,864	8,09
399,375	8,05
399,886	8,8
400,397	7,69
400,907	8,18
401,418	6,68
401,928	6,84
402,439	7,21
402,949	7,29
403,459	7,69
403,969	7,26
404,479	6,72
404,989	6,03
405,498	6,9
406,008	4,99
406,517	6,32
407,027	5,65
407,536	6,19
408,045	5,07
408,554	5,76
409,063	5,06
409,572	4,99
410,08	4,6
410,589	4,8
411,097	4,75
411,606	4,92
412,114	4,38
412,622	4,58
413,13	4,49
413,638	3,84
414,145	3,28
414,653	4
415,16	3,77
415,668	3,67
416,175	3,71
416,682	3,65
417,189	3,52
417,696	3,51
418,203	3,76
418,71	2,94
419,216	3,62
419,723	2,9
420,229	2,91
420,735	3,5
421,242	3,1
421,748	3,3
422,254	2,55
422,759	2,99
423,265	2,7
423,771	2,58
424,276	2,92
424,781	3,12
425,287	2,93
425,792	2,79
426,297	3,1
426,802	2,73
427,306	2,89
427,811	2,57
428,316	2,86
428,82	2,78
429,324	2,74
429,829	2,89
430,333	2,72
430,837	2,64
431,34	2,38
431,844	2,54
432,348	2,45
432,851	2,88
433,355	2,36
433,858	2,73
434,361	2,55
434,864	2,64
435,367	2,46
435,87	2,64
436,373	2,75
436,876	2,31
437,378	2,35
437,88	2,4
438,383	2,31
438,885	2,56
439,387	2,26
439,889	2,38
440,391	2,75
440,892	2,67
441,394	2,35
441,896	2,58
442,397	2,25
442,898	2,49
443,399	2,7
443,9	2,55
444,401	2,8
444,902	2,56
445,403	2,32
445,903	2,48
446,404	2,74
446,904	2,36
447,405	2,39
447,905	2,57
448,405	2,61
448,905	2,35
449,404	2,37
449,904	2,58
450,404	2,45
450,903	2,35
451,403	2,6
451,902	2,52
452,401	2,54
452,9	2,72
453,399	2,67
453,898	2,41
454,396	2,51
454,895	2,57
455,393	2,45
455,892	2,52
456,39	2,7
456,888	2,34
457,386	2,48
457,884	2,67
458,382	2,6
458,879	2,58
459,377	2,62
459,874	2,59
460,372	2,34
460,869	2,74
461,366	2,37
461,863	2,49
462,36	2,5
462,857	2,44
463,353	2,45
463,85	2,42
464,346	2,53
464,843	2,58
465,339	2,45
465,835	2,63
466,331	2,36
466,827	2,39
467,323	2,6
467,818	2,44
468,314	2,61
468,809	2,42
469,305	2,48
469,8	2,65
470,295	2,65
470,79	2,81
471,285	2,69
471,78	2,3
472,274	2,43
472,769	2,39
473,263	2,6
473,758	2,87
474,252	2,36
474,746	2,6
475,24	2,45
475,734	2,66
476,228	2,49
476,721	2,53
477,215	2,4
477,708	2,55
478,202	2,6
478,695	2,38
479,188	2,42
479,681	2,53
480,174	2,43
480,667	2,41
481,159	2,59
481,652	2,76
482,144	2,32
482,637	2,6
483,129	2,71
483,621	2,51
484,113	2,75
484,605	2,54
485,097	2,46
485,588	2,57
486,08	2,42
486,571	2,56
487,063	2,53
487,554	2,5
488,045	2,68
488,536	2,5
489,027	2,78
489,518	2,79
490,008	2,69
490,499	2,64
490,989	2,74
491,48	2,69
491,97	2,78
492,46	2,7
492,95	2,7
493,44	2,67
493,93	2,71
494,419	2,93
494,909	2,89
495,398	2,58
495,888	2,81
496,377	2,97
496,866	3,01
497,355	3,08
497,844	2,98
498,333	2,99
498,821	3,04
499,31	3,05
499,798	3,16
500,287	3,02
500,775	3,03
501,263	3,36
501,751	3,26
502,239	3,22
502,727	3,39
503,215	3,45
503,702	3,46
504,19	3,54
504,677	3,56
505,164	3,59
505,651	3,81
506,139	3,81
506,625	3,78
507,112	3,93
507,599	4,04
508,086	4,09
508,572	4,18
509,058	4,2
509,545	4,31
510,031	4,52
510,517	4,62
511,003	4,66
511,489	4,77
511,974	4,81
512,46	5,01
512,946	4,97
513,431	5,01
513,916	5,37
514,401	5,42
514,887	5,72
515,371	5,52
515,856	5,93
516,341	5,92
516,826	6,43
517,31	6,28
517,795	6,36
518,279	6,63
518,763	6,76
519,247	6,82
519,731	7,2
520,215	7,42
520,699	7,43
521,182	7,41
521,666	7,79
522,149	7,91
522,633	8,15
523,116	8,13
523,599	8,35
524,082	8,55
524,565	8,69
525,048	8,54
525,53	9,1
526,013	9,26
526,495	9,21
526,978	9,53
527,46	9,58
527,942	9,79
528,424	9,79
528,906	10,13
529,388	10,16
529,87	10,12
530,351	10,42
530,833	10,64
531,314	10,64
531,795	10,79
532,277	10,66
532,758	10,76
533,238	11,18
533,719	11,14
534,2	11,07
534,681	11,3
535,161	11,22
535,642	11,42
536,122	11,42
536,602	11,48
537,082	11,21
537,562	11,77
538,042	11,35
538,522	11,75
539,001	11,76
539,481	11,65
539,96	11,51
540,44	11,8
540,919	11,83
541,398	11,81
541,877	11,96
542,356	11,67
542,835	11,72
543,313	11,84
543,792	11,91
544,27	11,8
544,749	12,02
545,227	11,99
545,705	12,02
546,183	12,04
546,661	11,94
547,139	12,18
547,616	12,11
548,094	12,15
548,571	12,33
549,049	12,21
549,526	12,24
550,003	12,2
550,48	12,36
550,957	12,31
551,434	12,17
551,911	12,31
552,387	12,41
552,864	12,47
553,34	12,21
553,817	12,33
554,293	12,34
554,769	12,27
555,245	12,28
555,721	12,12
556,197	12,44
556,672	12,27
557,148	12,35
557,623	12,17
558,099	12,23
558,574	12,16
559,049	12,21
559,524	12,23
559,999	12,09
560,474	11,76
560,948	11,93
561,423	11,94
561,897	12,01
562,372	11,94
562,846	11,62
563,32	11,66
563,794	11,77
564,268	11,61
564,742	11,37
565,216	11,15
565,69	11,14
566,163	11,39
566,636	11,16
567,11	10,97
567,583	11
568,056	10,88
568,529	10,78
569,002	10,8
569,475	10,58
569,947	10,54
570,42	10,48
570,892	10,57
571,365	10,25
571,837	10,38
572,309	10,16
572,781	9,96
573,253	9,76
573,725	9,75
574,197	9,66
574,668	9,48
575,14	9,35
575,611	9,41
576,082	9,54
576,554	9,22
577,025	9,39
577,496	9,03
577,967	9,09
578,437	9,03
578,908	8,98
579,379	8,82
579,849	8,73
580,319	8,66
580,79	8,66
581,26	8,6
581,73	8,45
582,2	8,56
582,669	8,36
583,139	8,44
583,609	8,22
584,078	8,18
584,548	8
585,017	8,11
585,486	8,12
585,955	8,1
586,424	8,1
586,893	7,95
587,362	7,93
587,83	7,84
588,299	7,71
588,767	7,8
589,236	7,65
589,704	7,73
590,172	7,63
590,64	7,65
591,108	7,5
591,576	7,58
592,043	7,7
592,511	7,48
592,978	7,6
593,446	7,55
593,913	7,34
594,38	7,53
594,847	7,39
595,314	7,19
595,781	7,27
596,248	7,39
596,715	7,17
597,181	7,27
597,647	7,34
598,114	7,15
598,58	7,26
599,046	7,14
599,512	7,31
599,978	7,24
600,444	7,23
600,91	7,14
601,375	7,12
601,841	7,08
602,306	7
602,771	7,05
603,236	6,85
603,702	7,01
604,167	6,81
604,631	6,86
605,096	6,95
605,561	6,8
606,025	6,9
606,49	6,82
606,954	6,78
607,418	6,71
607,882	6,74
608,347	6,68
608,81	6,61
609,274	6,65
609,738	6,54
610,202	6,44
610,665	6,36
611,128	6,4
611,592	6,36
612,055	6,26
612,518	6,36
612,981	6,17
613,444	6,17
613,907	6,09
614,369	6,09
614,832	5,9
615,294	5,94
615,757	5,92
616,219	5,83
616,681	5,81
617,143	5,67
617,605	5,81
618,067	5,8
618,529	5,56
618,99	5,72
619,452	5,59
619,913	5,63
620,375	5,48
620,836	5,45
621,297	5,47
621,758	5,38
622,219	5,45
622,68	5,34
623,14	5,45
623,601	5,36
624,061	5,29
624,522	5,33
624,982	5,41
625,442	5,29
625,902	5,25
626,362	5,34
626,822	5,3
627,282	5,26
627,742	5,2
628,201	5,28
628,661	5,21
629,12	5,25
629,579	5,16
630,038	5,19
630,497	5,21
630,956	5,21
631,415	5,22
631,874	5,19
632,332	5,09
632,791	5,29
633,249	5,13
633,708	5,13
634,166	5,08
634,624	5,13
635,082	5,08
635,54	5,01
635,998	4,98
636,455	4,94
636,913	4,88
637,37	4,87
637,828	4,78
638,285	4,74
638,742	4,7
639,199	4,66
639,656	4,53
640,113	4,6
640,57	4,57
641,027	4,56
641,483	4,4
641,94	4,38
642,396	4,3
642,852	4,23
643,309	4,27
643,765	4,16
644,221	4,06
644,676	4,1
645,132	4
645,588	3,92
646,043	3,95
646,499	3,91
646,954	3,91
647,409	3,72
647,864	3,72
648,319	3,64
648,774	3,52
649,229	3,66
649,684	3,58
650,139	3,52
650,593	3,52
651,047	3,5
651,502	3,49
651,956	3,48
652,41	3,4
652,864	3,42
653,318	3,42
653,772	3,37
654,225	3,35
654,679	3,39
655,133	3,33
655,586	3,32
656,039	3,32
656,492	3,25
656,946	3,19
657,399	3,12
657,851	3,13
658,304	3,14
658,757	3,06
659,209	3,07
659,662	3,02
660,114	2,97
660,567	2,97
661,019	2,92
661,471	2,91
661,923	2,86
662,375	2,83
662,826	2,83
663,278	2,77
663,73	2,66
664,181	2,8
664,632	2,66
665,084	2,73
665,535	2,69
665,986	2,68
666,437	2,69
666,888	2,68
667,338	2,69
667,789	2,68
668,24	2,67
668,69	2,66
669,14	2,72
669,591	2,77
670,041	2,68
670,491	2,71
670,941	2,8
671,391	2,7
671,84	2,71
672,29	2,72
672,74	2,79
673,189	2,76
673,638	2,81
674,088	2,94
674,537	2,93
674,986	2,95
675,435	3,01
675,883	3,04
676,332	3,02
676,781	3,05
677,229	3,05
677,678	3,17
678,126	3,2
678,574	3,23
679,022	3,32
679,47	3,37
679,918	3,38
680,366	3,44
680,814	3,46
681,261	3,47
681,709	3,54
682,156	3,68
682,604	3,7
683,051	3,75
683,498	3,72
683,945	3,81
684,392	3,83
684,839	3,92
685,286	3,99
685,732	4,05
686,179	4,08
686,625	4,13
687,071	4,18
687,518	4,31
687,964	4,4
688,41	4,41
688,856	4,52
689,301	4,68
689,747	4,83
690,193	4,87
690,638	5,05
691,084	5,18
691,529	5,37
691,974	5,56
692,419	5,82
692,864	6,07
693,309	6,27
693,754	6,45
694,199	6,72
694,643	7,03
695,088	7,23
695,532	7,42
695,977	7,82
696,421	8,16
696,865	8,46
697,309	8,75
697,753	8,97
698,197	9,44
698,64	9,63
699,084	9,88
699,527	10,33
699,971	10,67
700,414	10,88
700,857	11,23
701,3	11,56
701,743	11,82
702,186	12,27
702,629	12,5
703,072	12,63
703,515	13,1
703,957	13,25
704,399	13,79
704,842	13,91
705,284	14,26
705,726	14,63
706,168	14,75
706,61	15,04
707,052	15,35
707,494	15,78
707,935	15,94
708,377	16,14
708,818	16,44
709,26	16,75
709,701	16,83
710,142	17,37
710,583	17,51
711,024	17,87
711,465	18,03
711,905	18,38
712,346	18,36
712,787	18,59
713,227	19,17
713,667	19,33
714,108	19,56
714,548	19,89
714,988	20,18
715,428	20,16
715,868	20,36
716,307	20,77
716,747	21,05
717,186	21,22
717,626	21,49
718,065	21,49
718,504	21,69
718,944	22,03
719,383	22,2
719,822	22,29
720,261	22,71
720,699	22,71
721,138	22,95
721,576	23,16
722,015	23,18
722,453	23,48
722,892	23,75
723,33	23,67
723,768	23,96
724,206	24,12
724,644	24,32
725,081	24,33
725,519	24,41
725,957	24,58
726,394	24,73
726,832	25
727,269	25,08
727,706	25,22
728,143	25,4
728,58	25,44
729,017	25,63
729,454	25,66
729,89	25,66
730,327	26
730,764	25,87
731,2	26,19
731,636	26,08
732,072	26,33
732,509	26,31
732,945	26,37
733,38	26,54
733,816	26,55
734,252	26,69
734,688	26,52
735,123	26,7
735,559	26,91
735,994	27,11
736,429	27,05
736,864	27,02
737,299	26,91
737,734	27,14
738,169	27,18
738,604	27,11
739,038	27,36
739,473	27,28
739,907	27,28
740,342	27,15
740,776	27,28
741,21	27,28
741,644	27,38
742,078	27,33
742,512	27,49
742,946	27,4
743,379	27,5
743,813	27,46
744,246	27,58
744,68	27,35
745,113	27,63
745,546	27,64
745,979	27,38
746,412	27,53
746,845	27,6
747,278	27,35
747,711	27,43
748,143	27,38
748,576	27,57
749,008	27,46
749,441	27,55
749,873	27,57
750,305	27,45
750,737	27,59
751,169	27,38
751,601	27,53
752,032	27,48
752,464	27,41
752,896	27,6
753,327	27,4
753,758	27,45
754,19	27,27
754,621	27,46
755,052	27,36
755,483	27,47
755,914	27,43
756,344	27,49
756,775	27,17
757,206	27,64
757,636	27,13
758,066	27,43
758,497	27,49
758,927	27,41
759,357	27,27
759,787	27,42
760,217	27,14
760,647	27,13
761,076	27,2
761,506	27,29
761,935	27,14
762,365	27,16
762,794	26,99
763,223	27,18
763,653	27,14
764,082	27,06
764,51	26,93
764,939	27,09
765,368	26,97
765,797	26,98
766,225	27,14
766,654	27,08
767,082	26,95
767,51	27,01
767,938	27,08
768,367	26,82
768,795	26,69
769,222	26,88
769,65	26,81
770,078	26,71
770,505	26,77
770,933	26,84
771,36	26,76
771,788	26,72
772,215	26,99
772,642	26,91
773,069	26,89
773,496	26,88
773,923	26,76
774,349	26,88
774,776	26,68
775,203	26,75
775,629	26,76
776,055	26,75
776,482	26,86
776,908	26,77
777,334	26,64
777,76	26,75
778,186	26,62
778,611	26,81
779,037	26,54
779,463	26,53
779,888	26,65
780,314	26,53
780,739	26,66
781,164	26,61
781,589	26,67
782,014	26,64
782,439	26,64
782,864	26,71
783,289	26,63
783,713	26,57
784,138	26,54
784,562	26,45
784,987	26,48
785,411	26,26
785,835	26,71
786,259	26,53
786,683	26,43
787,107	26,41
787,531	26,42
787,954	26,4
788,378	26,44
788,802	26,45
789,225	26,47
789,648	26,44
790,071	26,68
790,495	26,63
790,918	26,5
791,34	26,59
791,763	26,49
792,186	26,46
792,609	26,34
793,031	26,41
793,454	26,48
793,876	26,49
794,298	26,52
794,721	26,35
795,143	26,65
795,565	26,4
795,986	26,25
796,408	26,4
796,83	26,39
797,252	26,41
797,673	26,47
798,094	26,4
798,516	26,48
798,937	26,34
799,358	26,35
799,779	26,48
800,2	26,36
800,621	26,4
801,042	26,49
801,462	26,26
801,883	26,42
802,303	26,36
802,724	26,32
803,144	26,58
803,564	26,3
803,984	26,09
804,404	26,38
804,824	26,39
805,244	26,37
805,664	26,21
806,084	26,34
806,503	26,25
806,923	26,18
807,342	26,41
807,761	26,18
808,18	26,48
808,599	26,18
809,018	26,22
809,437	26,33
809,856	26,3
810,275	26,29
810,693	26,44
811,112	26,47
811,53	26,4
811,949	26,43
812,367	26,23
812,785	26,2
813,203	26,4
813,621	26,3
814,039	26,31
814,457	26,37
814,874	26,25
815,292	26,47
815,709	26,3
816,127	26,3
816,544	26,11
816,961	26,25
817,378	26,39
817,795	26,41
818,212	26,08
818,629	26,24
819,046	26,47
819,462	26,25
819,879	26,33
820,295	26,46
820,712	26,23
821,128	26,41
821,544	26,23
821,96	26,28
822,376	26,12
822,792	26,24
823,208	26,24
823,624	26
824,039	26,26
824,455	26,5
824,87	26,36
825,286	26,33
825,701	26,23
826,116	26,28
826,531	26,07
826,946	26,19
827,361	26,34
827,776	26,51
828,19	26,24
828,605	25,96
829,02	26,14
829,434	26,36
829,848	26,32
830,263	26,34
830,677	26,26
831,091	26,33
831,505	26,11
831,919	26,32
832,332	26,02
832,746	26,27
833,16	26,14
833,573	26,09
833,987	26,42
834,4	26,13
834,813	26,32
835,226	26,16
835,639	25,99
836,052	26,03
836,465	26,08
836,878	26,1
837,29	26,01
837,703	25,92
838,116	26,08
838,528	26,07
838,94	26,02
839,352	26,23
839,765	26,22
840,177	26,07
840,589	26,14
841	26,14
841,412	26,01
841,824	26,01
842,235	26,21
842,647	26,12
843,058	26,17
843,47	26,02
843,881	25,88
844,292	26,06
844,703	26,21
845,114	26,14
845,525	26,23
845,935	26,04
846,346	26
846,757	26,05
847,167	26,35
847,577	25,94
847,988	26,25
848,398	26,38
848,808	26,16
849,218	25,93
849,628	26,38
850,038	26,24
850,448	25,9
850,857	26,28
851,267	26,27
851,676	26,02
852,086	26,28
852,495	25,93
852,904	25,99
853,313	26,25
853,722	26,14
854,131	25,95
854,54	25,91
854,949	26,23
855,357	26,02
855,766	25,95
856,174	25,84
856,583	25,97
856,991	26,01
857,399	25,88
857,807	25,95
858,215	25,99
858,623	25,99
859,031	26,05
859,439	25,8
859,846	26,07
860,254	26,13
860,661	26,11
861,069	25,98
861,476	25,86
861,883	26,26
862,29	25,97
862,697	26,18
863,104	25,87
863,511	25,99
863,918	25,78
864,325	26,19
864,731	26,03
865,138	25,86
865,544	26,01
865,95	26,3
866,357	26,14
866,763	26,09
867,169	25,92
867,575	26,13
867,98	25,63
868,386	26,08
868,792	26,07
869,197	26,17
869,603	25,81
870,008	25,94
870,414	25,89
870,819	26,07
871,224	26
871,629	26,04
872,034	25,94
872,439	26,1
872,844	25,97
873,248	25,95
873,653	25,94
874,057	26,01
874,462	26,17
874,866	25,97
875,27	26,16
875,674	26,16
876,078	25,89
876,482	26,16
876,886	25,95
877,29	26,04
877,694	26,13
878,097	26,23
878,501	26,11
878,904	25,88
879,308	26,09
879,711	25,94
880,114	26,03
880,517	25,97
880,92	26,27
881,323	26,24
881,726	26,07
882,128	25,94
882,531	26,28
882,934	25,84
883,336	25,69
883,738	26,02
884,141	26
884,543	26
884,945	25,98
885,347	25,98
885,749	25,82
886,151	26,27
886,552	26,1
886,954	26,14
887,355	26,18
887,757	25,87
888,158	25,88
888,56	25,94
888,961	26,06
889,362	26,16
889,763	25,87
890,164	25,96
890,565	25,86
890,965	26,03
891,366	25,98
891,767	26,12
892,167	25,89
892,567	26,01
892,968	26
893,368	26,04
893,768	25,95
894,168	25,92
894,568	26,06
894,968	26,19
895,368	26
895,767	25,83
896,167	25,95
896,566	25,86
896,966	25,79
897,365	26,3
897,764	25,84
898,164	25,96
898,563	25,86
898,962	25,79
899,361	25,91
899,759	25,98
900,158	26,18
900,557	26,2
900,955	26,09
901,354	25,95
901,752	26,04
902,15	26,36
902,548	26,18
902,947	25,9
903,345	25,87
903,742	25,81
904,14	26,05
904,538	25,78
904,936	25,93
905,333	26,08
905,731	26,23
906,128	25,82
906,525	26,15
906,923	26,18
907,32	26,23
907,717	26,01
908,114	25,9
908,511	25,84
908,907	26,01
909,304	26,14
909,701	25,93
910,097	26,33
910,494	25,99
910,89	26,05
911,286	26,08
911,682	25,87
912,078	25,99
912,474	26,06
912,87	26,13
913,266	25,67
913,662	25,87
914,058	25,44
914,453	26,02
914,849	26,02
915,244	25,92
915,639	26,06
916,034	25,78
916,43	26,01
916,825	25,91
917,22	26,2
917,614	26,05
918,009	25,85
918,404	26,13
918,798	26,01
919,193	25,86
919,587	26
919,982	25,59
920,376	26,16
920,77	26,08
921,164	26,05
921,558	25,92
921,952	25,82
922,346	25,88
922,74	25,96
923,133	26,08
923,527	25,83
923,92	25,63
924,314	26,03
924,707	26,1
925,1	25,89
925,493	25,96
925,886	25,97
926,279	26,01
926,672	25,81
927,065	25,8
927,457	26,15
927,85	25,67
928,243	25,96
928,635	25,88
929,027	25,54
929,42	25,98
929,812	25,9
930,204	25,94
930,596	25,67
930,988	25,92
931,379	25,79
931,771	25,79
932,163	25,76
932,554	25,73
932,946	25,72
933,337	25,74
933,729	25,91
934,12	25,66
934,511	25,69
934,902	25,71
935,293	25,8
935,684	25,72
936,075	25,5
936,465	25,59
936,856	25,81
937,246	25,77
937,637	25,49
938,027	25,7
938,417	25,79
938,808	25,79
939,198	25,9
939,588	25,49
939,978	25,75
940,368	25,71
940,757	25,6
941,147	25,44
941,537	25,01
941,926	25,96
942,315	25,85
942,705	25,18
943,094	26,06
943,483	25,32
943,872	25,49
944,261	25,66
944,65	25,46
945,039	25,82
945,428	26,33
945,816	25,41
946,205	25,57
946,593	25,67
946,982	25,62
947,37	25,38
947,758	25,74
948,146	25,28
948,534	25,43
948,922	25,39
949,31	25,13
949,698	25,19
950,086	25,04
950,473	25,3
950,861	25,23
951,248	25,48
951,636	25,4
952,023	24,58
952,41	24,94
952,797	24,99
953,184	25,34
953,571	25,19
953,958	24,87
954,345	24,95
954,731	25,14
955,118	25,09
955,505	24,92
955,891	25,06
956,277	25,06
956,664	25,21
957,05	24,91
957,436	25,19
957,822	24,79
958,208	25,16
958,594	24,78
958,979	24,83
959,365	24,91
959,751	25,01
960,136	24,89
960,522	24,97
960,907	24,83
961,292	24,58
961,677	25,01
962,062	24,73
962,447	24,65
962,832	25,36
963,217	25,04
963,602	25,16
963,986	24,62
964,371	24,82
964,756	24,92
965,14	25,11
965,524	24,85
965,908	24,66
966,293	25,04
966,677	25,11
967,061	25,06
967,445	24,62
967,828	24,68
968,212	25,25
968,596	24,68
968,979	24,86
969,363	24,59
969,746	24,92
970,129	24,88
970,513	25,04
970,896	25,1
971,279	25,03
971,662	24,34
972,045	25,17
972,428	24,97
972,81	24,95
973,193	24,93
973,575	25,06
973,958	25,08
974,34	24,96
974,723	24,57
975,105	24,66
975,487	25,13
975,869	24,75
976,251	24,95
976,633	25,25
977,015	25,13
977,396	25,12
977,778	24,97
978,16	25,19
978,541	25,14
978,922	24,91
979,304	24,91
979,685	24,81
980,066	24,84
980,447	24,91
980,828	25,04
981,209	25,06
981,59	24,65
981,97	24,99
982,351	24,98
982,732	24,72
983,112	25,23
983,493	25,04
983,873	24,62
984,253	25,1
984,633	24,64
985,013	25,19
985,393	24,81
985,773	24,69
986,153	25,02
986,533	24,83
986,912	24,93
987,292	24,93
987,671	24,98
988,051	25,01
988,43	24,51
988,809	25,26
989,188	24,68
989,567	25,19
989,946	25,08
990,325	24,87
990,704	25
991,083	24,92
991,461	25,25
991,84	25,03
992,218	25,17
992,597	24,72
992,975	25,39
993,353	25,13
993,732	24,93
994,11	25,41
994,488	25,26
994,866	25,41
995,243	25,04
995,621	25,36
995,999	24,66
996,376	24,91
996,754	25,2
997,131	25,06
997,509	24,91
997,886	25,35
998,263	25,33
998,64	24,72
999,017	24,77
999,394	25,22
999,771	24,88
1000,148	25,05
1000,524	25,38
1000,901	25,24
1001,277	25,24
1001,654	25,12
1002,03	25,15
1002,406	25,1
1002,783	24,95
1003,159	25,3
1003,535	25,17
1003,911	25,11
1004,286	24,87
1004,662	25,08
1005,038	25,29
1005,414	25,32
1005,789	25,07
1006,164	25,35
1006,54	25,12
1006,915	25,23
1007,29	25,41
1007,665	25,15
1008,04	25,08
1008,415	25,54
1008,79	25,46
1009,165	25,19
1009,54	25,33
1009,914	25,16
1010,289	25,09
1010,663	24,98
1011,038	25
1011,412	24,99
1011,786	24,96
1012,16	25,74
1012,535	25,58
1012,909	24,99
1013,282	25,37
1013,656	25,4
1014,03	25,15
1014,404	25,05
1014,777	25,36
1015,151	25,44
1015,524	25,26
1015,897	25,77
1016,271	25,56
1016,644	25,31
1017,017	25,33
1017,39	25,08
1017,763	25,23
1018,136	25,67
1018,508	26,08
1018,881	25,2
1019,254	25,82
1019,626	25,07
1019,999	25,5
1020,371	25,16
1020,743	24,94
1021,116	25,38
1021,488	25,41
1021,86	25,4
1022,232	25,64
1022,604	25,38
1022,975	25,36
1023,347	25,84
1023,719	24,91
1024,09	25,2
1024,462	25,29
1024,833	25,49
1025,204	25,34
1025,576	25,76
1025,947	25,6
1026,318	25,4
1026,689	25,19
1027,06	25,78
1027,431	25,37
1027,801	25,59
1028,172	25,82
1028,543	25,58
1028,913	25,19
1029,284	25,72
1029,654	25,05
1030,024	25,61
1030,394	25,43
1030,764	25,83
1031,135	25,44
1031,504	25,19
1031,874	25,42
1032,244	25,09
1032,614	25,69
1032,983	25,38
1033,353	25,27
1033,722	25,09
1034,092	25,46
1034,461	25,31
1034,83	25,13
1035,2	25,54
1035,569	25,41
1035,938	25,8
1036,307	25,44
1036,675	25,96
1037,044	25,69
1037,413	25,01
1037,781	25,44
1038,15	25,57
1038,518	25,45
1038,887	25,93
1039,255	25,17
1039,623	25,77
1039,991	24,74
1040,359	25,19
1040,727	25,1
1041,095	25,4
1041,463	25,96
1041,831	25,39
1042,198	25,6
1042,566	25,43
1042,933	25,69
1043,301	25,51
1043,668	24,78
1044,035	25,6
1044,402	25,41
1044,77	26,02
1045,137	25,5
1045,503	25,52
1045,87	26,5
1046,237	24,91
1046,604	25,52
1046,97	25,46
1047,337	25,84
1047,703	25,61
1048,07	26,15
1048,436	25,3
1048,802	25,57
1049,168	25,81
1049,534	25,42
1049,9	25,26
1050,266	26,14
1050,632	25,77
1050,998	25,72
1051,364	25,97
1051,729	25,65
1052,095	25,82
1052,46	25,75
1052,825	25,29
1053,191	25,61
1053,556	25,82
1053,921	25,48
1054,286	26,32
1054,651	25,42
1055,016	25,8
1055,381	25,75
1055,745	26,42
1056,11	25,73
1056,475	25,46
1056,839	26,6
1057,203	26,37
1057,568	25,06
1057,932	25,83
1058,296	25,62
1058,66	25,2
1059,024	25,81
1059,388	26,77
1059,752	26,62
1060,116	26,54
1060,48	26,01
1060,843	25,44
1061,207	25,39
1061,57	25,44
1061,934	26,42
1062,297	25,55
1062,66	25,67
1063,023	26,13
1063,386	25,48
1063,749	24,68
1064,112	25,25
1064,475	26,02
1064,838	26,22
1065,201	26,22
1065,563	25,63
1065,926	25,36
1066,288	25,95
1066,651	25,69
1067,013	24,95
1067,375	24,84
1067,737	25,65
1068,099	25,84
1068,461	25,77
1068,823	25,59
1069,185	26,15
1069,547	24,88
1069,909	26,1
1070,27	26,09
1070,632	25,53
1070,993	25,84
1071,355	25,13
1071,716	25,58
1072,077	25,42
1072,438	24,58
1072,799	26,04
1073,16	25,48
1073,521	25,71
1073,882	25,37
1074,243	26,05
1074,603	25,55
1074,964	24,87
1075,325	26,47
1075,685	26,3
1076,045	26,14
1076,406	25,54
1076,766	25,74
1077,126	26,11
1077,486	26,41
1077,846	25,75
1078,206	25,48
1078,566	25,54
1078,925	26,52
1079,285	25,49
1079,645	26
1080,004	25,03
1080,364	25,06
1080,723	25,16
1081,082	27
1081,442	25,92
1081,801	26,56
1082,16	25,6
1082,519	25,82
1082,878	24,98
1083,237	24,17
1083,595	26,81
1083,954	26,26
1084,313	26,18
1084,671	25,93
1085,03	25,37
1085,388	25,64
1085,746	25,31
1086,104	25,97
1086,463	25,1
1086,821	25,9
1087,179	26,59
1087,537	26,17
1087,894	24,51
1088,252	25,77
1088,61	25,07
1088,967	25,15
1089,325	25,37
1089,682	24,16
1090,04	26,06
1090,397	24,9
1090,754	24,58
1091,111	25,57
1091,469	24,42
1091,826	26,27
1092,182	25,5
1092,539	24,71
1092,896	24,97
1093,253	26,14
1093,609	26,84
1093,966	25,4
1094,322	26,5
1094,679	25,48
1095,035	25,13
1095,391	24,61
1095,748	25,54
1096,104	25,2
1096,46	25,96
1096,816	25,23
1097,171	25,06
1097,527	25,51
1097,883	25,43
1098,239	25,98
1098,594	26,23
1098,95	25,93
1099,305	27,11
1099,66	25,68
1100,016	27,4
1100,371	25,72
1100,726	24,49
1101,081	24,92
1101,436	26,41
1101,791	27,25
1102,146	25,62
1102,5	25,12
1102,855	26,33
1103,21	25,9
1103,564	27,7
1103,918	26,79
1104,273	25,62
1104,627	26,92
1104,981	25,98
1105,335	25,99
1105,69	25,09
1106,043	26,52
1106,397	24,6
1106,751	26
1107,105	26,47
1107,459	26,06
1107,812	24,29
1108,166	26,65
1108,519	24,85
1108,873	25,63
1109,226	25,27
1109,579	25,49
1109,932	24,51
1110,285	24,84
1110,638	25,39
1110,991	26,8
1111,344	25,77
1111,697	26,23
1112,05	27,72
1112,402	24,54
1112,755	26,08
1113,107	27,01
1113,46	24,78
1113,812	28,61
1114,164	26,33
1114,517	26,49
1114,869	35,04
1115,221	27,42
1115,573	16,98
1115,924	33,58
