Data from B_5_Relative__0__00025.txt Node

Date: Mon Jan 29 18:09:13 CET 2024
User: diatiterra
Spectrometer: HDX00911
Trigger mode: 0
Integration Time (sec): 6,000000E-3
Scans to average: 2
Nonlinearity correction enabled: false
Boxcar width: 0
Storing dark spectrum: false
XAxis mode: Wavelengths
Number of Pixels in Spectrum: 2068
>>>>>Begin Spectral Data<<<<<
194,468	43,14
195,025	22,12
195,581	55,32
196,138	29,23
196,694	27,59
197,251	30,22
197,807	30,8
198,363	27,27
198,919	35,23
199,474	29,64
200,03	26,1
200,586	24,15
201,141	32,58
201,696	24,57
202,251	31,73
202,806	28,95
203,361	34,74
203,916	35,96
204,471	24,65
205,025	28,21
205,58	25,45
206,134	32,22
206,688	31,88
207,242	32,65
207,796	30,51
208,35	21,3
208,904	26,44
209,457	32,49
210,011	25,17
210,564	35,07
211,117	28,87
211,67	27,82
212,223	26,71
212,776	35,96
213,329	28,87
213,881	24,64
214,434	29,31
214,986	34,68
215,538	28,21
216,09	32,13
216,642	32,22
217,194	32,45
217,746	30,64
218,297	25,5
218,849	28,04
219,4	37,06
219,951	31,27
220,502	27,87
221,053	24,14
221,604	35,91
222,155	25,93
222,705	27,76
223,256	31,65
223,806	30,27
224,356	37,32
224,906	27,41
225,456	30,69
226,006	25,84
226,556	34,31
227,106	27,62
227,655	29,62
228,204	35,53
228,754	28,28
229,303	31,86
229,852	28,76
230,401	22,94
230,949	31,91
231,498	30,97
232,047	34,01
232,595	27,3
233,143	30,3
233,691	20,8
234,239	26,49
234,787	28,32
235,335	35,37
235,883	27,96
236,43	30,37
236,978	34,91
237,525	36,19
238,072	35,06
238,619	23,63
239,166	33,33
239,713	41,64
240,26	35,96
240,806	30,5
241,353	31,45
241,899	34,3
242,445	36,71
242,991	33,1
243,537	35,31
244,083	36,73
244,629	30,41
245,174	34,33
245,72	32,11
246,265	29,33
246,81	36,5
247,355	24,26
247,9	24,91
248,445	38,97
248,99	26,3
249,534	32,91
250,079	36,57
250,623	31,19
251,168	31,21
251,712	38,3
252,256	33,89
252,8	36,81
253,343	40,76
253,887	26,87
254,43	39,78
254,974	36,01
255,517	31,21
256,06	28,42
256,603	30,94
257,146	31,65
257,689	25,63
258,232	29,12
258,774	27,68
259,317	34,43
259,859	31,37
260,401	37,12
260,943	29,48
261,485	36,52
262,027	35,52
262,569	40,23
263,11	29,24
263,652	27,94
264,193	32,5
264,734	38,89
265,275	34,94
265,816	35,61
266,357	39,21
266,898	31,4
267,438	25,1
267,979	26,55
268,519	32,85
269,059	33,69
269,6	32,63
270,14	32,34
270,68	27,2
271,219	29,82
271,759	30,6
272,298	28
272,838	27,91
273,377	27,78
273,916	27,08
274,455	32,57
274,994	29,5
275,533	33,45
276,072	25,19
276,61	33,11
277,149	28,99
277,687	31,67
278,225	31,16
278,763	38,41
279,301	32,83
279,839	28,62
280,377	28,1
280,914	35,9
281,452	40,65
281,989	35,84
282,526	29,75
283,064	36,11
283,601	32,2
284,137	33,21
284,674	30,57
285,211	27,34
285,747	35,59
286,284	30,88
286,82	32,98
287,356	30,24
287,892	35,79
288,428	25,76
288,964	31,77
289,5	37,76
290,035	30,94
290,571	28,36
291,106	24,36
291,641	29,5
292,176	35,34
292,711	32,76
293,246	27,8
293,781	31,6
294,315	33,82
294,85	33,58
295,384	34,81
295,918	33,1
296,453	30,04
296,987	34,83
297,52	39,38
298,054	31,99
298,588	31,5
299,121	21,61
299,655	29,12
300,188	30,42
300,721	36,55
301,254	29,54
301,787	23,17
302,32	38,26
302,853	28,57
303,385	39,19
303,918	32,63
304,45	29,73
304,982	28,29
305,514	24,72
306,046	28,77
306,578	33,57
307,11	29,74
307,641	31,27
308,173	23,42
308,704	30,27
309,236	29,21
309,767	32,08
310,298	27,87
310,829	39,16
311,359	34,16
311,89	30,25
312,421	30,43
312,951	24
313,481	28,51
314,012	31,5
314,542	30,82
315,072	26,18
315,601	30,96
316,131	25,91
316,661	25,83
317,19	28,83
317,72	28,94
318,249	20,95
318,778	27,76
319,307	29,39
319,836	27,85
320,365	30,62
320,893	23,76
321,422	26,12
321,95	24,07
322,479	31,14
323,007	32,97
323,535	30,19
324,063	29,48
324,591	23,33
325,118	24,13
325,646	27,31
326,173	34,29
326,701	22,18
327,228	25,88
327,755	27,6
328,282	32,45
328,809	30
329,336	22,15
329,862	33,08
330,389	24,23
330,915	25,53
331,441	23,39
331,968	26,46
332,494	21,74
333,02	28,1
333,545	19,86
334,071	34,33
334,597	28,72
335,122	22,41
335,648	23,44
336,173	32,01
336,698	21,58
337,223	35,49
337,748	27,37
338,272	23,1
338,797	29,77
339,322	27,24
339,846	16,41
340,37	24,91
340,894	32,88
341,419	26,85
341,942	31,21
342,466	28,67
342,99	18,46
343,514	24,03
344,037	29,18
344,56	26,96
345,084	20,19
345,607	30,7
346,13	24,62
346,653	26,1
347,175	30
347,698	16,96
348,221	22,67
348,743	22,74
349,265	24,7
349,787	30,86
350,309	23,97
350,831	24,18
351,353	29,63
351,875	23,31
352,397	26,72
352,918	23,73
353,439	30,35
353,961	24,51
354,482	28,93
355,003	27,88
355,524	25,77
356,044	25,33
356,565	24,19
357,086	23,66
357,606	20
358,126	25,55
358,646	21,14
359,167	27,52
359,687	27,36
360,206	23,13
360,726	24,06
361,246	24,34
361,765	21,05
362,285	27,01
362,804	23,56
363,323	21,79
363,842	26,9
364,361	22,29
364,88	25,11
365,398	24,5
365,917	26,69
366,435	22,32
366,954	22,85
367,472	21,96
367,99	27,72
368,508	26,37
369,026	21,12
369,544	20,55
370,061	25,66
370,579	20,64
371,096	21,35
371,613	24,59
372,131	23,42
372,648	25,81
373,165	29,98
373,681	23,29
374,198	21,8
374,715	24,83
375,231	24,8
375,747	26,78
376,264	23,64
376,78	26,16
377,296	21,36
377,812	20,92
378,327	20,3
378,843	23,04
379,359	20,87
379,874	22,95
380,389	22,15
380,905	22,28
381,42	23,11
381,935	23,2
382,449	22,24
382,964	24,12
383,479	22,73
383,993	23,8
384,508	21,19
385,022	20,07
385,536	19,8
386,05	21,63
386,564	20,88
387,078	19,69
387,592	20,94
388,105	19,08
388,619	21,93
389,132	18,82
389,645	19,65
390,158	18,64
390,671	19,85
391,184	18,32
391,697	17,5
392,21	21,3
392,722	18,51
393,235	17,59
393,747	17,71
394,259	19,97
394,771	17,24
395,283	17,75
395,795	18,17
396,307	18,28
396,818	16,57
397,33	15,32
397,841	17,53
398,353	16,03
398,864	17,05
399,375	16,86
399,886	14,09
400,397	14,87
400,907	17,12
401,418	14,57
401,928	14,08
402,439	14,94
402,949	13,59
403,459	13,94
403,969	14,63
404,479	12,84
404,989	13,27
405,498	12,93
406,008	12,18
406,517	11,85
407,027	11,34
407,536	11,32
408,045	10,3
408,554	9,99
409,063	10,76
409,572	9,65
410,08	9,78
410,589	10,01
411,097	8,94
411,606	9,28
412,114	9,17
412,622	8,56
413,13	8,59
413,638	8,01
414,145	7,35
414,653	7,45
415,16	8,01
415,668	6,95
416,175	7,28
416,682	7,27
417,189	6,65
417,696	6,44
418,203	6,62
418,71	6,21
419,216	5,9
419,723	6,78
420,229	6,1
420,735	5,92
421,242	6,16
421,748	5,85
422,254	6,31
422,759	5,67
423,265	6,17
423,771	5,42
424,276	6,03
424,781	5,87
425,287	6,24
425,792	5,77
426,297	5,87
426,802	5,8
427,306	5,87
427,811	5,25
428,316	5,98
428,82	5,51
429,324	5,63
429,829	5,64
430,333	5,62
430,837	5,37
431,34	5,45
431,844	5,38
432,348	5,21
432,851	5,57
433,355	5,03
433,858	5
434,361	5,21
434,864	5,36
435,367	5,44
435,87	5,06
436,373	5,19
436,876	4,98
437,378	5,48
437,88	5,25
438,383	5,3
438,885	5,38
439,387	4,84
439,889	4,84
440,391	5,3
440,892	5,33
441,394	5,04
441,896	4,97
442,397	5,07
442,898	5,17
443,399	5,37
443,9	5,21
444,401	5,25
444,902	5,27
445,403	5,05
445,903	5,19
446,404	5,26
446,904	5,02
447,405	5,16
447,905	5,28
448,405	5,48
448,905	5,22
449,404	5,53
449,904	5,5
450,404	5,18
450,903	5,1
451,403	5,13
451,902	5,58
452,401	5,49
452,9	5,49
453,399	5,7
453,898	5,43
454,396	5,62
454,895	5,7
455,393	5,56
455,892	5,68
456,39	5,61
456,888	5,25
457,386	5,59
457,884	5,6
458,382	5,4
458,879	5,54
459,377	5,45
459,874	5,36
460,372	5,44
460,869	5,82
461,366	5,74
461,863	5,42
462,36	5,71
462,857	5,48
463,353	5,81
463,85	5,62
464,346	5,75
464,843	5,6
465,339	5,43
465,835	5,38
466,331	5,63
466,827	5,71
467,323	5,59
467,818	5,63
468,314	5,61
468,809	5,55
469,305	5,58
469,8	5,6
470,295	5,9
470,79	5,65
471,285	5,66
471,78	5,28
472,274	5,55
472,769	5,53
473,263	5,49
473,758	5,67
474,252	5,67
474,746	5,53
475,24	5,6
475,734	5,54
476,228	5,91
476,721	5,62
477,215	5,79
477,708	5,51
478,202	5,74
478,695	5,54
479,188	5,65
479,681	5,53
480,174	5,78
480,667	5,96
481,159	5,76
481,652	5,49
482,144	5,85
482,637	5,67
483,129	5,86
483,621	5,65
484,113	5,9
484,605	5,8
485,097	5,86
485,588	5,72
486,08	5,78
486,571	6,04
487,063	6
487,554	6,06
488,045	6,02
488,536	5,89
489,027	6,01
489,518	6,1
490,008	6,12
490,499	5,91
490,989	5,86
491,48	6,17
491,97	6,42
492,46	6,16
492,95	6,3
493,44	6,07
493,93	6,42
494,419	6,18
494,909	6,34
495,398	6,49
495,888	6,5
496,377	6,63
496,866	6,65
497,355	7,08
497,844	6,99
498,333	6,97
498,821	6,87
499,31	7,33
499,798	7,18
500,287	7,4
500,775	7,33
501,263	7,62
501,751	7,47
502,239	7,94
502,727	7,92
503,215	8,03
503,702	8,09
504,19	8,04
504,677	8,43
505,164	8,37
505,651	8,65
506,139	8,84
506,625	8,89
507,112	8,99
507,599	9,05
508,086	9,24
508,572	9,57
509,058	9,59
509,545	10,04
510,031	10,15
510,517	10,19
511,003	10,66
511,489	10,75
511,974	10,94
512,46	10,97
512,946	11,05
513,431	11,26
513,916	11,58
514,401	11,77
514,887	12,07
515,371	12,32
515,856	12,79
516,341	12,82
516,826	13,27
517,31	13,57
517,795	13,72
518,279	14,09
518,763	14,08
519,247	14,29
519,731	14,84
520,215	14,95
520,699	14,98
521,182	15,08
521,666	15,81
522,149	15,82
522,633	16,07
523,116	16,16
523,599	16,54
524,082	16,88
524,565	17,23
525,048	17,11
525,53	17,49
526,013	17,51
526,495	18,08
526,978	17,9
527,46	18,36
527,942	18,26
528,424	18,58
528,906	18,91
529,388	18,89
529,87	19,09
530,351	19,41
530,833	19,5
531,314	19,41
531,795	19,96
532,277	19,62
532,758	19,73
533,238	19,99
533,719	20,23
534,2	20,26
534,681	20,32
535,161	20,42
535,642	20,3
536,122	20,62
536,602	20,8
537,082	20,53
537,562	20,94
538,042	20,54
538,522	21,08
539,001	20,86
539,481	21,18
539,96	20,71
540,44	20,55
540,919	21,07
541,398	21,09
541,877	21,15
542,356	21,18
542,835	21,12
543,313	21,02
543,792	21,3
544,27	20,97
544,749	21,35
545,227	21,29
545,705	21,49
546,183	21,17
546,661	21,51
547,139	21,04
547,616	21,76
548,094	21,59
548,571	21,33
549,049	21,71
549,526	21,94
550,003	21,47
550,48	21,52
550,957	21,89
551,434	21,43
551,911	21,63
552,387	21,29
552,864	22
553,34	21,8
553,817	21,81
554,293	21,63
554,769	21,64
555,245	21,9
555,721	21,82
556,197	21,83
556,672	21,74
557,148	21,23
557,623	21,67
558,099	21,45
558,574	21,57
559,049	21,38
559,524	21,61
559,999	21,25
560,474	21,13
560,948	21,41
561,423	21,51
561,897	21,42
562,372	21,5
562,846	21,17
563,32	21,56
563,794	20,98
564,268	21,14
564,742	20,64
565,216	20,54
565,69	20,6
566,163	20,42
566,636	20,32
567,11	20,49
567,583	20,24
568,056	20,05
568,529	19,92
569,002	19,93
569,475	19,77
569,947	19,62
570,42	19,53
570,892	19,34
571,365	19,42
571,837	19,34
572,309	19,33
572,781	18,66
573,253	18,66
573,725	18,49
574,197	18,48
574,668	18,21
575,14	18,39
575,611	17,92
576,082	17,87
576,554	17,8
577,025	17,61
577,496	17,45
577,967	17,48
578,437	17,34
578,908	17,34
579,379	17,15
579,849	17,35
580,319	16,85
580,79	16,94
581,26	16,89
581,73	16,75
582,2	16,45
582,669	16,65
583,139	16,61
583,609	16,38
584,078	16,24
584,548	16,27
585,017	16,11
585,486	16,01
585,955	16,22
586,424	16,03
586,893	15,86
587,362	15,98
587,83	15,77
588,299	15,72
588,767	15,6
589,236	15,64
589,704	15,38
590,172	15,52
590,64	15,31
591,108	15,18
591,576	15,21
592,043	15,28
592,511	15,23
592,978	15,11
593,446	15,28
593,913	14,98
594,38	15,07
594,847	14,97
595,314	14,9
595,781	14,76
596,248	14,96
596,715	14,7
597,181	14,64
597,647	14,85
598,114	14,63
598,58	14,79
599,046	14,69
599,512	14,77
599,978	14,75
600,444	14,62
600,91	14,47
601,375	14,57
601,841	14,64
602,306	14,48
602,771	14,41
603,236	14,45
603,702	14,24
604,167	14,25
604,631	14,13
605,096	14,31
605,561	14,11
606,025	14,17
606,49	13,97
606,954	13,85
607,418	13,99
607,882	13,87
608,347	13,99
608,81	13,8
609,274	13,66
609,738	13,7
610,202	13,45
610,665	13,5
611,128	13,58
611,592	13,28
612,055	13,15
612,518	13,27
612,981	13,04
613,444	12,82
613,907	12,75
614,369	12,86
614,832	12,76
615,294	12,76
615,757	12,56
616,219	12,55
616,681	12,43
617,143	12,43
617,605	12,08
618,067	12,29
618,529	12,23
618,99	12,24
619,452	12,19
619,913	12,01
620,375	12,02
620,836	11,97
621,297	11,93
621,758	11,93
622,219	11,76
622,68	11,56
623,14	11,73
623,601	11,79
624,061	11,55
624,522	11,75
624,982	11,52
625,442	11,64
625,902	11,49
626,362	11,55
626,822	11,53
627,282	11,41
627,742	11,55
628,201	11,49
628,661	11,45
629,12	11,33
629,579	11,19
630,038	11,38
630,497	11,37
630,956	11,36
631,415	11,18
631,874	11,23
632,332	11,32
632,791	11,22
633,249	11,03
633,708	11,1
634,166	11,22
634,624	11,05
635,082	11,02
635,54	10,84
635,998	10,95
636,455	10,89
636,913	10,82
637,37	10,52
637,828	10,53
638,285	10,53
638,742	10,32
639,199	10,43
639,656	10,16
640,113	10,14
640,57	9,95
641,027	9,93
641,483	9,98
641,94	9,76
642,396	9,55
642,852	9,48
643,309	9,52
643,765	9,17
644,221	9,2
644,676	9,09
645,132	9,02
645,588	9,04
646,043	8,91
646,499	8,68
646,954	8,63
647,409	8,57
647,864	8,41
648,319	8,39
648,774	8,28
649,229	8,14
649,684	8,04
650,139	7,97
650,593	8,09
651,047	7,99
651,502	7,95
651,956	7,87
652,41	7,85
652,864	7,79
653,318	7,75
653,772	7,78
654,225	7,67
654,679	7,67
655,133	7,66
655,586	7,57
656,039	7,47
656,492	7,41
656,946	7,33
657,399	7,34
657,851	7,27
658,304	7,2
658,757	7,17
659,209	7,07
659,662	6,97
660,114	6,89
660,567	6,8
661,019	6,75
661,471	6,72
661,923	6,62
662,375	6,54
662,826	6,39
663,278	6,39
663,73	6,37
664,181	6,2
664,632	6,2
665,084	6,13
665,535	6,07
665,986	6,01
666,437	6,02
666,888	5,98
667,338	5,93
667,789	5,9
668,24	5,9
668,69	5,82
669,14	5,85
669,591	5,81
670,041	5,79
670,491	5,78
670,941	5,78
671,391	5,84
671,84	5,74
672,29	5,81
672,74	5,82
673,189	5,83
673,638	5,9
674,088	5,93
674,537	5,96
674,986	5,99
675,435	6,07
675,883	6,05
676,332	6,12
676,781	6,17
677,229	6,21
677,678	6,3
678,126	6,4
678,574	6,3
679,022	6,38
679,47	6,51
679,918	6,62
680,366	6,61
680,814	6,64
681,261	6,75
681,709	6,88
682,156	6,91
682,604	7,03
683,051	7,13
683,498	7,17
683,945	7,33
684,392	7,37
684,839	7,52
685,286	7,68
685,732	7,73
686,179	8,01
686,625	8,14
687,071	8,13
687,518	8,51
687,964	8,61
688,41	8,83
688,856	9,05
689,301	9,33
689,747	9,47
690,193	9,77
690,638	10,26
691,084	10,31
691,529	10,79
691,974	11,07
692,419	11,48
692,864	11,94
693,309	12,19
693,754	12,76
694,199	13,2
694,643	13,59
695,088	14,03
695,532	14,28
695,977	14,79
696,421	15,22
696,865	15,64
697,309	16,12
697,753	16,48
698,197	17,13
698,64	17,45
699,084	17,71
699,527	18,11
699,971	18,76
700,414	19,17
700,857	19,33
701,3	19,84
701,743	19,97
702,186	20,39
702,629	21,13
703,072	21,14
703,515	21,68
703,957	22,03
704,399	22,01
704,842	22,53
705,284	22,79
705,726	23,16
706,168	23,61
706,61	23,71
707,052	24,09
707,494	24,37
707,935	24,72
708,377	25,01
708,818	24,94
709,26	25,38
709,701	25,67
710,142	25,91
710,583	26
711,024	26,5
711,465	26,63
711,905	26,93
712,346	26,92
712,787	27,36
713,227	27,57
713,667	27,54
714,108	28,04
714,548	28,14
714,988	28,46
715,428	28,56
715,868	28,71
716,307	28,94
716,747	29,34
717,186	29,23
717,626	29,42
718,065	29,51
718,504	29,67
718,944	29,84
719,383	30,01
719,822	30,19
720,261	30,1
720,699	30,38
721,138	30,74
721,576	30,9
722,015	30,86
722,453	31,17
722,892	31,44
723,33	31,3
723,768	31,55
724,206	31,45
724,644	31,63
725,081	31,73
725,519	31,93
725,957	31,84
726,394	32,09
726,832	32,14
727,269	32,13
727,706	32,5
728,143	32,56
728,58	32,45
729,017	32,49
729,454	32,56
729,89	32,21
730,327	32,77
730,764	32,61
731,2	32,74
731,636	32,8
732,072	32,92
732,509	32,95
732,945	33,15
733,38	33,08
733,816	33,02
734,252	33,08
734,688	33,29
735,123	33,03
735,559	33,21
735,994	33,32
736,429	33,27
736,864	33,35
737,299	33,23
737,734	33,23
738,169	33,32
738,604	33,51
739,038	33,34
739,473	33,49
739,907	33,37
740,342	33,52
740,776	33,45
741,21	33,45
741,644	33,4
742,078	33,4
742,512	33,68
742,946	33,33
743,379	33,49
743,813	33,4
744,246	33,53
744,68	33,39
745,113	33,4
745,546	33,34
745,979	33,41
746,412	33,32
746,845	33,24
747,278	33,26
747,711	33,41
748,143	33,41
748,576	33,21
749,008	33,28
749,441	33,35
749,873	33,12
750,305	33,29
750,737	33,17
751,169	32,99
751,601	33,03
752,032	33,15
752,464	32,86
752,896	33,12
753,327	33,12
753,758	33,06
754,19	33,05
754,621	33,05
755,052	32,79
755,483	32,91
755,914	32,77
756,344	32,79
756,775	32,96
757,206	32,99
757,636	32,77
758,066	32,9
758,497	32,93
758,927	32,54
759,357	32,92
759,787	32,68
760,217	32,54
760,647	32,45
761,076	32,73
761,506	32,51
761,935	32,55
762,365	32,65
762,794	32,61
763,223	32,46
763,653	32,72
764,082	32,46
764,51	32,33
764,939	32,49
765,368	32,38
765,797	32,33
766,225	32,51
766,654	32,31
767,082	32,55
767,51	32,3
767,938	32,36
768,367	32,15
768,795	32,06
769,222	32,19
769,65	32,35
770,078	32,26
770,505	32,16
770,933	32,13
771,36	31,97
771,788	32,24
772,215	31,92
772,642	32,28
773,069	32,31
773,496	32,04
773,923	32,14
774,349	31,86
774,776	32
775,203	31,62
775,629	32,11
776,055	31,87
776,482	31,96
776,908	31,78
777,334	32,03
777,76	31,92
778,186	31,96
778,611	31,88
779,037	32,17
779,463	31,84
779,888	31,88
780,314	32,09
780,739	31,73
781,164	31,79
781,589	31,81
782,014	31,88
782,439	31,85
782,864	31,84
783,289	31,64
783,713	31,54
784,138	31,66
784,562	31,76
784,987	31,74
785,411	31,58
785,835	31,68
786,259	31,58
786,683	31,91
787,107	31,64
787,531	31,67
787,954	31,88
788,378	31,81
788,802	31,68
789,225	31,63
789,648	31,7
790,071	31,73
790,495	31,82
790,918	31,41
791,34	31,63
791,763	31,73
792,186	31,58
792,609	31,78
793,031	31,61
793,454	31,64
793,876	31,6
794,298	31,59
794,721	31,56
795,143	31,55
795,565	31,41
795,986	31,54
796,408	31,68
796,83	31,55
797,252	31,47
797,673	31,6
798,094	31,49
798,516	31,57
798,937	31,42
799,358	31,39
799,779	31,43
800,2	31,58
800,621	31,42
801,042	31,49
801,462	31,46
801,883	31,54
802,303	31,35
802,724	31,41
803,144	31,7
803,564	31,56
803,984	31,34
804,404	31,42
804,824	31,45
805,244	31,56
805,664	31,79
806,084	31,45
806,503	31,46
806,923	31,34
807,342	31,33
807,761	31,27
808,18	31,32
808,599	31,23
809,018	31,49
809,437	31,23
809,856	31,3
810,275	31,33
810,693	31,38
811,112	31,48
811,53	31,23
811,949	31,2
812,367	31,33
812,785	31,21
813,203	31,21
813,621	31,37
814,039	31,44
814,457	31,49
814,874	31,39
815,292	31,31
815,709	31,51
816,127	31,26
816,544	31,43
816,961	31,45
817,378	31,19
817,795	31,22
818,212	31,19
818,629	31,25
819,046	31,56
819,462	31,33
819,879	31,15
820,295	31,28
820,712	31,09
821,128	31,18
821,544	31,26
821,96	31,27
822,376	31,21
822,792	31,26
823,208	31,08
823,624	31,12
824,039	31,2
824,455	31,38
824,87	31,3
825,286	31,38
825,701	31,1
826,116	31,26
826,531	31,31
826,946	31,19
827,361	31,34
827,776	31,35
828,19	31,22
828,605	31,12
829,02	31,28
829,434	31,29
829,848	31,04
830,263	31,27
830,677	31,07
831,091	31,11
831,505	31,27
831,919	31,46
832,332	31,25
832,746	31,15
833,16	31,13
833,573	31,24
833,987	31,24
834,4	31,13
834,813	31,13
835,226	31,18
835,639	30,99
836,052	31,29
836,465	31,3
836,878	31,23
837,29	31,23
837,703	31,18
838,116	31,03
838,528	30,95
838,94	31,05
839,352	31,24
839,765	31,01
840,177	31,14
840,589	31,13
841	31,06
841,412	31,14
841,824	31,14
842,235	31,13
842,647	31,14
843,058	31,03
843,47	31,19
843,881	31,06
844,292	30,86
844,703	31,11
845,114	31,04
845,525	31,29
845,935	31,12
846,346	31,03
846,757	31,03
847,167	31,36
847,577	31,16
847,988	31,05
848,398	31,11
848,808	31
849,218	31,15
849,628	30,96
850,038	31,19
850,448	30,95
850,857	31,13
851,267	30,95
851,676	31,19
852,086	31,12
852,495	30,98
852,904	31,08
853,313	31,13
853,722	31
854,131	30,92
854,54	31,09
854,949	31,02
855,357	31,14
855,766	30,85
856,174	30,98
856,583	30,91
856,991	30,89
857,399	31,1
857,807	30,85
858,215	30,96
858,623	30,78
859,031	30,99
859,439	30,74
859,846	31,16
860,254	31,07
860,661	31,05
861,069	30,94
861,476	31,2
861,883	31,09
862,29	30,5
862,697	30,74
863,104	30,88
863,511	31,04
863,918	30,75
864,325	31,02
864,731	31,01
865,138	30,97
865,544	31,22
865,95	31,06
866,357	30,92
866,763	30,74
867,169	30,76
867,575	30,94
867,98	30,76
868,386	30,74
868,792	31,03
869,197	31,01
869,603	30,78
870,008	30,84
870,414	30,72
870,819	31,13
871,224	30,69
871,629	30,81
872,034	30,65
872,439	30,73
872,844	31,07
873,248	30,67
873,653	31,08
874,057	31,05
874,462	30,75
874,866	30,98
875,27	30,77
875,674	31,08
876,078	31,01
876,482	31,17
876,886	31
877,29	31,07
877,694	30,93
878,097	30,99
878,501	31,06
878,904	30,72
879,308	31,09
879,711	30,97
880,114	31,01
880,517	30,86
880,92	30,88
881,323	30,75
881,726	30,89
882,128	31,02
882,531	30,79
882,934	30,76
883,336	30,89
883,738	30,75
884,141	31,03
884,543	30,68
884,945	30,96
885,347	30,9
885,749	31,02
886,151	31,06
886,552	30,76
886,954	30,91
887,355	30,92
887,757	30,83
888,158	30,7
888,56	30,89
888,961	30,85
889,362	30,95
889,763	30,84
890,164	31,04
890,565	30,63
890,965	30,98
891,366	30,6
891,767	30,93
892,167	31,01
892,567	30,74
892,968	30,72
893,368	30,95
893,768	30,9
894,168	30,67
894,568	30,99
894,968	30,77
895,368	30,73
895,767	30,9
896,167	30,66
896,566	30,87
896,966	30,64
897,365	30,85
897,764	30,74
898,164	30,84
898,563	30,94
898,962	30,64
899,361	30,92
899,759	30,53
900,158	30,75
900,557	30,9
900,955	30,92
901,354	30,85
901,752	30,52
902,15	30,98
902,548	30,76
902,947	30,55
903,345	30,96
903,742	30,94
904,14	30,73
904,538	30,81
904,936	30,83
905,333	30,79
905,731	31,31
906,128	30,59
906,525	30,77
906,923	30,81
907,32	30,75
907,717	31,19
908,114	30,86
908,511	31,06
908,907	30,9
909,304	30,45
909,701	30,8
910,097	30,75
910,494	30,58
910,89	30,77
911,286	30,96
911,682	30,64
912,078	30,9
912,474	30,84
912,87	30,72
913,266	30,81
913,662	30,71
914,058	30,6
914,453	30,92
914,849	30,61
915,244	30,62
915,639	30,83
916,034	30,9
916,43	30,72
916,825	30,44
917,22	30,94
917,614	30,94
918,009	30,8
918,404	30,82
918,798	31,03
919,193	30,57
919,587	30,65
919,982	30,77
920,376	31,01
920,77	30,81
921,164	30,97
921,558	30,71
921,952	30,95
922,346	30,4
922,74	30,9
923,133	30,6
923,527	30,79
923,92	30,69
924,314	30,69
924,707	30,88
925,1	30,52
925,493	30,96
925,886	30,77
926,279	31,27
926,672	30,4
927,065	30,89
927,457	30,79
927,85	31,02
928,243	30,62
928,635	30,72
929,027	30,52
929,42	30,98
929,812	30,7
930,204	30,97
930,596	30,72
930,988	30,43
931,379	30,69
931,771	30,79
932,163	30,85
932,554	30,5
932,946	30,49
933,337	30,6
933,729	30,81
934,12	30,59
934,511	30,73
934,902	30,66
935,293	31,19
935,684	30,97
936,075	30,65
936,465	30,76
936,856	30,3
937,246	30,43
937,637	30,39
938,027	30,12
938,417	30,51
938,808	30,44
939,198	31,05
939,588	30,58
939,978	30,39
940,368	30,58
940,757	30,25
941,147	30,44
941,537	30,75
941,926	30,82
942,315	30,75
942,705	30,9
943,094	30,26
943,483	30,82
943,872	30,69
944,261	30,46
944,65	30,22
945,039	30,42
945,428	30,54
945,816	30,18
946,205	30,82
946,593	30,63
946,982	30,46
947,37	30,34
947,758	30,68
948,146	30,69
948,534	30,51
948,922	30,92
949,31	30,42
949,698	30,46
950,086	30,03
950,473	30,68
950,861	29,87
951,248	30,06
951,636	30,41
952,023	30,52
952,41	29,85
952,797	29,96
953,184	29,91
953,571	29,7
953,958	30,13
954,345	30,01
954,731	30,3
955,118	30,45
955,505	30,16
955,891	30,44
956,277	30,34
956,664	29,86
957,05	29,73
957,436	30,33
957,822	29,8
958,208	30,46
958,594	30,02
958,979	29,67
959,365	30,28
959,751	30,21
960,136	30,14
960,522	30,21
960,907	30,25
961,292	30,14
961,677	30,58
962,062	30,07
962,447	29,81
962,832	29,98
963,217	30,4
963,602	30,04
963,986	30,47
964,371	29,95
964,756	29,99
965,14	30,12
965,524	30,06
965,908	29,84
966,293	30,41
966,677	30,26
967,061	29,94
967,445	29,53
967,828	29,7
968,212	30,38
968,596	29,88
968,979	29,92
969,363	30,16
969,746	29,99
970,129	30,13
970,513	29,47
970,896	29,95
971,279	30,4
971,662	29,28
972,045	30,4
972,428	30,02
972,81	30,38
973,193	29,91
973,575	30,36
973,958	30,24
974,34	30,15
974,723	29,92
975,105	30,13
975,487	30,4
975,869	30,09
976,251	30,28
976,633	30,29
977,015	30,22
977,396	30,28
977,778	30,4
978,16	30,27
978,541	30,3
978,922	30,02
979,304	30,11
979,685	30,23
980,066	30,11
980,447	30,26
980,828	29,84
981,209	30,12
981,59	29,62
981,97	30,29
982,351	30,07
982,732	30,27
983,112	30,72
983,493	30,25
983,873	29,75
984,253	30,37
984,633	29,94
985,013	30,25
985,393	29,99
985,773	30,02
986,153	30,4
986,533	30,43
986,912	30,04
987,292	30,26
987,671	30,19
988,051	30,25
988,43	30,15
988,809	30,11
989,188	30,86
989,567	30,51
989,946	30,39
990,325	30,62
990,704	30,72
991,083	30,23
991,461	30,46
991,84	30,11
992,218	30,76
992,597	30,03
992,975	30,55
993,353	30,11
993,732	30,83
994,11	30,3
994,488	29,96
994,866	30,17
995,243	29,95
995,621	29,83
995,999	29,95
996,376	30,54
996,754	30,63
997,131	30,81
997,509	30,09
997,886	30,11
998,263	30,39
998,64	30,1
999,017	30,36
999,394	30,43
999,771	30,4
1000,148	30,24
1000,524	30,3
1000,901	30,47
1001,277	30,47
1001,654	30,41
1002,03	30,67
1002,406	29,82
1002,783	29,9
1003,159	30,78
1003,535	30
1003,911	30,32
1004,286	30,34
1004,662	30,27
1005,038	30,25
1005,414	30,52
1005,789	29,98
1006,164	30,37
1006,54	30,32
1006,915	29,75
1007,29	30,75
1007,665	30,32
1008,04	30,07
1008,415	30,74
1008,79	30,23
1009,165	30,37
1009,54	30,35
1009,914	30,2
1010,289	30,42
1010,663	30,13
1011,038	29,96
1011,412	30,64
1011,786	30,15
1012,16	30,51
1012,535	30,34
1012,909	30,77
1013,282	30,49
1013,656	30,22
1014,03	30,53
1014,404	30,36
1014,777	30,26
1015,151	30,91
1015,524	30
1015,897	30,88
1016,271	30,45
1016,644	30,06
1017,017	30,02
1017,39	30,17
1017,763	30,5
1018,136	29,9
1018,508	30,92
1018,881	30,28
1019,254	30,87
1019,626	30,18
1019,999	30,74
1020,371	30,4
1020,743	30,21
1021,116	30,77
1021,488	30,2
1021,86	30,53
1022,232	30,68
1022,604	30,4
1022,975	30,59
1023,347	30,81
1023,719	30,26
1024,09	30,43
1024,462	30,26
1024,833	30,23
1025,204	30,52
1025,576	30,52
1025,947	30,49
1026,318	30,4
1026,689	29,99
1027,06	29,9
1027,431	30,5
1027,801	30,47
1028,172	30,94
1028,543	30,85
1028,913	30,46
1029,284	30,4
1029,654	30
1030,024	30,35
1030,394	30,42
1030,764	30,96
1031,135	30,64
1031,504	30,67
1031,874	30,27
1032,244	30,67
1032,614	30,24
1032,983	30,3
1033,353	30,88
1033,722	30,32
1034,092	30,5
1034,461	30,57
1034,83	30,32
1035,2	30,1
1035,569	30,56
1035,938	30,87
1036,307	30,98
1036,675	30,18
1037,044	30,91
1037,413	30,08
1037,781	30,28
1038,15	30,11
1038,518	30,04
1038,887	30,41
1039,255	30,13
1039,623	30,46
1039,991	30,53
1040,359	30,47
1040,727	30,62
1041,095	30,65
1041,463	30,68
1041,831	30,36
1042,198	29,99
1042,566	30,78
1042,933	30,47
1043,301	29,68
1043,668	30,04
1044,035	30,54
1044,402	30,59
1044,77	30,36
1045,137	30,5
1045,503	30,57
1045,87	30,83
1046,237	29,8
1046,604	30,35
1046,97	30,92
1047,337	31,07
1047,703	30,62
1048,07	30,52
1048,436	31,12
1048,802	30,17
1049,168	30,36
1049,534	30,25
1049,9	30,48
1050,266	30,95
1050,632	30,56
1050,998	31,15
1051,364	30,96
1051,729	30,73
1052,095	30,7
1052,46	30,58
1052,825	30,56
1053,191	31,07
1053,556	30,1
1053,921	30,19
1054,286	31,11
1054,651	31,17
1055,016	30,63
1055,381	30,3
1055,745	29,98
1056,11	30,95
1056,475	30,63
1056,839	30,26
1057,203	30,18
1057,568	30,42
1057,932	30,45
1058,296	30,72
1058,66	30,53
1059,024	30,39
1059,388	30,58
1059,752	31,35
1060,116	30,79
1060,48	31,21
1060,843	31,2
1061,207	31,41
1061,57	30,79
1061,934	31,23
1062,297	31,23
1062,66	30,86
1063,023	30,58
1063,386	30,79
1063,749	30,23
1064,112	30,15
1064,475	30,49
1064,838	29,98
1065,201	30,37
1065,563	30,22
1065,926	29,91
1066,288	30,67
1066,651	29,08
1067,013	30,31
1067,375	30,94
1067,737	30,06
1068,099	31,49
1068,461	29,87
1068,823	31,42
1069,185	29,98
1069,547	29,56
1069,909	29,75
1070,27	32,18
1070,632	29,8
1070,993	29,56
1071,355	31,1
1071,716	31,04
1072,077	30,78
1072,438	30,51
1072,799	30,01
1073,16	30,23
1073,521	30,31
1073,882	30,37
1074,243	30,25
1074,603	31,24
1074,964	29,8
1075,325	30,64
1075,685	30,83
1076,045	30,54
1076,406	30,59
1076,766	30,93
1077,126	31,3
1077,486	30,25
1077,846	30,14
1078,206	29,54
1078,566	30,93
1078,925	32,39
1079,285	31,63
1079,645	32,3
1080,004	30,31
1080,364	30,8
1080,723	31,13
1081,082	31,38
1081,442	30,58
1081,801	31,2
1082,16	30,56
1082,519	31,07
1082,878	30,61
1083,237	29,94
1083,595	31,16
1083,954	30,39
1084,313	30,87
1084,671	30,96
1085,03	30,45
1085,388	30,33
1085,746	30,98
1086,104	32,17
1086,463	30,79
1086,821	30,77
1087,179	31,2
1087,537	31,62
1087,894	30,93
1088,252	29,87
1088,61	30,47
1088,967	31,3
1089,325	29,13
1089,682	29,22
1090,04	30,15
1090,397	29,95
1090,754	30,94
1091,111	31,27
1091,469	29,75
1091,826	29,54
1092,182	30,08
1092,539	30,63
1092,896	30,73
1093,253	29,76
1093,609	32,5
1093,966	30,32
1094,322	31,17
1094,679	32,02
1095,035	31,33
1095,391	29,56
1095,748	31,87
1096,104	30,28
1096,46	31,03
1096,816	30,83
1097,171	30,53
1097,527	30,75
1097,883	31,41
1098,239	31,72
1098,594	29,58
1098,95	31,88
1099,305	30,43
1099,66	31,2
1100,016	30,98
1100,371	32,99
1100,726	29,58
1101,081	30,05
1101,436	31,52
1101,791	29,97
1102,146	29,18
1102,5	31,09
1102,855	30,68
1103,21	31,34
1103,564	31,55
1103,918	31,14
1104,273	31,31
1104,627	30,65
1104,981	32,02
1105,335	31,63
1105,69	32,53
1106,043	29,4
1106,397	29,1
1106,751	31,93
1107,105	30,85
1107,459	30,55
1107,812	28,71
1108,166	31,62
1108,519	29,38
1108,873	31,06
1109,226	30,37
1109,579	32,14
1109,932	31,83
1110,285	29,59
1110,638	31,79
1110,991	32,18
1111,344	32,6
1111,697	31,37
1112,05	32,21
1112,402	32,59
1112,755	30,04
1113,107	30,47
1113,46	32,36
1113,812	33,01
1114,164	31,47
1114,517	32,01
1114,869	31,62
1115,221	42,74
1115,573	40,57
1115,924	40,15
