Data from C_2__Relative__5__00037.txt Node

Date: Mon Jan 29 18:11:26 CET 2024
User: diatiterra
Spectrometer: HDX00911
Trigger mode: 0
Integration Time (sec): 6,000000E-3
Scans to average: 2
Nonlinearity correction enabled: false
Boxcar width: 0
Storing dark spectrum: false
XAxis mode: Wavelengths
Number of Pixels in Spectrum: 2068
>>>>>Begin Spectral Data<<<<<
194,468	30,39
195,025	31,86
195,581	30,85
196,138	20
196,694	33,33
197,251	24,44
197,807	24
198,363	22,91
198,919	24,91
199,474	24,29
200,03	20,96
200,586	28,23
201,141	27,72
201,696	22,84
202,251	29,89
202,806	25,94
203,361	25,96
203,916	34,59
204,471	21,83
205,025	24,64
205,58	23,3
206,134	24,81
206,688	23,19
207,242	22,45
207,796	20
208,35	25,63
208,904	23,39
209,457	24,19
210,011	23,43
210,564	21,18
211,117	23,24
211,67	25
212,223	22,95
212,776	23,6
213,329	19,59
213,881	19,64
214,434	29,31
214,986	23,91
215,538	21,98
216,09	19,02
216,642	22,59
217,194	25,5
217,746	21,21
218,297	16,11
218,849	22,74
219,4	23,43
219,951	23,64
220,502	27,18
221,053	27,27
221,604	32,55
222,155	26,75
222,705	23,41
223,256	26,98
223,806	25,85
224,356	28,62
224,906	22,96
225,456	16,9
226,006	21,14
226,556	23,72
227,106	23,78
227,655	27,53
228,204	23,36
228,754	25,52
229,303	20,68
229,852	27,12
230,401	22,22
230,949	33,07
231,498	24,25
232,047	24,24
232,595	25,18
233,143	27,27
233,691	27,6
234,239	25,75
234,787	22,38
235,335	23,47
235,883	21,86
236,43	26,3
236,978	22,55
237,525	22,39
238,072	21,4
238,619	18,15
239,166	26,26
239,713	21,93
240,26	26,22
240,806	26,24
241,353	26,86
241,899	26,86
242,445	27,27
242,991	26,83
243,537	30,03
244,083	21,82
244,629	26,01
245,174	31,34
245,72	27,42
246,265	26,15
246,81	31,02
247,355	18,01
247,9	19,72
248,445	27,93
248,99	16,61
249,534	30,06
250,079	23,51
250,623	22,71
251,168	23,15
251,712	32,98
252,256	31,23
252,8	39,93
253,343	28,03
253,887	27,21
254,43	31,23
254,974	26,92
255,517	31,21
256,06	23,29
256,603	26,79
257,146	30,64
257,689	28,16
258,232	27,59
258,774	31
259,317	32,23
259,859	23,25
260,401	27,65
260,943	25,75
261,485	33,69
262,027	31,72
262,569	28,95
263,11	28,16
263,652	30,51
264,193	25
264,734	30,56
265,275	21,29
265,816	32,73
266,357	29,5
266,898	25,94
267,438	28,24
267,979	29,45
268,519	21,3
269,059	25,53
269,6	29,82
270,14	26,73
270,68	31,42
271,219	24,21
271,759	29,85
272,298	25,45
272,838	22,09
273,377	27,41
273,916	32,85
274,455	26,44
274,994	30,58
275,533	22,87
276,072	19,55
276,61	28,67
277,149	21,38
277,687	31,67
278,225	27,74
278,763	33,33
279,301	27,55
279,839	33,7
280,377	23,36
280,914	22,34
281,452	28,46
281,989	33,11
282,526	31,54
283,064	22,92
283,601	34,85
284,137	25,91
284,674	28,3
285,211	20,14
285,747	30,51
286,284	26,32
286,82	30,5
287,356	29,9
287,892	30,18
288,428	26,78
288,964	28,88
289,5	33,67
290,035	28,06
290,571	26,49
291,106	24
291,641	24,14
292,176	31,95
292,711	29,31
293,246	23,47
293,781	23,79
294,315	22,79
294,85	32,12
295,384	34,44
295,918	23
296,453	29,68
296,987	33,45
297,52	24,32
298,054	23,9
298,588	21,65
299,121	25,27
299,655	29,82
300,188	23,19
300,721	31,03
301,254	30,6
301,787	29,67
302,32	33,71
302,853	28,57
303,385	30,4
303,918	29,47
304,45	33,2
304,982	27,09
305,514	25,09
306,046	26,32
306,578	27,14
307,11	30,86
307,641	25,09
308,173	20,45
308,704	34,87
309,236	32,21
309,767	27,92
310,298	28,57
310,829	32,32
311,359	34,16
311,89	29,89
312,421	31,88
312,951	28,73
313,481	36,14
314,012	30,77
314,542	34,25
315,072	33,45
315,601	29,54
316,131	24,82
316,661	35,83
317,19	29,89
317,72	32,6
318,249	31,76
318,778	28,52
319,307	29,73
319,836	32,89
320,365	29,97
320,893	26,95
321,422	32,84
321,95	27,41
322,479	31,49
323,007	28,26
323,535	33,58
324,063	32,46
324,591	29,67
325,118	27,27
325,646	28,08
326,173	40
326,701	37,09
327,228	28,75
327,755	26,16
328,282	25,66
328,809	22,96
329,336	26,64
329,862	28,08
330,389	26,62
330,915	28,37
331,441	28,47
331,968	29,9
332,494	22,74
333,02	28,83
333,545	27,8
334,071	24,67
334,597	26,69
335,122	26,09
335,648	24,91
336,173	26,73
336,698	22,6
337,223	35,15
337,748	23,51
338,272	21,78
338,797	33,66
339,322	22,92
339,846	32,03
340,37	21,61
340,894	34,59
341,419	29,19
341,942	26,85
342,466	26,96
342,99	22,46
343,514	21,1
344,037	27,87
344,56	24,14
345,084	21,14
345,607	25,53
346,13	26,15
346,653	21,07
347,175	22,58
347,698	19,94
348,221	17,44
348,743	25,07
349,265	19,94
349,787	25,43
350,309	26,72
350,831	21,49
351,353	28,57
351,875	23,03
352,397	25,9
352,918	24,29
353,439	27,91
353,961	20,28
354,482	22,47
355,003	26,81
355,524	25,26
356,044	25,59
356,565	24,44
357,086	20,87
357,606	24,34
358,126	26,76
358,646	24,88
359,167	21,38
359,687	27,12
360,206	20
360,726	18,2
361,246	23,61
361,765	19,74
362,285	21,8
362,804	22,67
363,323	19,27
363,842	28,33
364,361	18,4
364,88	21,31
365,398	23,18
365,917	23,82
366,435	22,96
366,954	20,44
367,472	24,31
367,99	23,41
368,508	22,46
369,026	21,51
369,544	21,27
370,061	24,96
370,579	19,7
371,096	22,45
371,613	21,28
372,131	21,3
372,648	22,2
373,165	22,7
373,681	21,37
374,198	20,66
374,715	22,92
375,231	21,94
375,747	25,79
376,264	19,97
376,78	20,57
377,296	20,41
377,812	20,03
378,327	17,93
378,843	24,67
379,359	20,87
379,874	22,13
380,389	22,42
380,905	21,35
381,42	17,75
381,935	22,93
382,449	20,33
382,964	19,98
383,479	20,82
383,993	18,75
384,508	19,79
385,022	21,94
385,536	19,46
386,05	18,65
386,564	19,52
387,078	17,59
387,592	21,56
388,105	18,39
388,619	19,17
389,132	17,97
389,645	19,55
390,158	16,54
390,671	17,86
391,184	16,41
391,697	17,24
392,21	17,26
392,722	15,91
393,235	15,79
393,747	17,54
394,259	14,09
394,771	14,85
395,283	16,88
395,795	14,75
396,307	16,5
396,818	14,9
397,33	12,73
397,841	14,87
398,353	15,05
398,864	15,33
399,375	15,54
399,886	13,62
400,397	13,17
400,907	14,14
401,418	11,69
401,928	11,55
402,439	14,59
402,949	12,86
403,459	12,61
403,969	12,34
404,479	11,11
404,989	11,39
405,498	12,01
406,008	10,03
406,517	10,93
407,027	9,74
407,536	10,47
408,045	9,35
408,554	9,35
409,063	9,38
409,572	8,17
410,08	9,35
410,589	8,26
411,097	8,58
411,606	7,47
412,114	7,76
412,622	8,08
413,13	7,93
413,638	6,76
414,145	6,89
414,653	6,83
415,16	6,35
415,668	6,39
416,175	6,52
416,682	6,71
417,189	5,83
417,696	6,31
418,203	6,09
418,71	6,21
419,216	5,2
419,723	5,4
420,229	5,5
420,735	5,42
421,242	5,14
421,748	5,65
422,254	5,03
422,759	5,39
423,265	5,22
423,771	5,33
424,276	5,51
424,781	5,25
425,287	5,09
425,792	5,41
426,297	5,52
426,802	4,82
427,306	4,83
427,811	5,15
428,316	5,66
428,82	4,52
429,324	4,7
429,829	5,13
430,333	4,85
430,837	4,68
431,34	4,24
431,844	4,47
432,348	4,68
432,851	4,69
433,355	4,72
433,858	4,34
434,361	4,72
434,864	4,82
435,367	4,59
435,87	4,56
436,373	4,56
436,876	4,07
437,378	4,64
437,88	4,33
438,383	4,63
438,885	4,59
439,387	4,3
439,889	4,64
440,391	4,65
440,892	4,53
441,394	4,4
441,896	4,69
442,397	4,41
442,898	4,26
443,399	4,76
443,9	4,67
444,401	4,58
444,902	4,63
445,403	4,48
445,903	4,44
446,404	4,69
446,904	4,62
447,405	4,83
447,905	4,87
448,405	4,87
448,905	4,8
449,404	4,86
449,904	4,89
450,404	4,41
450,903	4,62
451,403	4,79
451,902	5,13
452,401	5,14
452,9	4,86
453,399	5,27
453,898	5,35
454,396	4,95
454,895	4,78
455,393	4,73
455,892	5,08
456,39	5,42
456,888	5,23
457,386	5,07
457,884	5,19
458,382	5
458,879	4,98
459,377	5,24
459,874	5,02
460,372	4,85
460,869	5,12
461,366	5,09
461,863	5,17
462,36	4,89
462,857	5,04
463,353	5,01
463,85	5,07
464,346	5,08
464,843	5,33
465,339	5,36
465,835	4,91
466,331	4,94
466,827	5,3
467,323	5
467,818	5,1
468,314	5,07
468,809	4,99
469,305	5,26
469,8	5,44
470,295	5,2
470,79	5,19
471,285	5,05
471,78	5,03
472,274	5,17
472,769	5,26
473,263	5,11
473,758	5,41
474,252	5,04
474,746	5,44
475,24	5,16
475,734	5,4
476,228	5,29
476,721	4,98
477,215	5,31
477,708	5,35
478,202	5,27
478,695	5,36
479,188	5,33
479,681	5,21
480,174	5,13
480,667	5,28
481,159	5,18
481,652	5,39
482,144	5,25
482,637	5,33
483,129	5,51
483,621	5,52
484,113	5,45
484,605	5,41
485,097	5,45
485,588	5,45
486,08	5,62
486,571	5,56
487,063	5,58
487,554	5,67
488,045	5,71
488,536	5,39
489,027	5,69
489,518	5,72
490,008	5,73
490,499	5,61
490,989	5,97
491,48	5,82
491,97	6,01
492,46	5,66
492,95	6,05
493,44	5,99
493,93	6,21
494,419	6,17
494,909	6,09
495,398	6,32
495,888	6,43
496,377	6,43
496,866	6,63
497,355	6,6
497,844	6,66
498,333	6,82
498,821	6,55
499,31	6,71
499,798	6,93
500,287	7
500,775	6,96
501,263	7,31
501,751	7,38
502,239	7,37
502,727	7,54
503,215	7,67
503,702	8,15
504,19	8,04
504,677	7,89
505,164	8,22
505,651	8,25
506,139	8,46
506,625	8,62
507,112	8,85
507,599	8,7
508,086	8,97
508,572	9,34
509,058	9,29
509,545	9,62
510,031	9,77
510,517	10,11
511,003	9,9
511,489	10,58
511,974	10,44
512,46	10,75
512,946	10,98
513,431	11,11
513,916	11,29
514,401	11,3
514,887	11,7
515,371	12,09
515,856	12,11
516,341	12,3
516,826	12,7
517,31	12,76
517,795	12,92
518,279	13,28
518,763	13,42
519,247	13,39
519,731	13,99
520,215	14,13
520,699	14,27
521,182	14,4
521,666	14,9
522,149	14,81
522,633	15,28
523,116	15,44
523,599	15,39
524,082	15,56
524,565	16,07
525,048	15,82
525,53	16,59
526,013	16,64
526,495	16,67
526,978	16,48
527,46	17,01
527,942	17,22
528,424	17,34
528,906	17,28
529,388	17,43
529,87	17,72
530,351	17,68
530,833	17,64
531,314	18,12
531,795	18,12
532,277	18,4
532,758	18,43
533,238	18,29
533,719	18,73
534,2	18,55
534,681	18,39
535,161	18,83
535,642	18,72
536,122	18,73
536,602	19,05
537,082	18,87
537,562	19,26
538,042	18,91
538,522	18,87
539,001	19,03
539,481	19,21
539,96	18,49
540,44	19,29
540,919	19,36
541,398	19,37
541,877	19,25
542,356	19,27
542,835	19,17
543,313	19,17
543,792	19,23
544,27	19,31
544,749	19,41
545,227	19,53
545,705	19,57
546,183	19,32
546,661	19,66
547,139	19,67
547,616	19,42
548,094	19,9
548,571	19,43
549,049	19,86
549,526	19,68
550,003	19,67
550,48	19,69
550,957	19,71
551,434	19,44
551,911	19,59
552,387	19,58
552,864	20,03
553,34	19,89
553,817	19,85
554,293	19,77
554,769	19,78
555,245	19,95
555,721	19,73
556,197	19,92
556,672	19,61
557,148	19,42
557,623	19,87
558,099	19,6
558,574	19,8
559,049	19,73
559,524	19,51
559,999	19,47
560,474	19,45
560,948	19,55
561,423	19,74
561,897	19,39
562,372	19,75
562,846	19,42
563,32	19,29
563,794	19,07
564,268	19,3
564,742	18,96
565,216	19,25
565,69	19,24
566,163	18,84
566,636	18,88
567,11	18,64
567,583	18,6
568,056	18,68
568,529	18,33
569,002	18,35
569,475	18,25
569,947	18,07
570,42	18,1
570,892	17,93
571,365	17,76
571,837	17,73
572,309	17,68
572,781	17,5
573,253	17,35
573,725	17,39
574,197	17,17
574,668	17,26
575,14	16,94
575,611	16,93
576,082	16,76
576,554	16,58
577,025	16,61
577,496	16,34
577,967	16,25
578,437	16,32
578,908	16,1
579,379	16,17
579,849	16,16
580,319	16,09
580,79	15,88
581,26	15,95
581,73	15,85
582,2	15,49
582,669	15,61
583,139	15,48
583,609	15,34
584,078	15,35
584,548	15,1
585,017	15,2
585,486	14,92
585,955	15,19
586,424	15,04
586,893	15,05
587,362	14,98
587,83	14,99
588,299	14,79
588,767	14,58
589,236	14,88
589,704	14,67
590,172	14,75
590,64	14,38
591,108	14,32
591,576	14,5
592,043	14,27
592,511	14,31
592,978	14,35
593,446	14,38
593,913	14,3
594,38	14,4
594,847	14,37
595,314	14,19
595,781	14,23
596,248	14,08
596,715	14,1
597,181	13,91
597,647	14,17
598,114	14,04
598,58	13,98
599,046	13,95
599,512	13,86
599,978	14,11
600,444	13,77
600,91	13,74
601,375	13,99
601,841	13,69
602,306	13,68
602,771	13,76
603,236	13,7
603,702	13,84
604,167	13,79
604,631	13,59
605,096	13,42
605,561	13,52
606,025	13,49
606,49	13,44
606,954	13,29
607,418	13,31
607,882	13,12
608,347	13,17
608,81	13,05
609,274	13,16
609,738	12,87
610,202	13,02
610,665	12,83
611,128	12,89
611,592	12,86
612,055	12,63
612,518	12,58
612,981	12,57
613,444	12,34
613,907	12,22
614,369	12,38
614,832	12,39
615,294	12,23
615,757	12,09
616,219	11,99
616,681	11,95
617,143	11,89
617,605	11,76
618,067	11,95
618,529	11,72
618,99	11,69
619,452	11,61
619,913	11,65
620,375	11,47
620,836	11,51
621,297	11,64
621,758	11,35
622,219	11,58
622,68	11,44
623,14	11,3
623,601	11,21
624,061	11,39
624,522	11,37
624,982	11,24
625,442	11,19
625,902	11,01
626,362	11,13
626,822	11,15
627,282	10,99
627,742	10,92
628,201	11,18
628,661	11,17
629,12	10,94
629,579	11,01
630,038	11,01
630,497	10,97
630,956	11,06
631,415	11,03
631,874	10,83
632,332	10,94
632,791	11,03
633,249	10,76
633,708	10,77
634,166	10,66
634,624	10,77
635,082	10,53
635,54	10,65
635,998	10,51
636,455	10,5
636,913	10,38
637,37	10,29
637,828	10,43
638,285	10,15
638,742	10,02
639,199	9,94
639,656	9,94
640,113	9,8
640,57	9,7
641,027	9,61
641,483	9,62
641,94	9,41
642,396	9,38
642,852	9,32
643,309	9,11
643,765	9,04
644,221	8,99
644,676	8,99
645,132	8,8
645,588	8,73
646,043	8,63
646,499	8,46
646,954	8,46
647,409	8,29
647,864	8,13
648,319	8,24
648,774	8,11
649,229	8,04
649,684	7,98
650,139	7,8
650,593	7,92
651,047	7,81
651,502	7,73
651,956	7,82
652,41	7,68
652,864	7,8
653,318	7,61
653,772	7,66
654,225	7,57
654,679	7,52
655,133	7,45
655,586	7,47
656,039	7,31
656,492	7,35
656,946	7,25
657,399	7,18
657,851	7,1
658,304	7,03
658,757	6,95
659,209	6,83
659,662	6,82
660,114	6,66
660,567	6,65
661,019	6,59
661,471	6,45
661,923	6,37
662,375	6,36
662,826	6,1
663,278	6,12
663,73	6,12
664,181	5,97
664,632	6,08
665,084	6,02
665,535	5,86
665,986	5,82
666,437	5,85
666,888	5,78
667,338	5,77
667,789	5,69
668,24	5,73
668,69	5,78
669,14	5,67
669,591	5,59
670,041	5,68
670,491	5,59
670,941	5,64
671,391	5,62
671,84	5,66
672,29	5,67
672,74	5,58
673,189	5,72
673,638	5,74
674,088	5,83
674,537	5,86
674,986	5,94
675,435	5,93
675,883	6,01
676,332	6,14
676,781	6,01
677,229	6,05
677,678	6,23
678,126	6,29
678,574	6,35
679,022	6,46
679,47	6,54
679,918	6,58
680,366	6,76
680,814	6,78
681,261	6,85
681,709	6,9
682,156	7,04
682,604	7,28
683,051	7,29
683,498	7,48
683,945	7,45
684,392	7,68
684,839	7,74
685,286	7,92
685,732	7,97
686,179	8,17
686,625	8,34
687,071	8,6
687,518	8,71
687,964	8,86
688,41	9,1
688,856	9,4
689,301	9,69
689,747	9,92
690,193	10,1
690,638	10,47
691,084	10,68
691,529	11,04
691,974	11,33
692,419	11,74
692,864	12,02
693,309	12,46
693,754	12,56
694,199	13,03
694,643	13,46
695,088	13,87
695,532	14,03
695,977	14,45
696,421	14,79
696,865	15,22
697,309	15,58
697,753	15,91
698,197	16,05
698,64	16,59
699,084	16,89
699,527	17,06
699,971	17,52
700,414	17,9
700,857	18,06
701,3	18,2
701,743	18,58
702,186	18,88
702,629	19,33
703,072	19,46
703,515	19,88
703,957	20,06
704,399	20,14
704,842	20,37
705,284	20,76
705,726	21,11
706,168	21,15
706,61	21,48
707,052	21,57
707,494	21,72
707,935	21,94
708,377	22,15
708,818	22,55
709,26	22,79
709,701	22,57
710,142	23,12
710,583	23,07
711,024	23,41
711,465	23,49
711,905	23,69
712,346	23,84
712,787	24,01
713,227	24,23
713,667	24,33
714,108	24,3
714,548	24,53
714,988	24,69
715,428	24,85
715,868	24,99
716,307	25,26
716,747	25,32
717,186	25,44
717,626	25,63
718,065	25,72
718,504	25,72
718,944	25,78
719,383	25,93
719,822	26
720,261	26,17
720,699	26,34
721,138	26,35
721,576	26,67
722,015	26,58
722,453	26,57
722,892	26,9
723,33	26,87
723,768	26,84
724,206	27,02
724,644	27,14
725,081	27,16
725,519	27,25
725,957	27,16
726,394	27,2
726,832	27,36
727,269	27,31
727,706	27,57
728,143	27,84
728,58	27,5
729,017	27,83
729,454	27,65
729,89	27,64
730,327	28,18
730,764	27,9
731,2	27,99
731,636	27,95
732,072	28,03
732,509	28,02
732,945	28,2
733,38	28,22
733,816	28,02
734,252	28,23
734,688	28,14
735,123	28,09
735,559	28,08
735,994	28,22
736,429	28,36
736,864	28,3
737,299	28,27
737,734	28,35
738,169	28,47
738,604	28,44
739,038	28,18
739,473	28,29
739,907	28,52
740,342	28,15
740,776	28,29
741,21	28,35
741,644	28,43
742,078	28,31
742,512	28,36
742,946	28,04
743,379	28,23
743,813	28,04
744,246	28,25
744,68	28,31
745,113	28,12
745,546	28,31
745,979	28,25
746,412	28,35
746,845	28,29
747,278	28,21
747,711	28,16
748,143	28,08
748,576	28,05
749,008	28,28
749,441	28,12
749,873	28,07
750,305	28,14
750,737	27,78
751,169	28,02
751,601	28,03
752,032	27,92
752,464	27,83
752,896	27,85
753,327	27,61
753,758	27,84
754,19	27,7
754,621	27,99
755,052	27,91
755,483	27,84
755,914	27,68
756,344	27,63
756,775	27,75
757,206	27,73
757,636	27,68
758,066	27,68
758,497	27,71
758,927	27,57
759,357	27,59
759,787	27,67
760,217	27,48
760,647	27,62
761,076	27,52
761,506	27,56
761,935	27,48
762,365	27,35
762,794	27,27
763,223	27,34
763,653	27,68
764,082	27,37
764,51	27,29
764,939	27,28
765,368	27,31
765,797	27,47
766,225	27,41
766,654	27,39
767,082	27,39
767,51	27,38
767,938	27,12
768,367	27,01
768,795	27,01
769,222	27,28
769,65	27,28
770,078	27,27
770,505	27,3
770,933	27,05
771,36	26,83
771,788	27,12
772,215	26,93
772,642	27,23
773,069	27,12
773,496	26,97
773,923	27,14
774,349	26,96
774,776	26,96
775,203	26,76
775,629	27,11
776,055	27
776,482	26,88
776,908	26,71
777,334	26,86
777,76	26,9
778,186	26,81
778,611	26,7
779,037	26,84
779,463	26,88
779,888	26,89
780,314	26,7
780,739	26,81
781,164	26,57
781,589	26,78
782,014	26,75
782,439	26,82
782,864	26,94
783,289	26,81
783,713	26,49
784,138	26,6
784,562	26,9
784,987	26,67
785,411	26,46
785,835	26,71
786,259	26,44
786,683	26,64
787,107	26,73
787,531	26,55
787,954	26,62
788,378	26,67
788,802	26,75
789,225	26,55
789,648	26,71
790,071	26,76
790,495	26,65
790,918	26,57
791,34	26,68
791,763	26,69
792,186	26,4
792,609	26,63
793,031	26,64
793,454	26,52
793,876	26,61
794,298	26,58
794,721	26,5
795,143	26,77
795,565	26,33
795,986	26,62
796,408	26,63
796,83	26,63
797,252	26,39
797,673	26,5
798,094	26,48
798,516	26,72
798,937	26,37
799,358	26,57
799,779	26,71
800,2	26,62
800,621	26,27
801,042	26,4
801,462	26,61
801,883	26,35
802,303	26,43
802,724	26,3
803,144	26,36
803,564	26,49
803,984	26,32
804,404	26,21
804,824	26,37
805,244	26,35
805,664	26,38
806,084	26,31
806,503	26,54
806,923	26,39
807,342	26,44
807,761	26,45
808,18	26,44
808,599	26,15
809,018	26,4
809,437	26,28
809,856	26,26
810,275	26,48
810,693	26,5
811,112	26,49
811,53	26,38
811,949	26,36
812,367	26,27
812,785	26,3
813,203	26,22
813,621	26,31
814,039	26,3
814,457	26,4
814,874	26,3
815,292	26,33
815,709	26,21
816,127	26,12
816,544	26,3
816,961	26,29
817,378	26,45
817,795	26,35
818,212	26,27
818,629	26,34
819,046	26,35
819,462	26,39
819,879	26,35
820,295	26,18
820,712	26,36
821,128	26,33
821,544	26,15
821,96	26,34
822,376	26,28
822,792	26,19
823,208	26,27
823,624	26,13
824,039	26,22
824,455	26,25
824,87	26,41
825,286	26,16
825,701	26,33
826,116	26,4
826,531	26,09
826,946	26,23
827,361	26,2
827,776	26,46
828,19	26,21
828,605	26,3
829,02	26,18
829,434	26,08
829,848	26,06
830,263	26,15
830,677	26,14
831,091	26,09
831,505	26,23
831,919	26,33
832,332	25,99
832,746	26,07
833,16	25,91
833,573	26,27
833,987	26,09
834,4	26,04
834,813	26,19
835,226	26,2
835,639	26
836,052	26,11
836,465	26,23
836,878	26,23
837,29	26,09
837,703	26,23
838,116	25,87
838,528	25,81
838,94	26,16
839,352	26,04
839,765	25,94
840,177	26,04
840,589	26,11
841	26,09
841,412	26,18
841,824	25,92
842,235	26,38
842,647	26,07
843,058	26,05
843,47	26,1
843,881	26,1
844,292	25,71
844,703	26,05
845,114	26,15
845,525	26,06
845,935	26,04
846,346	25,92
846,757	25,99
847,167	25,97
847,577	26,06
847,988	26,05
848,398	26,06
848,808	25,95
849,218	26,15
849,628	25,92
850,038	26,06
850,448	25,96
850,857	25,85
851,267	25,91
851,676	26,02
852,086	25,88
852,495	26,03
852,904	25,77
853,313	26,04
853,722	25,89
854,131	25,71
854,54	25,85
854,949	26
855,357	26,1
855,766	26,02
856,174	25,83
856,583	25,9
856,991	26,04
857,399	25,97
857,807	26,12
858,215	26,07
858,623	25,88
859,031	25,89
859,439	25,87
859,846	25,98
860,254	26,06
860,661	26,04
861,069	25,95
861,476	25,97
861,883	25,93
862,29	25,87
862,697	25,97
863,104	26,14
863,511	25,89
863,918	25,78
864,325	26,18
864,731	25,91
865,138	25,92
865,544	25,95
865,95	26,07
866,357	26
866,763	25,9
867,169	25,9
867,575	25,85
867,98	25,88
868,386	25,87
868,792	26,25
869,197	26
869,603	25,89
870,008	25,81
870,414	25,79
870,819	26,02
871,224	25,85
871,629	25,98
872,034	25,98
872,439	25,86
872,844	25,92
873,248	25,93
873,653	25,79
874,057	26
874,462	25,85
874,866	26,09
875,27	26,05
875,674	26,08
876,078	25,66
876,482	25,93
876,886	25,72
877,29	25,84
877,694	25,8
878,097	26,07
878,501	26,06
878,904	26,1
879,308	25,88
879,711	26,21
880,114	25,73
880,517	25,93
880,92	26,03
881,323	25,82
881,726	25,9
882,128	26,09
882,531	25,81
882,934	26,07
883,336	25,93
883,738	25,7
884,141	25,63
884,543	25,95
884,945	25,94
885,347	26,03
885,749	25,97
886,151	25,78
886,552	25,77
886,954	26,02
887,355	25,92
887,757	26,05
888,158	25,9
888,56	26,02
888,961	25,98
889,362	25,89
889,763	25,91
890,164	25,89
890,565	25,86
890,965	25,86
891,366	25,56
891,767	26,01
892,167	25,78
892,567	25,91
892,968	25,86
893,368	25,87
893,768	25,85
894,168	25,49
894,568	26,03
894,968	25,77
895,368	25,86
895,767	25,72
896,167	25,91
896,566	25,74
896,966	25,65
897,365	25,82
897,764	25,87
898,164	25,67
898,563	25,76
898,962	25,92
899,361	25,93
899,759	25,57
900,158	25,91
900,557	25,87
900,955	26,07
901,354	25,8
901,752	25,77
902,15	26,02
902,548	26
902,947	25,99
903,345	25,9
903,742	26
904,14	25,82
904,538	25,86
904,936	25,86
905,333	25,94
905,731	25,9
906,128	25,86
906,525	26,01
906,923	25,89
907,32	25,9
907,717	25,94
908,114	26,01
908,511	25,74
908,907	25,87
909,304	25,99
909,701	25,81
910,097	26,02
910,494	25,76
910,89	25,95
911,286	25,86
911,682	25,9
912,078	25,87
912,474	25,63
912,87	25,82
913,266	25,78
913,662	25,81
914,058	25,84
914,453	25,73
914,849	25,57
915,244	25,63
915,639	25,88
916,034	25,91
916,43	25,84
916,825	25,59
917,22	25,86
917,614	25,84
918,009	25,52
918,404	25,64
918,798	25,84
919,193	25,8
919,587	25,83
919,982	25,44
920,376	25,96
920,77	25,92
921,164	25,69
921,558	25,77
921,952	25,78
922,346	25,65
922,74	25,77
923,133	25,9
923,527	25,86
923,92	25,82
924,314	25,7
924,707	25,71
925,1	25,84
925,493	25,54
925,886	25,83
926,279	25,77
926,672	25,79
927,065	25,96
927,457	25,72
927,85	25,62
928,243	25,42
928,635	25,73
929,027	25,78
929,42	25,66
929,812	25,76
930,204	25,89
930,596	25,72
930,988	25,67
931,379	25,78
931,771	25,9
932,163	25,89
932,554	25,95
932,946	25,57
933,337	25,54
933,729	25,92
934,12	25,67
934,511	25,88
934,902	25,47
935,293	25,99
935,684	25,56
936,075	25,63
936,465	25,42
936,856	25,23
937,246	25,43
937,637	25,49
938,027	25,28
938,417	25,5
938,808	25,66
939,198	25,96
939,588	25,65
939,978	25,92
940,368	24,69
940,757	25,53
941,147	25,72
941,537	25,49
941,926	25,38
942,315	25,6
942,705	25,26
943,094	25,65
943,483	25,48
943,872	25,21
944,261	25,91
944,65	25,34
945,039	25,33
945,428	25,5
945,816	25,62
946,205	25,07
946,593	25,17
946,982	25,35
947,37	24,86
947,758	25,32
948,146	25,23
948,534	25,86
948,922	25,39
949,31	25,31
949,698	25,66
950,086	24,99
950,473	25,4
950,861	25,19
951,248	25,01
951,636	25,36
952,023	25,13
952,41	25,53
952,797	25,3
953,184	25,13
953,571	25,01
953,958	25,52
954,345	24,96
954,731	24,91
955,118	25,21
955,505	24,97
955,891	25,04
956,277	24,87
956,664	25,22
957,05	24,76
957,436	24,97
957,822	24,92
958,208	25,48
958,594	24,53
958,979	25,03
959,365	25,28
959,751	25,05
960,136	25,12
960,522	25,22
960,907	25,22
961,292	24,95
961,677	25,22
962,062	25,14
962,447	24,82
962,832	24,97
963,217	25,15
963,602	25,44
963,986	24,95
964,371	25,1
964,756	25,02
965,14	25,08
965,524	25
965,908	24,83
966,293	25,12
966,677	25,32
967,061	25,2
967,445	25,29
967,828	24,71
968,212	24,84
968,596	24,81
968,979	25
969,363	25,11
969,746	25,03
970,129	24,88
970,513	25,08
970,896	25,01
971,279	25,36
971,662	24,63
972,045	25,33
972,428	25,05
972,81	25,03
973,193	25,05
973,575	25,12
973,958	25,11
974,34	25,15
974,723	25,12
975,105	25,1
975,487	25,14
975,869	25,21
976,251	24,86
976,633	24,93
977,015	25,3
977,396	25,12
977,778	25,12
978,16	24,89
978,541	24,81
978,922	24,89
979,304	25,1
979,685	25,05
980,066	25,47
980,447	24,99
980,828	25
981,209	25,07
981,59	25,07
981,97	25,3
982,351	24,89
982,732	25,18
983,112	25,1
983,493	25,07
983,873	25,21
984,253	24,83
984,633	25,18
985,013	25,09
985,393	25,42
985,773	25,05
986,153	24,93
986,533	25,1
986,912	25,03
987,292	25,24
987,671	25,45
988,051	24,94
988,43	24,91
988,809	24,84
989,188	25,12
989,567	25,18
989,946	25,1
990,325	25,23
990,704	25,36
991,083	25,19
991,461	25,29
991,84	25,02
992,218	25,54
992,597	24,98
992,975	25,68
993,353	25
993,732	25,44
994,11	25,6
994,488	25,12
994,866	25,18
995,243	25,03
995,621	25,5
995,999	25,08
996,376	25,28
996,754	25,28
997,131	25,73
997,509	25,31
997,886	24,84
998,263	25,24
998,64	25,15
999,017	25,3
999,394	25,17
999,771	24,82
1000,148	24,87
1000,524	25,31
1000,901	25,17
1001,277	25,06
1001,654	25,14
1002,03	25,38
1002,406	24,9
1002,783	25,14
1003,159	25,53
1003,535	24,93
1003,911	25,25
1004,286	25,15
1004,662	25,34
1005,038	24,77
1005,414	25,52
1005,789	25,33
1006,164	25,48
1006,54	25,46
1006,915	25,22
1007,29	25,33
1007,665	25,2
1008,04	24,68
1008,415	25,3
1008,79	25,58
1009,165	25,31
1009,54	25,35
1009,914	25,26
1010,289	25,44
1010,663	25,26
1011,038	25,15
1011,412	25,3
1011,786	25,03
1012,16	25,25
1012,535	25,26
1012,909	25,36
1013,282	25,1
1013,656	25,25
1014,03	25,32
1014,404	25,31
1014,777	25,59
1015,151	25,36
1015,524	25,13
1015,897	25,67
1016,271	25,71
1016,644	25,32
1017,017	25,4
1017,39	25,45
1017,763	24,92
1018,136	25,27
1018,508	25,94
1018,881	25,29
1019,254	25,58
1019,626	25,53
1019,999	25,42
1020,371	25,28
1020,743	25,89
1021,116	25,43
1021,488	25,26
1021,86	25,36
1022,232	25,3
1022,604	25,02
1022,975	25,48
1023,347	25,37
1023,719	25,03
1024,09	25,46
1024,462	25,42
1024,833	25,35
1025,204	25,28
1025,576	25,88
1025,947	25,59
1026,318	25,4
1026,689	25,72
1027,06	25,59
1027,431	25,2
1027,801	25,41
1028,172	25,91
1028,543	25,12
1028,913	25,46
1029,284	25,27
1029,654	24,68
1030,024	25,16
1030,394	25,26
1030,764	25,68
1031,135	26,07
1031,504	25,51
1031,874	25,21
1032,244	25,12
1032,614	25,67
1032,983	25,44
1033,353	25,88
1033,722	25,47
1034,092	26,06
1034,461	25,4
1034,83	25,6
1035,2	25,49
1035,569	25,83
1035,938	25,51
1036,307	25,39
1036,675	25,61
1037,044	25,74
1037,413	25,52
1037,781	25,15
1038,15	25,32
1038,518	25,48
1038,887	25,79
1039,255	25,45
1039,623	24,84
1039,991	25,96
1040,359	25,43
1040,727	25,4
1041,095	25,46
1041,463	25,52
1041,831	25,22
1042,198	25,65
1042,566	25,13
1042,933	24,98
1043,301	25,97
1043,668	25,1
1044,035	25,26
1044,402	25,58
1044,77	25,82
1045,137	25,66
1045,503	25,35
1045,87	26,18
1046,237	25,34
1046,604	25,01
1046,97	25,66
1047,337	25,32
1047,703	24,86
1048,07	25,47
1048,436	25,34
1048,802	25,62
1049,168	25,64
1049,534	25,69
1049,9	25,68
1050,266	25,4
1050,632	25,63
1050,998	25,78
1051,364	25,72
1051,729	25,18
1052,095	25,57
1052,46	25,98
1052,825	24,71
1053,191	25,7
1053,556	25,94
1053,921	25,61
1054,286	26
1054,651	25,21
1055,016	25,97
1055,381	26,2
1055,745	25,36
1056,11	25,62
1056,475	25,2
1056,839	25,56
1057,203	25,5
1057,568	25,29
1057,932	25,82
1058,296	25,39
1058,66	24,91
1059,024	25,43
1059,388	25,85
1059,752	25,49
1060,116	26,06
1060,48	25,41
1060,843	24,86
1061,207	25,5
1061,57	25,55
1061,934	25,66
1062,297	25,81
1062,66	26,6
1063,023	26,25
1063,386	25,09
1063,749	25,42
1064,112	25,96
1064,475	26,05
1064,838	25,08
1065,201	26,32
1065,563	24,98
1065,926	24,15
1066,288	25,76
1066,651	24,99
1067,013	24,84
1067,375	25,93
1067,737	25,96
1068,099	25,35
1068,461	25,32
1068,823	26,1
1069,185	25,45
1069,547	26,04
1069,909	25,26
1070,27	26,54
1070,632	25,6
1070,993	25,79
1071,355	25,4
1071,716	26,8
1072,077	25,58
1072,438	25,57
1072,799	25,94
1073,16	25,5
1073,521	25,67
1073,882	25,68
1074,243	25,67
1074,603	25,85
1074,964	24,65
1075,325	26,63
1075,685	26,25
1076,045	25,39
1076,406	25,65
1076,766	25,35
1077,126	25,56
1077,486	26,29
1077,846	25,56
1078,206	25,67
1078,566	26,66
1078,925	26,04
1079,285	25,8
1079,645	26,59
1080,004	25,37
1080,364	25,3
1080,723	25,11
1081,082	26,33
1081,442	25,08
1081,801	26,8
1082,16	25,74
1082,519	26,28
1082,878	25,78
1083,237	25,27
1083,595	26,14
1083,954	26,21
1084,313	26,04
1084,671	26,91
1085,03	24,77
1085,388	25,58
1085,746	25,17
1086,104	26,14
1086,463	25,52
1086,821	24,82
1087,179	24,91
1087,537	27,53
1087,894	25,66
1088,252	24,82
1088,61	25,73
1088,967	26,11
1089,325	25,63
1089,682	25,52
1090,04	24,96
1090,397	25,49
1090,754	25,25
1091,111	26,12
1091,469	25,36
1091,826	24,96
1092,182	25,67
1092,539	25,74
1092,896	26,08
1093,253	25,36
1093,609	26,87
1093,966	25,47
1094,322	26,53
1094,679	25,59
1095,035	26,06
1095,391	25,58
1095,748	27,06
1096,104	26,1
1096,46	25,45
1096,816	25,59
1097,171	25,67
1097,527	25,27
1097,883	25,15
1098,239	24,78
1098,594	25,61
1098,95	26,91
1099,305	26,19
1099,66	26,4
1100,016	27,66
1100,371	25,9
1100,726	25,38
1101,081	24,66
1101,436	25,27
1101,791	26,44
1102,146	24,67
1102,5	25,45
1102,855	25,24
1103,21	26,29
1103,564	25,91
1103,918	24,89
1104,273	24,98
1104,627	26,33
1104,981	24,12
1105,335	25,88
1105,69	27,08
1106,043	27,64
1106,397	25,03
1106,751	25,67
1107,105	25,91
1107,459	25,95
1107,812	24,9
1108,166	24,8
1108,519	25,73
1108,873	26,22
1109,226	24,91
1109,579	26,74
1109,932	25,92
1110,285	25,54
1110,638	24,93
1110,991	26,26
1111,344	24,23
1111,697	26,44
1112,05	26,18
1112,402	24,76
1112,755	27,2
1113,107	25,21
1113,46	24,78
1113,812	25,7
1114,164	24,53
1114,517	25,37
1114,869	21,37
1115,221	28,23
1115,573	14,15
1115,924	24,09
