Data from C_6__Relative__6__00055.txt Node

Date: Mon Jan 29 18:13:49 CET 2024
User: diatiterra
Spectrometer: HDX00911
Trigger mode: 0
Integration Time (sec): 6,000000E-3
Scans to average: 2
Nonlinearity correction enabled: false
Boxcar width: 0
Storing dark spectrum: false
XAxis mode: Wavelengths
Number of Pixels in Spectrum: 2068
>>>>>Begin Spectral Data<<<<<
194,468	44,12
195,025	23,89
195,581	36,17
196,138	36,92
196,694	31,03
197,251	25,78
197,807	27,2
198,363	30,91
198,919	34,88
199,474	29,29
200,03	16,54
200,586	25,51
201,141	28,46
201,696	24,91
202,251	29,15
202,806	25,56
203,361	29,12
203,916	29,79
204,471	22,89
205,025	18,57
205,58	27,96
206,134	23,7
206,688	21,01
207,242	26,87
207,796	31,53
208,35	25,99
208,904	17,97
209,457	23,83
210,011	24,13
210,564	22,92
211,117	20,42
211,67	26,41
212,223	18,15
212,776	34,08
213,329	26,12
213,881	23,93
214,434	30,34
214,986	25,59
215,538	27,84
216,09	21,97
216,642	31,48
217,194	25,83
217,746	30,64
218,297	28,52
218,849	24,92
219,4	32,52
219,951	33,09
220,502	24,04
221,053	26,33
221,604	33,22
222,155	25,51
222,705	27,09
223,256	24,82
223,806	28,91
224,356	27,17
224,906	22,22
225,456	23,45
226,006	18,46
226,556	29,56
227,106	26,92
227,655	24,74
228,204	25,66
228,754	25,86
229,303	29,49
229,852	27,78
230,401	20,07
230,949	33,07
231,498	26,12
232,047	27,27
232,595	23,05
233,143	26,89
233,691	27,6
234,239	22,76
234,787	27,97
235,335	29,25
235,883	19,71
236,43	27,41
236,978	29,82
237,525	27,99
238,072	28,41
238,619	25
239,166	25,59
239,713	27,88
240,26	26,59
240,806	25,53
241,353	28,98
241,899	25,24
242,445	29,72
242,991	30,31
243,537	24,42
244,083	28,36
244,629	24,32
245,174	30,22
245,72	26,09
246,265	35,34
246,81	31,39
247,355	21,69
247,9	25,95
248,445	30,34
248,99	20,76
249,534	28,16
250,079	31,34
250,623	26,44
251,168	31,21
251,712	28,01
252,256	29,57
252,8	35,07
253,343	30,25
253,887	26,53
254,43	30,11
254,974	30,42
255,517	29,53
256,06	29,45
256,603	27,17
257,146	33,67
257,689	28,48
258,232	23,75
258,774	32,47
259,317	23,44
259,859	34,69
260,401	28,41
260,943	17,54
261,485	34,75
262,027	26,21
262,569	25,56
263,11	33,21
263,652	33,46
264,193	23,93
264,734	29,76
265,275	21,69
265,816	23,02
266,357	29,86
266,898	24,23
267,438	26,27
267,979	30,91
268,519	32,13
269,059	33,69
269,6	36,49
270,14	25,41
270,68	26,82
271,219	31,93
271,759	24,63
272,298	23,27
272,838	25,19
273,377	31,85
273,916	28,52
274,455	22,99
274,994	30,22
275,533	28,33
276,072	19,55
276,61	34,47
277,149	24,64
277,687	27,76
278,225	22,26
278,763	24,28
279,301	26,79
279,839	35,51
280,377	28,1
280,914	23,81
281,452	30,89
281,989	37,2
282,526	28,67
283,064	31,94
283,601	26,52
284,137	33,21
284,674	32,08
285,211	19,06
285,747	34,92
286,284	29,82
286,82	34,04
287,356	29,9
287,892	27,72
288,428	30,51
288,964	34,3
289,5	31,29
290,035	30,58
290,571	27,24
291,106	27,64
291,641	28,74
292,176	27,44
292,711	35,17
293,246	25,99
293,781	24,91
294,315	27,94
294,85	34,67
295,384	40,37
295,918	32,75
296,453	29,33
296,987	32,41
297,52	28,42
298,054	30,51
298,588	30,71
299,121	33,7
299,655	26,67
300,188	25,48
300,721	32,41
301,254	28,83
301,787	24,8
302,32	28,79
302,853	25,09
303,385	27,84
303,918	26,67
304,45	32,05
304,982	24,7
305,514	28,04
306,046	24,56
306,578	33,93
307,11	25,28
307,641	21,82
308,173	30,48
308,704	25,67
309,236	33,33
309,767	27,08
310,298	23,34
310,829	29,28
311,359	26,69
311,89	28,47
312,421	35,14
312,951	25,82
313,481	32,13
314,012	31,14
314,542	31,16
315,072	29,82
315,601	28,47
316,131	25,91
316,661	29,58
317,19	32,03
317,72	34,43
318,249	27,03
318,778	28,52
319,307	24,32
319,836	31,21
320,365	27,69
320,893	34,75
321,422	30,6
321,95	24,07
322,479	36,68
323,007	27,54
323,535	35,85
324,063	22,01
324,591	28
325,118	24,83
325,646	33,08
326,173	31,79
326,701	25,82
327,228	30,67
327,755	28,32
328,282	30,57
328,809	24,07
329,336	28,72
329,862	33,85
330,389	29,01
330,915	25,18
331,441	27,46
331,968	29,21
332,494	28,09
333,02	28,1
333,545	24,91
334,071	23,67
334,597	27,36
335,122	23,41
335,648	31,87
336,173	29,37
336,698	25
337,223	31,74
337,748	20,7
338,272	23,76
338,797	28,8
339,322	20,27
339,846	23,05
340,37	18,68
340,894	30,14
341,419	27,85
341,942	25,17
342,466	22,18
342,99	22,15
343,514	20,45
344,037	17,05
344,56	19,75
345,084	20,82
345,607	26,14
346,13	27,69
346,653	18,87
347,175	22,9
347,698	14,88
348,221	25,58
348,743	22,74
349,265	20,83
349,787	22,29
350,309	20,66
350,831	22,99
351,353	29,37
351,875	20,22
352,397	20,11
352,918	26,27
353,439	26,02
353,961	14,65
354,482	23,31
355,003	22,79
355,524	16,84
356,044	22,16
356,565	21,45
357,086	14,76
357,606	20
358,126	18,73
358,646	14,68
359,167	18,92
359,687	18,4
360,206	19,04
360,726	15,9
361,246	21,45
361,765	18,2
362,285	13,03
362,804	18
363,323	14,91
363,842	20,24
364,361	19,48
364,88	21,1
365,398	17,44
365,917	22,79
366,435	15,67
366,954	17,43
367,472	17,06
367,99	20,53
368,508	20,31
369,026	14,92
369,544	16,73
370,061	17,22
370,579	21,2
371,096	18,43
371,613	18,53
372,131	19,19
372,648	21,48
373,165	21,66
373,681	20,14
374,198	18,2
374,715	21,18
375,231	18,28
375,747	20,33
376,264	17,73
376,78	21,21
377,296	15,51
377,812	17,06
378,327	18,07
378,843	22,3
379,359	16,67
379,874	19,13
380,389	16,92
380,905	16,84
381,42	16,97
381,935	15,73
382,449	17,41
382,964	16,69
383,479	17,37
383,993	16,23
384,508	17,45
385,022	17,62
385,536	16,11
386,05	16
386,564	15,42
387,078	12,67
387,592	15,1
388,105	13,47
388,619	14,65
389,132	14,54
389,645	16,48
390,158	15,05
390,671	14,05
391,184	14,5
391,697	13,91
392,21	13,96
392,722	12,66
393,235	13,91
393,747	13,6
394,259	14,57
394,771	11,47
395,283	12,66
395,795	13,04
396,307	11,15
396,818	12,78
397,33	9,99
397,841	12,52
398,353	11,21
398,864	12,03
399,375	11,76
399,886	10,58
400,397	11,09
400,907	10,58
401,418	10,08
401,928	10
402,439	10,06
402,949	10,58
403,459	10,84
403,969	9,39
404,479	9,43
404,989	8,97
405,498	9,24
406,008	7,42
406,517	8,55
407,027	8,31
407,536	7,97
408,045	7,31
408,554	7,79
409,063	7,2
409,572	7,24
410,08	7,19
410,589	6,76
411,097	7,03
411,606	6,79
412,114	5,98
412,622	6,61
413,13	5,87
413,638	5,65
414,145	5,89
414,653	5,55
415,16	5,18
415,668	5,15
416,175	5,29
416,682	5,03
417,189	4,97
417,696	5,4
418,203	5
418,71	4,46
419,216	4,46
419,723	5,09
420,229	4,46
420,735	4,88
421,242	4,69
421,748	4,51
422,254	4,09
422,759	4,52
423,265	4,68
423,771	4,09
424,276	4,93
424,781	4,28
425,287	4,7
425,792	4,72
426,297	4,82
426,802	4,05
427,306	4,35
427,811	4,01
428,316	4,23
428,82	4,04
429,324	4,34
429,829	4,34
430,333	3,89
430,837	3,82
431,34	3,75
431,844	4,25
432,348	3,99
432,851	4,21
433,355	3,95
433,858	3,43
434,361	3,96
434,864	3,69
435,367	3,94
435,87	4,11
436,373	4,19
436,876	3,77
437,378	3,51
437,88	4,06
438,383	3,94
438,885	3,86
439,387	3,63
439,889	3,82
440,391	3,94
440,892	3,49
441,394	3,6
441,896	3,72
442,397	3,6
442,898	3,92
443,399	4,04
443,9	3,84
444,401	4,01
444,902	3,93
445,403	3,76
445,903	3,88
446,404	4
446,904	3,92
447,405	3,67
447,905	3,87
448,405	3,97
448,905	3,82
449,404	3,95
449,904	3,96
450,404	3,94
450,903	4,15
451,403	3,98
451,902	3,97
452,401	4,08
452,9	3,87
453,399	3,98
453,898	4,19
454,396	3,93
454,895	4,17
455,393	4,05
455,892	3,84
456,39	4,14
456,888	4,29
457,386	4,2
457,884	4,29
458,382	4,27
458,879	4,28
459,377	3,89
459,874	4,14
460,372	3,98
460,869	4,21
461,366	4,23
461,863	4,24
462,36	4,27
462,857	4,1
463,353	4,18
463,85	4,34
464,346	4,26
464,843	4,48
465,339	4,08
465,835	4,32
466,331	4,09
466,827	4,07
467,323	4,02
467,818	4,26
468,314	4,41
468,809	4,03
469,305	4,11
469,8	4,22
470,295	4,4
470,79	4,07
471,285	4,1
471,78	4,05
472,274	4,13
472,769	4,23
473,263	4,21
473,758	4,29
474,252	4,2
474,746	4,35
475,24	4,33
475,734	4,31
476,228	4,42
476,721	4,16
477,215	4,19
477,708	4,3
478,202	4,38
478,695	3,93
479,188	4,19
479,681	4,14
480,174	4,12
480,667	4,46
481,159	4,27
481,652	4,35
482,144	3,98
482,637	4,4
483,129	4,31
483,621	4,38
484,113	4,42
484,605	4,32
485,097	4,19
485,588	4,37
486,08	4,48
486,571	4,57
487,063	4,48
487,554	4,35
488,045	4,29
488,536	4,55
489,027	4,74
489,518	4,64
490,008	4,72
490,499	4,52
490,989	4,73
491,48	4,77
491,97	4,89
492,46	4,79
492,95	4,81
493,44	4,73
493,93	4,96
494,419	5,01
494,909	4,9
495,398	4,89
495,888	5,12
496,377	5,1
496,866	5,33
497,355	5,3
497,844	5,46
498,333	5,24
498,821	5,46
499,31	5,75
499,798	5,67
500,287	5,75
500,775	6,07
501,263	5,96
501,751	5,91
502,239	6,3
502,727	6,33
503,215	6,57
503,702	6,54
504,19	6,73
504,677	6,69
505,164	6,76
505,651	6,97
506,139	7,17
506,625	7,31
507,112	7,31
507,599	7,8
508,086	7,79
508,572	7,68
509,058	8,17
509,545	8,19
510,031	8,41
510,517	8,51
511,003	8,76
511,489	9,2
511,974	9,24
512,46	9,28
512,946	9,47
513,431	9,52
513,916	9,99
514,401	9,82
514,887	10,52
515,371	10,55
515,856	10,62
516,341	10,91
516,826	11,22
517,31	11,46
517,795	11,89
518,279	11,89
518,763	12,03
519,247	11,99
519,731	12,72
520,215	12,62
520,699	12,9
521,182	12,99
521,666	13,51
522,149	13,49
522,633	13,64
523,116	13,89
523,599	14,54
524,082	14,38
524,565	14,53
525,048	14,72
525,53	15,06
526,013	15,1
526,495	15,31
526,978	15,55
527,46	15,84
527,942	16,07
528,424	15,98
528,906	15,9
529,388	16,32
529,87	16,17
530,351	16,51
530,833	16,46
531,314	16,65
531,795	16,8
532,277	16,77
532,758	16,91
533,238	17,12
533,719	17,16
534,2	17,66
534,681	17,35
535,161	17,63
535,642	17,29
536,122	17,39
536,602	17,63
537,082	17,55
537,562	18,08
538,042	17,95
538,522	18,04
539,001	17,89
539,481	18,06
539,96	17,75
540,44	17,81
540,919	18,19
541,398	17,87
541,877	18,18
542,356	18,26
542,835	18,17
543,313	18,11
543,792	18,06
544,27	18,32
544,749	18,44
545,227	18,37
545,705	18,35
546,183	18,21
546,661	18,51
547,139	18,37
547,616	18,35
548,094	18,64
548,571	18,5
549,049	18,43
549,526	18,39
550,003	18,4
550,48	18,56
550,957	18,68
551,434	18,34
551,911	18,52
552,387	18,47
552,864	18,55
553,34	18,49
553,817	18,71
554,293	18,44
554,769	18,56
555,245	18,63
555,721	18,61
556,197	18,44
556,672	18,59
557,148	18,43
557,623	18,44
558,099	18,4
558,574	18,62
559,049	18,41
559,524	18,5
559,999	18,58
560,474	18,49
560,948	18,7
561,423	18,38
561,897	18,38
562,372	18,34
562,846	18,18
563,32	17,99
563,794	18,1
564,268	17,85
564,742	17,88
565,216	17,62
565,69	17,58
566,163	18,05
566,636	17,86
567,11	17,53
567,583	17,22
568,056	17,22
568,529	17,56
569,002	17,24
569,475	16,88
569,947	16,99
570,42	16,44
570,892	16,8
571,365	16,33
571,837	16,47
572,309	16,57
572,781	16,24
573,253	15,93
573,725	16,06
574,197	16,11
574,668	16,06
575,14	15,85
575,611	15,5
576,082	15,56
576,554	15,39
577,025	15,6
577,496	15,27
577,967	15,2
578,437	15
578,908	15
579,379	15,01
579,849	14,97
580,319	14,76
580,79	14,54
581,26	14,73
581,73	14,43
582,2	14,44
582,669	14,34
583,139	14,38
583,609	14,19
584,078	14,16
584,548	13,91
585,017	13,92
585,486	13,82
585,955	13,69
586,424	13,84
586,893	13,71
587,362	13,56
587,83	13,48
588,299	13,39
588,767	13,67
589,236	13,31
589,704	13,4
590,172	13,42
590,64	13,22
591,108	13,18
591,576	13,25
592,043	13,17
592,511	13,3
592,978	13,07
593,446	12,97
593,913	13,03
594,38	13,07
594,847	13,05
595,314	12,83
595,781	12,73
596,248	12,81
596,715	12,69
597,181	12,78
597,647	12,81
598,114	12,75
598,58	12,79
599,046	12,77
599,512	12,76
599,978	12,68
600,444	12,61
600,91	12,53
601,375	12,46
601,841	12,45
602,306	12,56
602,771	12,44
603,236	12,49
603,702	12,29
604,167	12,29
604,631	12,25
605,096	12,2
605,561	12,34
606,025	12,15
606,49	12,22
606,954	11,94
607,418	12,06
607,882	12
608,347	11,81
608,81	11,8
609,274	11,73
609,738	11,77
610,202	11,61
610,665	11,79
611,128	11,57
611,592	11,57
612,055	11,36
612,518	11,47
612,981	11,24
613,444	11,39
613,907	11,19
614,369	10,92
614,832	10,97
615,294	10,96
615,757	10,77
616,219	10,74
616,681	10,75
617,143	10,54
617,605	10,66
618,067	10,52
618,529	10,43
618,99	10,44
619,452	10,47
619,913	10,4
620,375	10,21
620,836	10,18
621,297	10,34
621,758	10,3
622,219	10,18
622,68	10,09
623,14	9,98
623,601	9,97
624,061	10
624,522	9,93
624,982	9,97
625,442	9,86
625,902	9,87
626,362	9,81
626,822	9,97
627,282	9,89
627,742	9,85
628,201	9,91
628,661	9,76
629,12	9,79
629,579	9,65
630,038	9,74
630,497	9,76
630,956	9,77
631,415	9,77
631,874	9,73
632,332	9,59
632,791	9,74
633,249	9,67
633,708	9,76
634,166	9,69
634,624	9,36
635,082	9,65
635,54	9,32
635,998	9,4
636,455	9,41
636,913	9,27
637,37	9,27
637,828	9,07
638,285	9,14
638,742	8,86
639,199	8,89
639,656	8,72
640,113	8,69
640,57	8,65
641,027	8,61
641,483	8,42
641,94	8,37
642,396	8,37
642,852	8,17
643,309	7,97
643,765	8,02
644,221	7,89
644,676	7,87
645,132	7,71
645,588	7,62
646,043	7,69
646,499	7,41
646,954	7,23
647,409	7,28
647,864	7,28
648,319	7,15
648,774	6,97
649,229	7,02
649,684	6,97
650,139	6,73
650,593	6,93
651,047	6,81
651,502	6,84
651,956	6,75
652,41	6,62
652,864	6,67
653,318	6,73
653,772	6,65
654,225	6,6
654,679	6,57
655,133	6,5
655,586	6,41
656,039	6,43
656,492	6,42
656,946	6,28
657,399	6,22
657,851	6,25
658,304	6,11
658,757	6,12
659,209	6
659,662	5,98
660,114	5,87
660,567	5,76
661,019	5,71
661,471	5,6
661,923	5,49
662,375	5,54
662,826	5,47
663,278	5,35
663,73	5,25
664,181	5,24
664,632	5,25
665,084	4,98
665,535	5,1
665,986	5,03
666,437	4,97
666,888	4,93
667,338	4,97
667,789	4,87
668,24	4,94
668,69	4,93
669,14	4,83
669,591	4,89
670,041	4,77
670,491	4,87
670,941	4,9
671,391	4,85
671,84	4,98
672,29	4,96
672,74	5,05
673,189	4,98
673,638	5,06
674,088	5,07
674,537	5,22
674,986	5,2
675,435	5,19
675,883	5,37
676,332	5,39
676,781	5,44
677,229	5,44
677,678	5,52
678,126	5,74
678,574	5,84
679,022	5,83
679,47	5,93
679,918	5,92
680,366	6,01
680,814	6,1
681,261	6,24
681,709	6,31
682,156	6,44
682,604	6,56
683,051	6,61
683,498	6,71
683,945	6,87
684,392	6,89
684,839	7,11
685,286	7,08
685,732	7,3
686,179	7,49
686,625	7,56
687,071	7,83
687,518	7,96
687,964	8,13
688,41	8,28
688,856	8,45
689,301	8,73
689,747	9
690,193	9,28
690,638	9,54
691,084	9,88
691,529	10,18
691,974	10,42
692,419	10,78
692,864	11,19
693,309	11,42
693,754	11,76
694,199	12,22
694,643	12,45
695,088	12,99
695,532	13,3
695,977	13,58
696,421	14,04
696,865	14,23
697,309	14,89
697,753	15,21
698,197	15,42
698,64	15,91
699,084	16,09
699,527	16,58
699,971	16,86
700,414	17,19
700,857	17,48
701,3	17,96
701,743	18,09
702,186	18,37
702,629	18,85
703,072	18,96
703,515	19,31
703,957	19,46
704,399	19,77
704,842	20
705,284	20,43
705,726	20,54
706,168	20,86
706,61	20,93
707,052	21,46
707,494	21,67
707,935	21,94
708,377	21,95
708,818	22,42
709,26	22,3
709,701	22,54
710,142	22,8
710,583	23,11
711,024	23,07
711,465	23,29
711,905	23,67
712,346	23,76
712,787	24,04
713,227	24,13
713,667	24,45
714,108	24,46
714,548	24,76
714,988	24,97
715,428	24,96
715,868	25,07
716,307	25,5
716,747	25,46
717,186	25,69
717,626	25,85
718,065	25,85
718,504	25,98
718,944	26,12
719,383	26,26
719,822	26,59
720,261	26,66
720,699	26,69
721,138	26,8
721,576	26,8
722,015	26,94
722,453	26,98
722,892	27,41
723,33	27,17
723,768	27,3
724,206	27,31
724,644	27,81
725,081	27,67
725,519	27,52
725,957	27,72
726,394	27,89
726,832	28,06
727,269	28,05
727,706	28,18
728,143	28,34
728,58	28,2
729,017	28,19
729,454	28,35
729,89	28,36
730,327	28,44
730,764	28,55
731,2	28,53
731,636	28,61
732,072	28,6
732,509	28,58
732,945	28,67
733,38	29,02
733,816	28,61
734,252	28,65
734,688	29
735,123	28,73
735,559	28,94
735,994	28,86
736,429	28,99
736,864	28,87
737,299	28,8
737,734	28,94
738,169	28,95
738,604	29,02
739,038	28,96
739,473	29,14
739,907	29,3
740,342	29,14
740,776	28,89
741,21	28,9
741,644	29,07
742,078	28,94
742,512	29,08
742,946	28,89
743,379	28,94
743,813	28,81
744,246	29,05
744,68	29,1
745,113	28,92
745,546	28,97
745,979	28,75
746,412	28,81
746,845	28,94
747,278	28,8
747,711	28,8
748,143	28,85
748,576	28,96
749,008	29,05
749,441	28,89
749,873	28,71
750,305	28,68
750,737	28,52
751,169	28,79
751,601	28,84
752,032	28,52
752,464	28,65
752,896	28,68
753,327	28,56
753,758	28,55
754,19	28,62
754,621	28,55
755,052	28,49
755,483	28,27
755,914	28,64
756,344	28,35
756,775	28,42
757,206	28,48
757,636	28,48
758,066	28,47
758,497	28,43
758,927	28,34
759,357	28,35
759,787	28,29
760,217	28,01
760,647	28,06
761,076	28,43
761,506	28,3
761,935	28,09
762,365	28,04
762,794	27,96
763,223	28,22
763,653	28,31
764,082	27,95
764,51	28,07
764,939	27,95
765,368	27,9
765,797	28,05
766,225	28,06
766,654	28,06
767,082	28,1
767,51	27,99
767,938	27,76
768,367	27,81
768,795	27,84
769,222	27,99
769,65	27,73
770,078	27,88
770,505	27,8
770,933	27,72
771,36	27,59
771,788	27,8
772,215	27,61
772,642	27,75
773,069	27,89
773,496	27,67
773,923	27,66
774,349	27,73
774,776	27,5
775,203	27,27
775,629	27,92
776,055	27,52
776,482	27,41
776,908	27,48
777,334	27,54
777,76	27,52
778,186	27,49
778,611	27,43
779,037	27,47
779,463	27,51
779,888	27,48
780,314	27,47
780,739	27,55
781,164	27,42
781,589	27,52
782,014	27,56
782,439	27,45
782,864	27,51
783,289	27,48
783,713	27,39
784,138	27,24
784,562	27,46
784,987	27,37
785,411	27,36
785,835	27,39
786,259	27,28
786,683	27,09
787,107	27,28
787,531	27,27
787,954	27,36
788,378	27,3
788,802	27,1
789,225	27,11
789,648	27,41
790,071	27,28
790,495	27,4
790,918	27,08
791,34	27,31
791,763	27,34
792,186	27,18
792,609	27,26
793,031	27,2
793,454	27,09
793,876	27,22
794,298	27,19
794,721	27,04
795,143	27,21
795,565	27,01
795,986	26,91
796,408	27,3
796,83	27,06
797,252	27,15
797,673	26,94
798,094	27,02
798,516	27,07
798,937	26,94
799,358	27,14
799,779	27,01
800,2	27,07
800,621	27,04
801,042	27,06
801,462	27,04
801,883	27,06
802,303	27,07
802,724	27,12
803,144	27,12
803,564	27,26
803,984	27,18
804,404	27,1
804,824	26,98
805,244	27,19
805,664	27,14
806,084	27,12
806,503	27,14
806,923	27,02
807,342	26,95
807,761	26,89
808,18	26,99
808,599	26,98
809,018	27,15
809,437	26,94
809,856	27,04
810,275	26,92
810,693	27,07
811,112	27,01
811,53	27,03
811,949	27,14
812,367	26,88
812,785	27,07
813,203	27,08
813,621	26,92
814,039	26,88
814,457	27,12
814,874	26,96
815,292	27,04
815,709	26,91
816,127	26,84
816,544	27,02
816,961	27,11
817,378	27,07
817,795	27,06
818,212	27,05
818,629	26,98
819,046	27,14
819,462	27,01
819,879	26,89
820,295	26,93
820,712	26,81
821,128	27,04
821,544	27,03
821,96	27,06
822,376	26,83
822,792	26,84
823,208	26,82
823,624	26,88
824,039	26,96
824,455	27,02
824,87	27,02
825,286	26,96
825,701	27,02
826,116	26,92
826,531	27,11
826,946	26,99
827,361	26,95
827,776	27,01
828,19	26,61
828,605	26,93
829,02	27,01
829,434	26,89
829,848	26,61
830,263	26,72
830,677	26,85
831,091	26,95
831,505	26,85
831,919	26,75
832,332	26,88
832,746	26,9
833,16	26,57
833,573	26,76
833,987	26,8
834,4	26,76
834,813	26,84
835,226	26,74
835,639	26,8
836,052	27,12
836,465	26,77
836,878	26,72
837,29	26,94
837,703	26,79
838,116	26,91
838,528	26,74
838,94	26,84
839,352	26,74
839,765	26,62
840,177	26,81
840,589	26,67
841	26,78
841,412	26,71
841,824	26,76
842,235	26,71
842,647	26,78
843,058	26,83
843,47	26,78
843,881	26,58
844,292	26,7
844,703	26,72
845,114	26,63
845,525	26,88
845,935	26,87
846,346	26,47
846,757	26,74
847,167	26,66
847,577	26,69
847,988	26,9
848,398	26,87
848,808	26,63
849,218	26,82
849,628	26,65
850,038	26,7
850,448	26,54
850,857	26,58
851,267	26,87
851,676	26,82
852,086	26,6
852,495	26,55
852,904	26,66
853,313	26,49
853,722	26,61
854,131	26,79
854,54	26,75
854,949	26,71
855,357	26,65
855,766	26,71
856,174	26,55
856,583	26,58
856,991	26,68
857,399	26,75
857,807	26,54
858,215	26,82
858,623	26,66
859,031	26,69
859,439	26,75
859,846	26,56
860,254	26,7
860,661	26,4
861,069	26,72
861,476	26,68
861,883	26,55
862,29	26,44
862,697	26,58
863,104	26,68
863,511	26,67
863,918	26,45
864,325	26,35
864,731	26,53
865,138	26,79
865,544	26,63
865,95	26,72
866,357	26,57
866,763	26,72
867,169	26,55
867,575	26,79
867,98	26,46
868,386	26,73
868,792	26,79
869,197	26,57
869,603	26,55
870,008	26,62
870,414	26,7
870,819	26,74
871,224	26,61
871,629	26,36
872,034	26,59
872,439	26,59
872,844	26,66
873,248	26,5
873,653	26,58
874,057	26,74
874,462	26,44
874,866	26,62
875,27	26,38
875,674	26,62
876,078	26,47
876,482	26,45
876,886	26,49
877,29	26,53
877,694	26,53
878,097	26,46
878,501	26,62
878,904	26,62
879,308	26,71
879,711	26,64
880,114	26,28
880,517	26,61
880,92	26,32
881,323	26,43
881,726	26,8
882,128	26,48
882,531	26,63
882,934	26,63
883,336	26,48
883,738	26,66
884,141	26,33
884,543	26,86
884,945	26,54
885,347	26,8
885,749	26,54
886,151	26,51
886,552	26,64
886,954	26,59
887,355	26,75
887,757	26,71
888,158	26,44
888,56	26,72
888,961	26,4
889,362	26,47
889,763	26,39
890,164	26,73
890,565	26,72
890,965	26,44
891,366	26,32
891,767	26,42
892,167	26,51
892,567	26,38
892,968	26,38
893,368	26,48
893,768	26,67
894,168	26,56
894,568	26,6
894,968	26,4
895,368	26,46
895,767	26,68
896,167	26,19
896,566	26,45
896,966	26,42
897,365	26,43
897,764	26,54
898,164	26,41
898,563	26,36
898,962	26,54
899,361	26,47
899,759	26,43
900,158	26,58
900,557	26,51
900,955	26,47
901,354	26,35
901,752	26,43
902,15	26,85
902,548	26,57
902,947	26,57
903,345	26,81
903,742	26,6
904,14	26,41
904,538	26,79
904,936	26,54
905,333	26,64
905,731	26,71
906,128	26,45
906,525	26,66
906,923	26,55
907,32	26,59
907,717	26,55
908,114	26,29
908,511	26,29
908,907	26,5
909,304	26,2
909,701	26,5
910,097	26,7
910,494	26,52
910,89	26,66
911,286	26,69
911,682	26,51
912,078	26,45
912,474	26,41
912,87	26,49
913,266	26,68
913,662	26,34
914,058	26,47
914,453	26,26
914,849	26,62
915,244	26,55
915,639	26,44
916,034	26,36
916,43	26,27
916,825	26,34
917,22	26,43
917,614	26,46
918,009	26,59
918,404	26,34
918,798	26,72
919,193	26,52
919,587	26,69
919,982	26,46
920,376	26,6
920,77	26,49
921,164	26,57
921,558	26,42
921,952	26,32
922,346	26,14
922,74	26,76
923,133	26,5
923,527	26,14
923,92	26,59
924,314	26,62
924,707	26,63
925,1	26,5
925,493	26,53
925,886	26,24
926,279	26,55
926,672	26,34
927,065	26,46
927,457	26,41
927,85	26,44
928,243	26,17
928,635	26,42
929,027	26,23
929,42	26,39
929,812	26,4
930,204	26,69
930,596	26,44
930,988	26,28
931,379	26,37
931,771	26,5
932,163	26,45
932,554	26,23
932,946	26,51
933,337	26,24
933,729	26,47
934,12	26,29
934,511	26,23
934,902	26,1
935,293	26,27
935,684	26,09
936,075	26,24
936,465	26,37
936,856	26,37
937,246	26,55
937,637	26,65
938,027	26,04
938,417	26,35
938,808	26,43
939,198	26,31
939,588	26,27
939,978	26,6
940,368	26,13
940,757	26,3
941,147	26,25
941,537	26,16
941,926	26,34
942,315	26,24
942,705	26,23
943,094	25,92
943,483	25,99
943,872	26,11
944,261	26,31
944,65	26,1
945,039	26,62
945,428	26,42
945,816	26,11
946,205	26,2
946,593	26,55
946,982	26,39
947,37	26,12
947,758	25,83
948,146	26,13
948,534	26,62
948,922	26,11
949,31	26,27
949,698	25,66
950,086	26,15
950,473	26,16
950,861	26,09
951,248	25,98
951,636	26,07
952,023	25,52
952,41	25,73
952,797	26,25
953,184	25,9
953,571	25,63
953,958	25,8
954,345	25,98
954,731	25,67
955,118	26,1
955,505	25,89
955,891	25,98
956,277	25,63
956,664	25,88
957,05	25,64
957,436	26,02
957,822	26,13
958,208	25,74
958,594	25,65
958,979	25,78
959,365	25,76
959,751	26,24
960,136	25,86
960,522	25,85
960,907	25,88
961,292	25,7
961,677	25,67
962,062	25,84
962,447	25,63
962,832	25,76
963,217	25,84
963,602	25,62
963,986	25,98
964,371	25,72
964,756	25,51
965,14	25,68
965,524	25,77
965,908	25,95
966,293	25,83
966,677	25,82
967,061	25,92
967,445	25,82
967,828	25,98
968,212	25,61
968,596	25,48
968,979	25,52
969,363	25,77
969,746	25,42
970,129	25,94
970,513	25,83
970,896	25,91
971,279	25,97
971,662	25,58
972,045	25,94
972,428	26,02
972,81	25,97
973,193	25,75
973,575	25,45
973,958	25,86
974,34	25,99
974,723	25,85
975,105	25,93
975,487	25,8
975,869	25,65
976,251	25,69
976,633	26,09
977,015	25,81
977,396	25,97
977,778	26,16
978,16	26,1
978,541	25,83
978,922	25,91
979,304	25,92
979,685	25,89
980,066	25,91
980,447	25,79
980,828	26,03
981,209	25,9
981,59	25,92
981,97	25,67
982,351	26,03
982,732	25,91
983,112	26,03
983,493	26,28
983,873	25,89
984,253	26,12
984,633	25,81
985,013	26,06
985,393	26,4
985,773	25,77
986,153	26,11
986,533	25,93
986,912	25,79
987,292	25,52
987,671	25,92
988,051	26,1
988,43	25,63
988,809	26,04
989,188	25,88
989,567	26,33
989,946	26,02
990,325	26,03
990,704	26,17
991,083	25,88
991,461	25,86
991,84	25,69
992,218	26,46
992,597	25,89
992,975	26,24
993,353	25,72
993,732	25,89
994,11	25,96
994,488	25,77
994,866	26,29
995,243	26,12
995,621	25,78
995,999	26,04
996,376	25,81
996,754	25,96
997,131	26,35
997,509	25,86
997,886	26,31
998,263	26,04
998,64	26,11
999,017	26,13
999,394	26
999,771	26,03
1000,148	25,81
1000,524	26,12
1000,901	25,98
1001,277	26,13
1001,654	26,04
1002,03	26,23
1002,406	25,97
1002,783	25,78
1003,159	26,27
1003,535	25,81
1003,911	25,84
1004,286	25,81
1004,662	25,88
1005,038	25,94
1005,414	25,84
1005,789	26,3
1006,164	26,24
1006,54	25,89
1006,915	25,78
1007,29	26,45
1007,665	25,61
1008,04	25,79
1008,415	26,23
1008,79	26,52
1009,165	26,43
1009,54	25,92
1009,914	26,01
1010,289	25,82
1010,663	26,13
1011,038	26,16
1011,412	26,52
1011,786	25,83
1012,16	25,94
1012,535	26,14
1012,909	26,05
1013,282	25,98
1013,656	26,22
1014,03	26,1
1014,404	26,3
1014,777	26,58
1015,151	26,24
1015,524	26,63
1015,897	26,59
1016,271	26,32
1016,644	25,98
1017,017	25,77
1017,39	25,7
1017,763	26,48
1018,136	26,18
1018,508	26,09
1018,881	25,91
1019,254	26,45
1019,626	25,78
1019,999	26,14
1020,371	26,35
1020,743	26,43
1021,116	26,27
1021,488	26,05
1021,86	26,21
1022,232	26,36
1022,604	26,27
1022,975	26,26
1023,347	26,21
1023,719	26,38
1024,09	26,2
1024,462	26,05
1024,833	26,13
1025,204	25,82
1025,576	26,49
1025,947	26,63
1026,318	26,42
1026,689	26,59
1027,06	26,17
1027,431	25,99
1027,801	25,98
1028,172	26,31
1028,543	26,52
1028,913	26,12
1029,284	26,6
1029,654	26,35
1030,024	26,24
1030,394	26,6
1030,764	26,69
1031,135	26,52
1031,504	26,09
1031,874	26,49
1032,244	26,47
1032,614	26,27
1032,983	26,5
1033,353	26,14
1033,722	26,27
1034,092	26,19
1034,461	25,89
1034,83	25,81
1035,2	26,17
1035,569	26,2
1035,938	26,06
1036,307	26,23
1036,675	26,41
1037,044	25,82
1037,413	25,49
1037,781	25,96
1038,15	25,85
1038,518	26,22
1038,887	26,33
1039,255	25,72
1039,623	26
1039,991	26,13
1040,359	25,66
1040,727	26,45
1041,095	26,28
1041,463	26,68
1041,831	26,13
1042,198	25,73
1042,566	25,83
1042,933	26,46
1043,301	25,57
1043,668	26,41
1044,035	25,9
1044,402	26,17
1044,77	26,07
1045,137	26,57
1045,503	26,04
1045,87	26,69
1046,237	26,28
1046,604	25,69
1046,97	26,79
1047,337	26,32
1047,703	25,65
1048,07	25,76
1048,436	26,55
1048,802	26,08
1049,168	26,43
1049,534	26,4
1049,9	26,34
1050,266	26,58
1050,632	26,84
1050,998	27,32
1051,364	26,51
1051,729	26,56
1052,095	26,03
1052,46	26,28
1052,825	26,21
1053,191	26,33
1053,556	26,35
1053,921	26,1
1054,286	26,27
1054,651	25,94
1055,016	25,81
1055,381	26,38
1055,745	26,24
1056,11	26,62
1056,475	26,5
1056,839	26,42
1057,203	26,59
1057,568	26,26
1057,932	25,68
1058,296	26,56
1058,66	25,8
1059,024	26,8
1059,388	26,5
1059,752	26,51
1060,116	26,94
1060,48	27,13
1060,843	26,66
1061,207	26,45
1061,57	26,68
1061,934	26,23
1062,297	26,31
1062,66	27,49
1063,023	26,69
1063,386	25,86
1063,749	26,01
1064,112	25,86
1064,475	26,44
1064,838	25,7
1065,201	26,68
1065,563	26,26
1065,926	27,19
1066,288	26,79
1066,651	25,89
1067,013	25,17
1067,375	26,03
1067,737	26,47
1068,099	26,17
1068,461	25,93
1068,823	25,62
1069,185	26,22
1069,547	25,53
1069,909	26,32
1070,27	27,27
1070,632	25,98
1070,993	26,19
1071,355	26,17
1071,716	25,66
1072,077	26,51
1072,438	26,34
1072,799	26,8
1073,16	26,3
1073,521	26,38
1073,882	25,87
1074,243	26,9
1074,603	26,02
1074,964	25,79
1075,325	26,43
1075,685	26,61
1076,045	26,21
1076,406	26,69
1076,766	26,29
1077,126	25,95
1077,486	26,68
1077,846	25,33
1078,206	26,47
1078,566	26,47
1078,925	26,69
1079,285	26,28
1079,645	26,22
1080,004	25,1
1080,364	26,31
1080,723	27,37
1081,082	27,39
1081,442	25,77
1081,801	26,35
1082,16	27,64
1082,519	27,42
1082,878	27,9
1083,237	26,5
1083,595	26,33
1083,954	27,33
1084,313	27,13
1084,671	26,94
1085,03	26,14
1085,388	24,96
1085,746	27,35
1086,104	26,66
1086,463	26,62
1086,821	26,38
1087,179	26,53
1087,537	28,15
1087,894	25,54
1088,252	25,99
1088,61	27,11
1088,967	28,05
1089,325	26,3
1089,682	25,16
1090,04	26,06
1090,397	26,5
1090,754	26,02
1091,111	26,19
1091,469	26,21
1091,826	26,75
1092,182	26,81
1092,539	27,74
1092,896	25,65
1093,253	25,26
1093,609	26,84
1093,966	26,29
1094,322	26,79
1094,679	26,91
1095,035	27,15
1095,391	25,47
1095,748	28,04
1096,104	26,72
1096,46	28,1
1096,816	26,41
1097,171	27
1097,527	27,35
1097,883	26,15
1098,239	27,55
1098,594	25,74
1098,95	27,29
1099,305	28,88
1099,66	27,46
1100,016	27,13
1100,371	27,36
1100,726	26,26
1101,081	25,19
1101,436	27,24
1101,791	25,85
1102,146	25,39
1102,5	26,29
1102,855	26,56
1103,21	28,41
1103,564	26,85
1103,918	25,82
1104,273	27,07
1104,627	27,55
1104,981	25,98
1105,335	28,01
1105,69	27,19
1106,043	26,79
1106,397	25,94
1106,751	26,77
1107,105	27,43
1107,459	26,66
1107,812	25,97
1108,166	27,05
1108,519	27,44
1108,873	27,72
1109,226	27,61
1109,579	28,31
1109,932	25,55
1110,285	27,57
1110,638	25,98
1110,991	26,46
1111,344	28,18
1111,697	27,48
1112,05	26,1
1112,402	27,42
1112,755	26,68
1113,107	28,67
1113,46	25,75
1113,812	28,26
1114,164	27,14
1114,517	27,18
1114,869	41,03
1115,221	39,52
1115,573	27,36
1115,924	27,74
