Data from D_3__Relative__1__00071.txt Node

Date: Mon Jan 29 18:15:34 CET 2024
User: diatiterra
Spectrometer: HDX00911
Trigger mode: 0
Integration Time (sec): 6,000000E-3
Scans to average: 2
Nonlinearity correction enabled: false
Boxcar width: 0
Storing dark spectrum: false
XAxis mode: Wavelengths
Number of Pixels in Spectrum: 2068
>>>>>Begin Spectral Data<<<<<
194,468	63,73
195,025	45,13
195,581	61,7
196,138	51,54
196,694	54,6
197,251	42,22
197,807	50,4
198,363	42,91
198,919	43,06
199,474	41,79
200,03	36,76
200,586	44,56
201,141	41,95
201,696	42,21
202,251	44,65
202,806	37,22
203,361	42,11
203,916	50
204,471	40,14
205,025	38,57
205,58	39,43
206,134	44,44
206,688	38,41
207,242	40,48
207,796	44,41
208,35	37,91
208,904	41,02
209,457	41,16
210,011	39,51
210,564	44,44
211,117	41,55
211,67	41,55
212,223	38,36
212,776	43,07
213,329	37,8
213,881	37,86
214,434	41,03
214,986	34,01
215,538	38,83
216,09	38,03
216,642	46,3
217,194	39,74
217,746	37,71
218,297	34,56
218,849	39,88
219,4	40,21
219,951	43,64
220,502	39,02
221,053	39,81
221,604	42,62
222,155	46,91
222,705	48,49
223,256	46,04
223,806	38,44
224,356	46,38
224,906	44,81
225,456	42,76
226,006	39,6
226,556	37,96
227,106	44,76
227,655	48,08
228,204	46,38
228,754	41,72
229,303	43,73
229,852	47,06
230,401	43,37
230,949	60,31
231,498	48,51
232,047	41,41
232,595	47,52
233,143	48,48
233,691	49,2
234,239	45,9
234,787	44,06
235,335	45,92
235,883	46,24
236,43	47,04
236,978	53,09
237,525	50
238,072	47,97
238,619	39,73
239,166	42,42
239,713	45,35
240,26	48,69
240,806	43,97
241,353	49,82
241,899	38,19
242,445	51,05
242,991	52,96
243,537	47,52
244,083	45,82
244,629	41,55
245,174	51,12
245,72	43,48
246,265	45,94
246,81	47,45
247,355	51,47
247,9	43,6
248,445	48,28
248,99	43,6
249,534	45,25
250,079	49,25
250,623	36,27
251,168	50
251,712	44,33
252,256	45,51
252,8	50
253,343	44,27
253,887	47,28
254,43	52,42
254,974	43,71
255,517	50,67
256,06	38,01
256,603	47,17
257,146	47,81
257,689	43,35
258,232	49,43
258,774	54,98
259,317	42,49
259,859	40,96
260,401	40,91
260,943	46,64
261,485	48,58
262,027	42,07
262,569	52,63
263,11	49,1
263,652	51,1
264,193	42,5
264,734	43,25
265,275	44,18
265,816	47,48
266,357	45,32
266,898	39,93
267,438	36,47
267,979	49,82
268,519	46,21
269,059	48,23
269,6	43,86
270,14	43,89
270,68	45,59
271,219	41,75
271,759	41,04
272,298	46,91
272,838	47,67
273,377	45,56
273,916	51,62
274,455	43,3
274,994	35,97
275,533	41,98
276,072	47,74
276,61	40,61
277,149	37,68
277,687	48,75
278,225	38,7
278,763	40,94
279,301	44,53
279,839	40,94
280,377	42,34
280,914	36,63
281,452	54,47
281,989	54,27
282,526	40,86
283,064	44,44
283,601	53,41
284,137	37,59
284,674	49,43
285,211	40,29
285,747	44,41
286,284	45,61
286,82	42,91
287,356	45,36
287,892	45,26
288,428	42,37
288,964	45,85
289,5	40,82
290,035	47,48
290,571	38,06
291,106	40
291,641	44,44
292,176	49,62
292,711	52,41
293,246	36,46
293,781	48,7
294,315	43,38
294,85	45,26
295,384	48,89
295,918	46,69
296,453	48,41
296,987	52,41
297,52	47,6
298,054	49,63
298,588	47,24
299,121	40,29
299,655	40,35
300,188	44,11
300,721	42,76
301,254	43,77
301,787	41,06
302,32	42,8
302,853	37,63
303,385	48,72
303,918	40,7
304,45	52,12
304,982	40,24
305,514	45,76
306,046	39,65
306,578	48,57
307,11	43,12
307,641	41,09
308,173	42,01
308,704	44,44
309,236	45,32
309,767	42,5
310,298	40,42
310,829	52,85
311,359	41,64
311,89	46,62
312,421	46,38
312,951	42,55
313,481	51
314,012	42,86
314,542	41,78
315,072	42,18
315,601	49,47
316,131	36,86
316,661	44,17
317,19	43,06
317,72	48,72
318,249	45,27
318,778	39,92
319,307	38,18
319,836	41,95
320,365	39,41
320,893	35,46
321,422	39,55
321,95	40,74
322,479	40,83
323,007	39,49
323,535	46,42
324,063	45,52
324,591	33,33
325,118	36,01
325,646	41,54
326,173	48,93
326,701	32
327,228	39,62
327,755	38,35
328,282	43,77
328,809	36,3
329,336	40,14
329,862	46,54
330,389	39,25
330,915	42,91
331,441	36,95
331,968	39,86
332,494	36,79
333,02	33,94
333,545	40,79
334,071	38,33
334,597	36,49
335,122	35,79
335,648	38,83
336,173	44,88
336,698	31,16
337,223	46,76
337,748	29,47
338,272	38,61
338,797	39,48
339,322	32,89
339,846	33,2
340,37	36,63
340,894	43,49
341,419	42,62
341,942	36,58
342,466	35,15
342,99	35,38
343,514	39,61
344,037	39,34
344,56	32,29
345,084	33,44
345,607	38,3
346,13	43,08
346,653	31,76
347,175	35,16
347,698	36,61
348,221	36,05
348,743	40,82
349,265	33,63
349,787	34,57
350,309	35,54
350,831	33,13
351,353	38,62
351,875	33,71
352,397	43,53
352,918	35,88
353,439	34,96
353,961	36,9
354,482	38,2
355,003	34,32
355,524	36,48
356,044	37,47
356,565	36,66
357,086	36,39
357,606	35,9
358,126	35,04
358,646	34,83
359,167	34,89
359,687	35,85
360,206	28,43
360,726	28,45
361,246	37,59
361,765	32,24
362,285	34,83
362,804	31,78
363,323	28,9
363,842	34,52
364,361	32,9
364,88	36,71
365,398	34,22
365,917	37,17
366,435	33,48
366,954	33,87
367,472	34,54
367,99	33,88
368,508	34,38
369,026	31,78
369,544	33,45
370,061	31,28
370,579	34,71
371,096	32,48
371,613	38,53
372,131	32,04
372,648	33,57
373,165	36,4
373,681	29,42
374,198	31,97
374,715	33,68
375,231	30,21
375,747	34,21
376,264	34,66
376,78	34,13
377,296	34,02
377,812	31,16
378,327	30,96
378,843	35,3
379,359	29,57
379,874	31,69
380,389	31,5
380,905	31,7
381,42	30,68
381,935	29,87
382,449	33,04
382,964	32,4
383,479	33,33
383,993	28,85
384,508	31,38
385,022	28
385,536	27,96
386,05	28,48
386,564	29,28
387,078	25,55
387,592	28,44
388,105	26,65
388,619	26,06
389,132	27,47
389,645	27,75
390,158	25,02
390,671	27,56
391,184	26,91
391,697	26,33
392,21	25,93
392,722	23,86
393,235	25,78
393,747	25,24
394,259	24,96
394,771	25,66
395,283	25,48
395,795	23,21
396,307	22,93
396,818	24,81
397,33	22,87
397,841	22
398,353	22,65
398,864	21,06
399,375	21,97
399,886	23,02
400,397	21,61
400,907	20,92
401,418	20,05
401,928	20,11
402,439	20,23
402,949	18,65
403,459	19,08
403,969	18,29
404,479	18,53
404,989	19,31
405,498	17,79
406,008	15,96
406,517	16,88
407,027	16,32
407,536	15,78
408,045	14,54
408,554	14,63
409,063	14,52
409,572	14,34
410,08	13,34
410,589	12,92
411,097	12,81
411,606	12,32
412,114	12,32
412,622	12,29
413,13	11,71
413,638	11,48
414,145	11,22
414,653	10,64
415,16	11,25
415,668	10,53
416,175	10,35
416,682	10,1
417,189	9,65
417,696	9,26
418,203	9,68
418,71	9,01
419,216	8,55
419,723	9,39
420,229	8,76
420,735	8,96
421,242	8,49
421,748	9,32
422,254	9,2
422,759	8,61
423,265	8,56
423,771	7,94
424,276	9,09
424,781	8,51
425,287	8,51
425,792	8,47
426,297	8,48
426,802	8,08
427,306	8,15
427,811	7,52
428,316	7,9
428,82	7,99
429,324	7,58
429,829	7,86
430,333	7,87
430,837	7,61
431,34	7,35
431,844	7,69
432,348	6,89
432,851	7,33
433,355	7,4
433,858	7,17
434,361	7,86
434,864	7,37
435,367	7,8
435,87	7,49
436,373	7,49
436,876	6,96
437,378	7,23
437,88	7,17
438,383	7,37
438,885	7,57
439,387	7,41
439,889	7,26
440,391	7,5
440,892	7,15
441,394	7,09
441,896	7,14
442,397	7,45
442,898	6,82
443,399	7,55
443,9	6,86
444,401	7,21
444,902	7,29
445,403	7,21
445,903	7,29
446,404	7,56
446,904	7,48
447,405	7,43
447,905	7,56
448,405	7,54
448,905	7,65
449,404	7,34
449,904	7,43
450,404	7,33
450,903	7,44
451,403	7,27
451,902	7,77
452,401	7,79
452,9	7,63
453,399	7,97
453,898	7,55
454,396	7,52
454,895	7,61
455,393	7,97
455,892	7,98
456,39	7,68
456,888	7,91
457,386	7,78
457,884	7,97
458,382	7,76
458,879	7,76
459,377	7,71
459,874	7,75
460,372	7,44
460,869	7,98
461,366	7,77
461,863	7,81
462,36	8,25
462,857	7,91
463,353	8,05
463,85	7,73
464,346	8,07
464,843	7,98
465,339	8,08
465,835	7,97
466,331	7,8
466,827	7,76
467,323	7,66
467,818	7,94
468,314	7,85
468,809	7,72
469,305	7,91
469,8	7,78
470,295	7,96
470,79	7,94
471,285	8,02
471,78	7,89
472,274	7,84
472,769	7,75
473,263	8,29
473,758	7,95
474,252	8,01
474,746	7,93
475,24	7,97
475,734	7,83
476,228	8,01
476,721	7,91
477,215	8,11
477,708	8,04
478,202	8,01
478,695	8,05
479,188	7,88
479,681	8,07
480,174	7,96
480,667	8,35
481,159	8,05
481,652	8
482,144	7,98
482,637	8,2
483,129	8,41
483,621	8,04
484,113	8,44
484,605	8,22
485,097	8,26
485,588	8,12
486,08	8,56
486,571	8,53
487,063	8,37
487,554	8,37
488,045	8,33
488,536	8,23
489,027	8,6
489,518	8,67
490,008	8,72
490,499	8,45
490,989	8,51
491,48	8,86
491,97	8,98
492,46	8,96
492,95	9,13
493,44	9
493,93	8,9
494,419	9,21
494,909	9,21
495,398	9,21
495,888	9,52
496,377	9,44
496,866	9,19
497,355	9,54
497,844	9,37
498,333	9,83
498,821	9,89
499,31	10,04
499,798	9,88
500,287	10,26
500,775	10,33
501,263	10,53
501,751	10,75
502,239	10,86
502,727	10,92
503,215	11,34
503,702	11,18
504,19	11,42
504,677	11,56
505,164	11,78
505,651	12,12
506,139	12,15
506,625	12,47
507,112	12,43
507,599	12,54
508,086	13,38
508,572	13,07
509,058	13,46
509,545	13,69
510,031	13,93
510,517	14,02
511,003	14,04
511,489	14,79
511,974	14,66
512,46	15,21
512,946	15,53
513,431	15,94
513,916	16,02
514,401	16,48
514,887	16,44
515,371	16,83
515,856	17,27
516,341	17,56
516,826	17,67
517,31	17,84
517,795	18,49
518,279	18,62
518,763	19,14
519,247	19,05
519,731	19,77
520,215	20,03
520,699	20,53
521,182	20,73
521,666	21,11
522,149	21,28
522,633	21,78
523,116	21,98
523,599	22,6
524,082	22,45
524,565	22,83
525,048	23,16
525,53	23,52
526,013	23,59
526,495	23,91
526,978	24,39
527,46	24,77
527,942	24,9
528,424	25,01
528,906	25,05
529,388	25,68
529,87	25,48
530,351	25,47
530,833	26,03
531,314	25,96
531,795	26,55
532,277	26,51
532,758	26,43
533,238	26,7
533,719	27,07
534,2	27,36
534,681	27,2
535,161	27,81
535,642	27,28
536,122	27,12
536,602	27,58
537,082	27,58
537,562	27,65
538,042	27,57
538,522	27,75
539,001	27,7
539,481	27,7
539,96	27,71
540,44	27,68
540,919	27,86
541,398	27,93
541,877	28,2
542,356	28,06
542,835	28,42
543,313	28,06
543,792	28,09
544,27	27,99
544,749	28,34
545,227	28,34
545,705	28,7
546,183	28,38
546,661	28,97
547,139	28,35
547,616	28,53
548,094	28,75
548,571	28,79
549,049	28,79
549,526	28,68
550,003	28,81
550,48	28,74
550,957	28,8
551,434	28,75
551,911	28,82
552,387	28,89
552,864	28,95
553,34	29,07
553,817	29,06
554,293	29,06
554,769	28,64
555,245	28,83
555,721	29,14
556,197	29,36
556,672	28,94
557,148	28,44
557,623	28,83
558,099	28,63
558,574	28,99
559,049	28,37
559,524	28,7
559,999	28,71
560,474	28,37
560,948	28,64
561,423	28,93
561,897	28,34
562,372	28,54
562,846	28,1
563,32	27,77
563,794	27,9
564,268	27,5
564,742	27,67
565,216	27,59
565,69	27,51
566,163	27,27
566,636	27,37
567,11	27
567,583	26,81
568,056	26,85
568,529	26,55
569,002	26,49
569,475	26,19
569,947	25,92
570,42	25,96
570,892	25,77
571,365	25,85
571,837	25,25
572,309	25,54
572,781	25,09
573,253	24,78
573,725	24,58
574,197	24,76
574,668	24,44
575,14	24,32
575,611	23,94
576,082	24,04
576,554	23,65
577,025	23,76
577,496	23,23
577,967	23,52
578,437	23,31
578,908	23,17
579,379	22,68
579,849	22,93
580,319	22,7
580,79	22,5
581,26	22,3
581,73	22,36
582,2	22,29
582,669	22,24
583,139	22,1
583,609	22,02
584,078	21,76
584,548	21,57
585,017	21,24
585,486	21,27
585,955	21,43
586,424	21,27
586,893	21,12
587,362	21,04
587,83	20,82
588,299	20,84
588,767	20,95
589,236	20,78
589,704	20,59
590,172	20,64
590,64	20,49
591,108	20,42
591,576	20,51
592,043	20,38
592,511	20,23
592,978	20,2
593,446	20,09
593,913	20,06
594,38	20,13
594,847	19,93
595,314	19,76
595,781	19,81
596,248	19,93
596,715	19,83
597,181	19,78
597,647	19,81
598,114	19,71
598,58	19,73
599,046	19,56
599,512	19,72
599,978	19,64
600,444	19,72
600,91	19,58
601,375	19,61
601,841	19,39
602,306	19,33
602,771	19,41
603,236	19,16
603,702	19,16
604,167	19,11
604,631	18,86
605,096	19,19
605,561	19,02
606,025	18,93
606,49	18,84
606,954	18,71
607,418	18,67
607,882	18,44
608,347	18,28
608,81	18,33
609,274	18,22
609,738	18,15
610,202	18,23
610,665	17,94
611,128	17,88
611,592	18,02
612,055	17,55
612,518	17,96
612,981	17,5
613,444	17,26
613,907	17,42
614,369	17,28
614,832	17,14
615,294	17,09
615,757	16,98
616,219	17,07
616,681	16,82
617,143	16,69
617,605	16,57
618,067	16,34
618,529	16,44
618,99	16,48
619,452	16,31
619,913	16,31
620,375	16,16
620,836	16,29
621,297	16,16
621,758	15,96
622,219	15,81
622,68	15,89
623,14	15,93
623,601	15,81
624,061	15,92
624,522	15,63
624,982	15,61
625,442	15,64
625,902	15,84
626,362	15,56
626,822	15,64
627,282	15,44
627,742	15,54
628,201	15,59
628,661	15,4
629,12	15,53
629,579	15,3
630,038	15,24
630,497	15,25
630,956	15,28
631,415	15,36
631,874	15,29
632,332	15,08
632,791	15,36
633,249	15
633,708	15,04
634,166	15,01
634,624	15,03
635,082	15,03
635,54	14,73
635,998	14,92
636,455	14,62
636,913	14,6
637,37	14,41
637,828	14,37
638,285	14,45
638,742	14,13
639,199	14,01
639,656	13,8
640,113	13,73
640,57	13,73
641,027	13,42
641,483	13,48
641,94	13,06
642,396	13,32
642,852	13,18
643,309	12,91
643,765	12,66
644,221	12,69
644,676	12,44
645,132	12,32
645,588	12,21
646,043	12,17
646,499	12,09
646,954	11,83
647,409	11,66
647,864	11,73
648,319	11,6
648,774	11,41
649,229	11,35
649,684	11,2
650,139	11,06
650,593	11,14
651,047	11,06
651,502	10,97
651,956	11,04
652,41	10,83
652,864	10,65
653,318	10,79
653,772	10,83
654,225	10,67
654,679	10,57
655,133	10,57
655,586	10,56
656,039	10,47
656,492	10,43
656,946	10,2
657,399	10,26
657,851	10,24
658,304	10
658,757	9,92
659,209	9,97
659,662	9,87
660,114	9,8
660,567	9,65
661,019	9,69
661,471	9,54
661,923	9,25
662,375	9,25
662,826	9,2
663,278	9,1
663,73	8,98
664,181	9,02
664,632	8,81
665,084	8,78
665,535	8,72
665,986	8,58
666,437	8,63
666,888	8,53
667,338	8,59
667,789	8,58
668,24	8,51
668,69	8,53
669,14	8,44
669,591	8,44
670,041	8,55
670,491	8,48
670,941	8,64
671,391	8,56
671,84	8,5
672,29	8,5
672,74	8,66
673,189	8,76
673,638	8,68
674,088	8,89
674,537	8,94
674,986	8,98
675,435	8,99
675,883	9,04
676,332	9,03
676,781	9,33
677,229	9,35
677,678	9,36
678,126	9,56
678,574	9,62
679,022	9,65
679,47	9,9
679,918	9,87
680,366	10,14
680,814	10,12
681,261	10,22
681,709	10,4
682,156	10,43
682,604	10,71
683,051	10,66
683,498	10,91
683,945	11
684,392	11,12
684,839	11,18
685,286	11,29
685,732	11,72
686,179	11,89
686,625	12,07
687,071	12,13
687,518	12,45
687,964	12,79
688,41	12,95
688,856	13,37
689,301	13,53
689,747	13,88
690,193	14,26
690,638	14,6
691,084	15,01
691,529	15,55
691,974	16
692,419	16,29
692,864	16,93
693,309	17,54
693,754	17,93
694,199	18,54
694,643	19,02
695,088	19,66
695,532	19,92
695,977	20,67
696,421	21,25
696,865	21,94
697,309	22,51
697,753	22,89
698,197	23,46
698,64	24,09
699,084	24,45
699,527	25,05
699,971	25,52
700,414	26,17
700,857	26,82
701,3	27,14
701,743	27,35
702,186	28,22
702,629	28,85
703,072	28,96
703,515	29,61
703,957	29,89
704,399	30,38
704,842	30,56
705,284	31,38
705,726	31,71
706,168	31,97
706,61	32,38
707,052	32,91
707,494	33
707,935	33,37
708,377	33,94
708,818	34,4
709,26	34,4
709,701	34,91
710,142	35,29
710,583	35,38
711,024	35,99
711,465	36,33
711,905	36,64
712,346	36,57
712,787	37,3
713,227	37,46
713,667	37,87
714,108	38,03
714,548	38,48
714,988	38,58
715,428	38,81
715,868	38,86
716,307	39,35
716,747	39,8
717,186	39,8
717,626	40,18
718,065	40,29
718,504	40,4
718,944	40,86
719,383	40,82
719,822	41,1
720,261	41,47
720,699	41,57
721,138	41,77
721,576	42,08
722,015	41,99
722,453	42,36
722,892	42,78
723,33	42,51
723,768	43,12
724,206	42,99
724,644	43,34
725,081	43,34
725,519	43,48
725,957	43,38
726,394	43,82
726,832	43,85
727,269	44,05
727,706	44,19
728,143	44,42
728,58	44,05
729,017	44,32
729,454	44,44
729,89	44,53
730,327	44,76
730,764	44,77
731,2	44,89
731,636	45
732,072	44,98
732,509	45,25
732,945	45,64
733,38	45,2
733,816	45,4
734,252	45,34
734,688	45,37
735,123	45,51
735,559	45,72
735,994	45,42
736,429	45,42
736,864	45,63
737,299	45,56
737,734	45,78
738,169	45,9
738,604	45,81
739,038	45,85
739,473	46,39
739,907	45,87
740,342	45,67
740,776	45,89
741,21	45,85
741,644	45,87
742,078	45,95
742,512	46,15
742,946	45,9
743,379	45,58
743,813	45,82
744,246	46,01
744,68	45,82
745,113	45,8
745,546	45,72
745,979	45,61
746,412	45,72
746,845	45,86
747,278	45,59
747,711	45,77
748,143	45,65
748,576	45,81
749,008	45,65
749,441	45,79
749,873	45,64
750,305	46,05
750,737	45,3
751,169	45,6
751,601	45,68
752,032	45,32
752,464	45,29
752,896	45,59
753,327	45,45
753,758	45,44
754,19	45,32
754,621	45,26
755,052	45,37
755,483	45,15
755,914	45,24
756,344	45,26
756,775	45,4
757,206	45,25
757,636	45,05
758,066	45,3
758,497	45,08
758,927	44,93
759,357	45,11
759,787	45,01
760,217	44,91
760,647	44,68
761,076	44,99
761,506	44,93
761,935	44,82
762,365	44,8
762,794	44,59
763,223	44,76
763,653	44,99
764,082	44,7
764,51	44,62
764,939	44,54
765,368	44,54
765,797	44,22
766,225	44,52
766,654	44,48
767,082	44,75
767,51	44,32
767,938	44,19
768,367	44,15
768,795	44,3
769,222	44,39
769,65	44,39
770,078	44,32
770,505	44,3
770,933	44,12
771,36	44,05
771,788	44,19
772,215	44,01
772,642	44,13
773,069	44,24
773,496	44,05
773,923	44,44
774,349	44,1
774,776	44,06
775,203	43,96
775,629	43,98
776,055	44,04
776,482	43,65
776,908	43,93
777,334	43,81
777,76	44,02
778,186	43,81
778,611	43,79
779,037	43,95
779,463	43,77
779,888	43,62
780,314	43,57
780,739	43,68
781,164	43,57
781,589	43,99
782,014	43,62
782,439	43,34
782,864	43,72
783,289	43,86
783,713	43,29
784,138	43,61
784,562	43,54
784,987	43,53
785,411	43,35
785,835	43,42
786,259	43,48
786,683	43,7
787,107	43,68
787,531	43,31
787,954	43,53
788,378	43,56
788,802	43,54
789,225	43,33
789,648	43,58
790,071	43,54
790,495	43,66
790,918	43,27
791,34	43,71
791,763	43,58
792,186	43,2
792,609	43,48
793,031	43,39
793,454	43,17
793,876	43,44
794,298	43,57
794,721	43,49
795,143	43,36
795,565	43,35
795,986	43,36
796,408	43,48
796,83	43,53
797,252	43,24
797,673	43,61
798,094	43,54
798,516	43,35
798,937	43,13
799,358	43,51
799,779	43,31
800,2	43,38
800,621	43,04
801,042	43,48
801,462	43,51
801,883	43,33
802,303	43,08
802,724	43,09
803,144	43,45
803,564	43,38
803,984	42,95
804,404	43,02
804,824	43,37
805,244	43,28
805,664	43,07
806,084	43,08
806,503	43,35
806,923	43,11
807,342	43,28
807,761	43,16
808,18	43,25
808,599	42,96
809,018	43,21
809,437	43,15
809,856	42,88
810,275	43,05
810,693	42,99
811,112	43,17
811,53	43,35
811,949	43,06
812,367	43,02
812,785	42,97
813,203	43,13
813,621	42,96
814,039	43,09
814,457	43,09
814,874	42,86
815,292	43,19
815,709	43,29
816,127	42,94
816,544	43,21
816,961	43,15
817,378	43,24
817,795	42,87
818,212	43,11
818,629	43,03
819,046	43,29
819,462	43,02
819,879	43,26
820,295	42,82
820,712	43,03
821,128	42,96
821,544	42,78
821,96	42,73
822,376	43,03
822,792	42,83
823,208	42,73
823,624	42,92
824,039	43,09
824,455	43,26
824,87	42,98
825,286	42,8
825,701	42,83
826,116	42,89
826,531	43,23
826,946	42,79
827,361	43,3
827,776	43,16
828,19	42,96
828,605	42,83
829,02	43,01
829,434	42,69
829,848	43,01
830,263	43,2
830,677	42,87
831,091	43,11
831,505	42,98
831,919	43,22
832,332	42,66
832,746	42,83
833,16	42,75
833,573	42,6
833,987	42,74
834,4	42,67
834,813	42,83
835,226	42,86
835,639	43,07
836,052	43,11
836,465	43,19
836,878	42,93
837,29	42,76
837,703	42,86
838,116	42,72
838,528	42,89
838,94	42,56
839,352	42,74
839,765	42,84
840,177	42,56
840,589	42,64
841	42,8
841,412	42,72
841,824	42,73
842,235	42,66
842,647	42,72
843,058	42,7
843,47	42,72
843,881	42,61
844,292	42,73
844,703	42,97
845,114	42,59
845,525	42,94
845,935	42,73
846,346	42,52
846,757	42,7
847,167	42,94
847,577	42,71
847,988	42,44
848,398	42,86
848,808	42,47
849,218	42,94
849,628	42,8
850,038	42,77
850,448	42,46
850,857	42,62
851,267	42,38
851,676	42,68
852,086	42,74
852,495	42,63
852,904	42,61
853,313	42,6
853,722	42,41
854,131	42,5
854,54	42,51
854,949	42,83
855,357	42,68
855,766	42,57
856,174	42,54
856,583	42,5
856,991	42,4
857,399	42,64
857,807	42,58
858,215	42,55
858,623	42,41
859,031	42,56
859,439	42,6
859,846	42,31
860,254	42,35
860,661	42,52
861,069	42,54
861,476	42,36
861,883	42,64
862,29	42,48
862,697	42,14
863,104	42,72
863,511	42,47
863,918	42,46
864,325	42,54
864,731	42,49
865,138	42,88
865,544	42,86
865,95	42,43
866,357	42,36
866,763	42,78
867,169	42,47
867,575	42,76
867,98	42,17
868,386	42,37
868,792	42,96
869,197	42,56
869,603	42,34
870,008	42,24
870,414	42,23
870,819	42,41
871,224	42,36
871,629	42,65
872,034	42,51
872,439	42,54
872,844	42,29
873,248	42,42
873,653	42,31
874,057	42,73
874,462	42,3
874,866	42,64
875,27	42,68
875,674	42,49
876,078	42,45
876,482	42,16
876,886	42,38
877,29	42,71
877,694	42,6
878,097	42,43
878,501	42,53
878,904	42,37
879,308	42,72
879,711	42,43
880,114	42,4
880,517	42,53
880,92	42,46
881,323	42,79
881,726	42,85
882,128	42,88
882,531	42,18
882,934	42,55
883,336	42,39
883,738	42,34
884,141	42,51
884,543	42,53
884,945	42,46
885,347	42,52
885,749	42,16
886,151	42,63
886,552	42,48
886,954	42,51
887,355	42,69
887,757	42,41
888,158	42,12
888,56	42,4
888,961	42,59
889,362	42,26
889,763	42,51
890,164	42,53
890,565	42,55
890,965	42,37
891,366	42,35
891,767	42,33
892,167	42,79
892,567	42,22
892,968	42,33
893,368	42,4
893,768	42,49
894,168	42,41
894,568	42,51
894,968	42,18
895,368	42,17
895,767	42,07
896,167	42,37
896,566	42,02
896,966	42,31
897,365	42,38
897,764	42,3
898,164	42,43
898,563	42,4
898,962	42,29
899,361	42,35
899,759	42,49
900,158	42,38
900,557	42,49
900,955	42,37
901,354	42,69
901,752	42,34
902,15	42,54
902,548	42,41
902,947	42,3
903,345	42,45
903,742	42,37
904,14	42,46
904,538	42,19
904,936	42,46
905,333	42,24
905,731	42,69
906,128	42,13
906,525	42,62
906,923	42,64
907,32	42,6
907,717	42,58
908,114	42,6
908,511	42,4
908,907	42,35
909,304	42,45
909,701	42,29
910,097	42,6
910,494	42,14
910,89	42,77
911,286	42,52
911,682	42,33
912,078	42,22
912,474	42,31
912,87	42,47
913,266	42,03
913,662	41,9
914,058	42,17
914,453	42,22
914,849	42,1
915,244	42,22
915,639	42,77
916,034	42,24
916,43	42,3
916,825	42,23
917,22	42,8
917,614	42,6
918,009	42,54
918,404	42,3
918,798	42,62
919,193	42,04
919,587	42,62
919,982	42,1
920,376	42,38
920,77	42,27
921,164	42,42
921,558	42,55
921,952	42,72
922,346	42,13
922,74	42,27
923,133	42,74
923,527	42,38
923,92	42,12
924,314	42,47
924,707	42,45
925,1	42,06
925,493	42,39
925,886	41,94
926,279	42,76
926,672	42,18
927,065	41,93
927,457	42,09
927,85	42,14
928,243	42,25
928,635	42,21
929,027	42,21
929,42	42,33
929,812	42,25
930,204	41,98
930,596	42,25
930,988	42,48
931,379	42,15
931,771	42,14
932,163	42,17
932,554	42,05
932,946	42,14
933,337	42,44
933,729	42,59
934,12	41,86
934,511	41,86
934,902	42,14
935,293	42,42
935,684	42,36
936,075	41,85
936,465	41,86
936,856	42,15
937,246	42,12
937,637	41,65
938,027	42,04
938,417	41,92
938,808	42,05
939,198	42,5
939,588	41,81
939,978	41,92
940,368	41,49
940,757	42,16
941,147	41,54
941,537	41,86
941,926	42,14
942,315	41,47
942,705	41,96
943,094	41,52
943,483	41,89
943,872	42,12
944,261	41,01
944,65	41,73
945,039	42,17
945,428	42,43
945,816	41,39
946,205	41,69
946,593	41,93
946,982	41,95
947,37	41,58
947,758	41,36
948,146	41,07
948,534	42,35
948,922	42,06
949,31	41,8
949,698	41,77
950,086	41,82
950,473	42,14
950,861	41,06
951,248	41,76
951,636	41,76
952,023	41,53
952,41	41,97
952,797	41,38
953,184	41,67
953,571	41,37
953,958	41,75
954,345	41,11
954,731	41,06
955,118	41,42
955,505	40,84
955,891	41,29
956,277	41,16
956,664	41,42
957,05	40,61
957,436	41,33
957,822	41,17
958,208	41,63
958,594	41,43
958,979	40,67
959,365	41,32
959,751	41,17
960,136	41,5
960,522	41,18
960,907	41,42
961,292	41,01
961,677	41,15
962,062	41,06
962,447	40,5
962,832	41,24
963,217	41,19
963,602	41,16
963,986	41,53
964,371	40,81
964,756	41,31
965,14	41,44
965,524	41,03
965,908	41,6
966,293	41,19
966,677	41,32
967,061	41,28
967,445	40,52
967,828	40,71
968,212	41,25
968,596	41,1
968,979	41,22
969,363	41,31
969,746	41,13
970,129	41,51
970,513	40,52
970,896	41,64
971,279	41,21
971,662	40,48
972,045	41,23
972,428	40,95
972,81	41,13
973,193	40,94
973,575	40,7
973,958	41,25
974,34	41,24
974,723	40,94
975,105	41,25
975,487	41,48
975,869	41,01
976,251	40,86
976,633	41,53
977,015	41,55
977,396	41,46
977,778	41,62
978,16	40,87
978,541	41,26
978,922	40,94
979,304	41,56
979,685	41,04
980,066	41,61
980,447	41,42
980,828	41,36
981,209	41,35
981,59	41,39
981,97	41,26
982,351	40,95
982,732	41,14
983,112	41,66
983,493	40,99
983,873	40,82
984,253	41,21
984,633	41,37
985,013	41,97
985,393	41,19
985,773	41,33
986,153	41,16
986,533	41,11
986,912	41,13
987,292	41,31
987,671	41,59
988,051	41,3
988,43	41,04
988,809	41,53
989,188	41,46
989,567	42
989,946	41,7
990,325	41,5
990,704	41,22
991,083	41,25
991,461	41,81
991,84	41,26
992,218	41,4
992,597	41,19
992,975	41,13
993,353	41,01
993,732	41,67
994,11	41,82
994,488	41,44
994,866	41,69
995,243	41,79
995,621	41,2
995,999	41,33
996,376	41,75
996,754	41,38
997,131	42,08
997,509	41,48
997,886	41,44
998,263	41,09
998,64	41,34
999,017	41,34
999,394	41,47
999,771	41,32
1000,148	41,22
1000,524	41,67
1000,901	41,35
1001,277	41,5
1001,654	41,57
1002,03	41,44
1002,406	41,28
1002,783	41,45
1003,159	41,51
1003,535	40,94
1003,911	41,66
1004,286	41,17
1004,662	41,65
1005,038	40,95
1005,414	41,74
1005,789	41,79
1006,164	41,81
1006,54	41,61
1006,915	41,61
1007,29	41,29
1007,665	41,78
1008,04	41,73
1008,415	41,97
1008,79	42,1
1009,165	41,68
1009,54	41,96
1009,914	41,5
1010,289	41,23
1010,663	41,77
1011,038	41,21
1011,412	41,64
1011,786	41,34
1012,16	42,23
1012,535	41,44
1012,909	41,87
1013,282	41,72
1013,656	41,59
1014,03	41,65
1014,404	41,66
1014,777	41,96
1015,151	41,26
1015,524	41,88
1015,897	41,61
1016,271	41,92
1016,644	41,49
1017,017	41,56
1017,39	41,61
1017,763	41,31
1018,136	41,75
1018,508	42,74
1018,881	41,4
1019,254	42
1019,626	41,53
1019,999	41,91
1020,371	42,15
1020,743	41,7
1021,116	41,77
1021,488	41,96
1021,86	41,58
1022,232	42,21
1022,604	41,21
1022,975	41,8
1023,347	41,55
1023,719	41,55
1024,09	41,98
1024,462	41,57
1024,833	42
1025,204	41,67
1025,576	42,61
1025,947	42,09
1026,318	42,44
1026,689	41,68
1027,06	41,42
1027,431	41,71
1027,801	41,99
1028,172	42,52
1028,543	42,55
1028,913	41,85
1029,284	41,54
1029,654	41,27
1030,024	41,95
1030,394	42,49
1030,764	42,82
1031,135	41,26
1031,504	42,64
1031,874	41,57
1032,244	42,21
1032,614	42,01
1032,983	42,48
1033,353	41,43
1033,722	42,57
1034,092	42,12
1034,461	41,96
1034,83	41,77
1035,2	42,6
1035,569	41,94
1035,938	42,19
1036,307	42,46
1036,675	42,16
1037,044	41,75
1037,413	41,68
1037,781	41,81
1038,15	41,71
1038,518	41,78
1038,887	42,46
1039,255	41,84
1039,623	42,43
1039,991	41,99
1040,359	41,18
1040,727	41,97
1041,095	41,78
1041,463	42,26
1041,831	41,42
1042,198	41,87
1042,566	42,37
1042,933	41,88
1043,301	42,02
1043,668	41,53
1044,035	41,91
1044,402	41,86
1044,77	42,51
1045,137	42,56
1045,503	41,58
1045,87	42,44
1046,237	41,56
1046,604	41,98
1046,97	42,13
1047,337	41,45
1047,703	41,92
1048,07	42,23
1048,436	41,63
1048,802	41,3
1049,168	42,32
1049,534	42,2
1049,9	41,25
1050,266	43,1
1050,632	42,4
1050,998	43,91
1051,364	42,51
1051,729	41,47
1052,095	41,67
1052,46	42,38
1052,825	42,13
1053,191	42,54
1053,556	41,76
1053,921	42,34
1054,286	42,17
1054,651	41,91
1055,016	42,29
1055,381	42,8
1055,745	42,84
1056,11	43,08
1056,475	42,46
1056,839	43,89
1057,203	42,41
1057,568	41,84
1057,932	42,2
1058,296	42,09
1058,66	42,16
1059,024	42,28
1059,388	43,07
1059,752	42,23
1060,116	42,82
1060,48	43,73
1060,843	42,25
1061,207	42,57
1061,57	42,04
1061,934	43,38
1062,297	42,57
1062,66	43,35
1063,023	42,02
1063,386	41,91
1063,749	41,52
1064,112	42,29
1064,475	42,82
1064,838	42,31
1065,201	43,38
1065,563	42,25
1065,926	41,81
1066,288	41,95
1066,651	42,55
1067,013	40,16
1067,375	41,5
1067,737	42,52
1068,099	42,41
1068,461	42,07
1068,823	42,01
1069,185	42,55
1069,547	41,54
1069,909	43,22
1070,27	43,03
1070,632	41,87
1070,993	42,21
1071,355	42,18
1071,716	42,56
1072,077	42,21
1072,438	42,61
1072,799	43,64
1073,16	42,34
1073,521	42,43
1073,882	42,5
1074,243	42,24
1074,603	41,71
1074,964	41,18
1075,325	42,78
1075,685	43,15
1076,045	41,69
1076,406	40,99
1076,766	43,04
1077,126	41,34
1077,486	42,49
1077,846	42,5
1078,206	42,57
1078,566	44,28
1078,925	43,3
1079,285	42,5
1079,645	43,37
1080,004	42,7
1080,364	42,32
1080,723	42,54
1081,082	42,47
1081,442	41,85
1081,801	43,11
1082,16	43,08
1082,519	43,27
1082,878	43,39
1083,237	40,24
1083,595	44,66
1083,954	43,48
1084,313	42,19
1084,671	43,8
1085,03	41,78
1085,388	41,93
1085,746	42,92
1086,104	43,75
1086,463	41,75
1086,821	42,67
1087,179	43
1087,537	43,02
1087,894	40,26
1088,252	43,25
1088,61	43,55
1088,967	43,2
1089,325	42,96
1089,682	42,59
1090,04	41,2
1090,397	40,62
1090,754	41,09
1091,111	42,71
1091,469	41,75
1091,826	42,34
1092,182	43,05
1092,539	42,41
1092,896	41,76
1093,253	42,06
1093,609	44,02
1093,966	40,55
1094,322	43,07
1094,679	40,74
1095,035	43,02
1095,391	42,12
1095,748	43,06
1096,104	42,11
1096,46	42,62
1096,816	41,94
1097,171	43,4
1097,527	42,82
1097,883	42,32
1098,239	44,82
1098,594	42,32
1098,95	45,03
1099,305	42,83
1099,66	42,78
1100,016	42,49
1100,371	43,33
1100,726	42,71
1101,081	40,52
1101,436	42,43
1101,791	43,78
1102,146	40,01
1102,5	41,86
1102,855	40,96
1103,21	42,42
1103,564	42,63
1103,918	41,53
1104,273	42,47
1104,627	42,14
1104,981	42,2
1105,335	42,65
1105,69	42,54
1106,043	43,01
1106,397	43,78
1106,751	44,76
1107,105	42,4
1107,459	40,98
1107,812	41,63
1108,166	43,93
1108,519	44,3
1108,873	42,95
1109,226	42,5
1109,579	43,44
1109,932	42,98
1110,285	42,65
1110,638	42,43
1110,991	44,69
1111,344	42,03
1111,697	44,41
1112,05	43,16
1112,402	43,75
1112,755	44,1
1113,107	43,49
1113,46	42,45
1113,812	45,16
1114,164	44,82
1114,517	41,33
1114,869	58,97
1115,221	58,87
1115,573	54,72
1115,924	53,28
